"trial_type","trial_index","time_elapsed","internal_node_id","counterbalance","lang_instruct","ParticipantID","view_history","rt","url","stimulus","button_pressed","key_press","correctRESP","correct","designation","location","correctanswer","timeouts","pause_rt01","pause_rt02","train_file","numKeyPress","sound","fam_type","SYLLABLE","EXEMPLAR","TD_LOCS","TD_TYPE","TDLOC_01","TDLOC_02","TDLOC_03","TDLOC_04","TD_RT_01","TD_RT_02","TD_RT_03","TD_RT_04","TD_SUBJ_RTs","number_of_plays","responses","slider_start","response","question_order","syllable","syllable_type"
"pavlovia","0","3","0.0-0.0","3","0","wgh6bt92f4lv216","","","","","","","","","","","","","","","","","","","","","","","","","","","","","","","","","","","","","",""
"instructions","1","27528","0.0-1.0","3","0","wgh6bt92f4lv216","[{""page_index"":0,""viewing_time"":12795},{""page_index"":1,""viewing_time"":14727}]","27524.900000000373","","","","","","","","","","","","","","","","","","","","","","","","","","","","","","","","","","","",""
"external-html","2","31082","0.0-2.0","3","0","wgh6bt92f4lv216","","3086.5999999996275","consent/consent.html","","","","","","","","","","","","","","","","","","","","","","","","","","","","","","","","","","",""
"html-button-response","3","114521","0.0-3.0-0.0-0.0","3","0","wgh6bt92f4lv216","","83435.79999999888","","<p>Welcome to the study. You will first complete a short volume calibration and headphone check.</p><p>Please make sure you are in a quiet listening environment, that you are wearing headphones, and that your computer's volume is turned on.<p></p>","0","","","","","","","","","","","","","","","","","","","","","","","","","","","","","","","","",""
"html-button-response","4","118403","0.0-3.0-0.0-1.0","3","0","wgh6bt92f4lv216","","3628","","<p>The volume calibration will be first.</p><p>You will hear a thirty-second noise. Please adjust your computer's volume so that this noise is being presented at a comfortable level.<p></p>","0","","","","","","","","","","","","","","","","","","","","","","","","","","","","","","","","",""
"audio-button-response","5","124747","0.0-3.0-0.0-2.0","3","0","wgh6bt92f4lv216","","5207","","audCalib/volumetest.mp3","0","","","","","","","","","","","","","","","","","","","","","","","","","","","","","","","","",""
"html-button-response","6","127003","0.0-3.0-1.0-0.0","3","0","wgh6bt92f4lv216","","2254.9000000003725","","<p>You will now complete a short headphone check.</p><p>On each trial, you will hear three tones. One of these tones will be quieter than the others. Your task is to identify whether the quiet tone occured first, second, or third.</p><p>There are six trials in total.<p></p>","0","","","","","","","","","","","","","","","","","","","","","","","","","","","","","","","","",""
"html-keyboard-response","7","127758","0.0-3.0-1.0-1.0-0.0","3","0","wgh6bt92f4lv216","","null","","<div style=""font-size:60px;"">+</div>","","null","","","","","","","","","","","","","","","","","","","","","","","","","","","","","","","",""
"audio-button-response","8","132691","0.0-3.0-1.0-1.0-1.0","3","0","wgh6bt92f4lv216","","4928","","audCalib/t2_1.mp3","1","","1","1","headphone-test","","","","","","","","","","","","","","","","","","","","","","","","","","","","",""
"html-keyboard-response","9","133448","0.0-3.0-1.0-1.0-0.1","3","0","wgh6bt92f4lv216","","null","","<div style=""font-size:60px;"">+</div>","","null","","","","","","","","","","","","","","","","","","","","","","","","","","","","","","","",""
"audio-button-response","10","138236","0.0-3.0-1.0-1.0-1.1","3","0","wgh6bt92f4lv216","","4783","","audCalib/t1_2.mp3","1","","0","0","headphone-test","","","","","","","","","","","","","","","","","","","","","","","","","","","","",""
"html-keyboard-response","11","138992","0.0-3.0-1.0-1.0-0.2","3","0","wgh6bt92f4lv216","","null","","<div style=""font-size:60px;"">+</div>","","null","","","","","","","","","","","","","","","","","","","","","","","","","","","","","","","",""
"audio-button-response","12","143496","0.0-3.0-1.0-1.0-1.2","3","0","wgh6bt92f4lv216","","4505","","audCalib/t2_2.mp3","1","","1","1","headphone-test","","","","","","","","","","","","","","","","","","","","","","","","","","","","",""
"html-keyboard-response","13","144251","0.0-3.0-1.0-1.0-0.3","3","0","wgh6bt92f4lv216","","null","","<div style=""font-size:60px;"">+</div>","","null","","","","","","","","","","","","","","","","","","","","","","","","","","","","","","","",""
"audio-button-response","14","148724","0.0-3.0-1.0-1.0-1.3","3","0","wgh6bt92f4lv216","","4464","","audCalib/t3_1.mp3","2","","2","1","headphone-test","","","","","","","","","","","","","","","","","","","","","","","","","","","","",""
"html-keyboard-response","15","149482","0.0-3.0-1.0-1.0-0.4","3","0","wgh6bt92f4lv216","","null","","<div style=""font-size:60px;"">+</div>","","null","","","","","","","","","","","","","","","","","","","","","","","","","","","","","","","",""
"audio-button-response","16","154044","0.0-3.0-1.0-1.0-1.4","3","0","wgh6bt92f4lv216","","4557","","audCalib/t3_2.mp3","2","","2","1","headphone-test","","","","","","","","","","","","","","","","","","","","","","","","","","","","",""
"html-keyboard-response","17","154799","0.0-3.0-1.0-1.0-0.5","3","0","wgh6bt92f4lv216","","null","","<div style=""font-size:60px;"">+</div>","","null","","","","","","","","","","","","","","","","","","","","","","","","","","","","","","","",""
"audio-button-response","18","159414","0.0-3.0-1.0-1.0-1.5","3","0","wgh6bt92f4lv216","","4609","","audCalib/t1_1.mp3","2","","0","0","headphone-test","","","","","","","","","","","","","","","","","","","","","","","","","","","","",""
"html-button-response","19","161480","0.0-3.0-2.0","3","0","wgh6bt92f4lv216","","1810","","<p>The volume calibration and headphone check are now complete.</p>","0","","","","","","","","","","","","","","","","","","","","","","","","","","","","","","","","",""
"instructions","20","174298","0.0-4.0-0.0","3","0","wgh6bt92f4lv216","[{""page_index"":0,""viewing_time"":958.3000000007451},{""page_index"":1,""viewing_time"":10052.699999999255},{""page_index"":2,""viewing_time"":1805.699999999255}]","12817","","","","","","","","","","","","","","","","","","","","","","","","","","","","","","","","","","","",""
"audio-keyboard-response","21","174597","0.0-4.0-1.0-0.0","3","0","wgh6bt92f4lv216","","null","","sounds/induction/left_rev/ko_SWS.wav","","null","","","","","","","","","","","","","","","","","","","","","","","","","","","","","","","",""
"html-button-response","22","178252","0.0-4.0-1.0-1.0","3","0","wgh6bt92f4lv216","","3653.5999999996275","","Was the sound coming from the left or the right?","0","","","1","INDUCTION-JUDGMENT","left","0","","","","","","","","","","","","","","","","","","","","","","","","","","",""
"html-keyboard-response","23","179255","0.0-4.0-1.0-2.0","3","0","wgh6bt92f4lv216","","null","","<p style=""color:#054d00;""><b>Correct!</b></p>","","null","","","","","","","","","","","","","","","","","","","","","","","","","","","","","","","",""
"audio-keyboard-response","24","180053","0.0-4.0-1.0-0.1","3","0","wgh6bt92f4lv216","","null","","sounds/induction/left_rev/ni_SWS.wav","","null","","","","","","","","","","","","","","","","","","","","","","","","","","","","","","","",""
"html-button-response","25","183147","0.0-4.0-1.0-1.1","3","0","wgh6bt92f4lv216","","3093","","Was the sound coming from the left or the right?","0","","","1","INDUCTION-JUDGMENT","left","0","","","","","","","","","","","","","","","","","","","","","","","","","","",""
"html-keyboard-response","26","184149","0.0-4.0-1.0-2.1","3","0","wgh6bt92f4lv216","","null","","<p style=""color:#054d00;""><b>Correct!</b></p>","","null","","","","","","","","","","","","","","","","","","","","","","","","","","","","","","","",""
"audio-keyboard-response","27","184949","0.0-4.0-1.0-0.2","3","0","wgh6bt92f4lv216","","null","","sounds/induction/right_rev/ge_SWS.wav","","null","","","","","","","","","","","","","","","","","","","","","","","","","","","","","","","",""
"html-button-response","28","186158","0.0-4.0-1.0-1.2","3","0","wgh6bt92f4lv216","","1208","","Was the sound coming from the left or the right?","1","","","1","INDUCTION-JUDGMENT","right","1","","","","","","","","","","","","","","","","","","","","","","","","","","",""
"html-keyboard-response","29","187160","0.0-4.0-1.0-2.2","3","0","wgh6bt92f4lv216","","null","","<p style=""color:#054d00;""><b>Correct!</b></p>","","null","","","","","","","","","","","","","","","","","","","","","","","","","","","","","","","",""
"audio-keyboard-response","30","187965","0.0-4.0-1.0-0.3","3","0","wgh6bt92f4lv216","","null","","sounds/induction/right_rev/ti_SWS.wav","","null","","","","","","","","","","","","","","","","","","","","","","","","","","","","","","","",""
"html-button-response","31","189390","0.0-4.0-1.0-1.3","3","0","wgh6bt92f4lv216","","1424.4000000003725","","Was the sound coming from the left or the right?","1","","","1","INDUCTION-JUDGMENT","right","1","","","","","","","","","","","","","","","","","","","","","","","","","","",""
"html-keyboard-response","32","190392","0.0-4.0-1.0-2.3","3","0","wgh6bt92f4lv216","","null","","<p style=""color:#054d00;""><b>Correct!</b></p>","","null","","","","","","","","","","","","","","","","","","","","","","","","","","","","","","","",""
"audio-keyboard-response","33","191191","0.0-4.0-1.0-0.4","3","0","wgh6bt92f4lv216","","null","","sounds/induction/left_rev/me_SWS.wav","","null","","","","","","","","","","","","","","","","","","","","","","","","","","","","","","","",""
"html-button-response","34","192908","0.0-4.0-1.0-1.4","3","0","wgh6bt92f4lv216","","1715.199999999255","","Was the sound coming from the left or the right?","0","","","1","INDUCTION-JUDGMENT","left","0","","","","","","","","","","","","","","","","","","","","","","","","","","",""
"html-keyboard-response","35","193910","0.0-4.0-1.0-2.4","3","0","wgh6bt92f4lv216","","null","","<p style=""color:#054d00;""><b>Correct!</b></p>","","null","","","","","","","","","","","","","","","","","","","","","","","","","","","","","","","",""
"audio-keyboard-response","36","194712","0.0-4.0-1.0-0.5","3","0","wgh6bt92f4lv216","","null","","sounds/induction/right_rev/ko_SWS.wav","","null","","","","","","","","","","","","","","","","","","","","","","","","","","","","","","","",""
"html-button-response","37","195791","0.0-4.0-1.0-1.5","3","0","wgh6bt92f4lv216","","1077.800000000745","","Was the sound coming from the left or the right?","1","","","1","INDUCTION-JUDGMENT","right","1","","","","","","","","","","","","","","","","","","","","","","","","","","",""
"html-keyboard-response","38","196795","0.0-4.0-1.0-2.5","3","0","wgh6bt92f4lv216","","null","","<p style=""color:#054d00;""><b>Correct!</b></p>","","null","","","","","","","","","","","","","","","","","","","","","","","","","","","","","","","",""
"audio-keyboard-response","39","197597","0.0-4.0-1.0-0.6","3","0","wgh6bt92f4lv216","","null","","sounds/induction/left_rev/fe_SWS.wav","","null","","","","","","","","","","","","","","","","","","","","","","","","","","","","","","","",""
"html-button-response","40","198683","0.0-4.0-1.0-1.6","3","0","wgh6bt92f4lv216","","1084.699999999255","","Was the sound coming from the left or the right?","0","","","1","INDUCTION-JUDGMENT","left","0","","","","","","","","","","","","","","","","","","","","","","","","","","",""
"html-keyboard-response","41","199686","0.0-4.0-1.0-2.6","3","0","wgh6bt92f4lv216","","null","","<p style=""color:#054d00;""><b>Correct!</b></p>","","null","","","","","","","","","","","","","","","","","","","","","","","","","","","","","","","",""
"audio-keyboard-response","42","200493","0.0-4.0-1.0-0.7","3","0","wgh6bt92f4lv216","","null","","sounds/induction/right_rev/ta_SWS.wav","","null","","","","","","","","","","","","","","","","","","","","","","","","","","","","","","","",""
"html-button-response","43","201408","0.0-4.0-1.0-1.7","3","0","wgh6bt92f4lv216","","913.6999999992549","","Was the sound coming from the left or the right?","1","","","1","INDUCTION-JUDGMENT","right","1","","","","","","","","","","","","","","","","","","","","","","","","","","",""
"html-keyboard-response","44","202414","0.0-4.0-1.0-2.7","3","0","wgh6bt92f4lv216","","null","","<p style=""color:#054d00;""><b>Correct!</b></p>","","null","","","","","","","","","","","","","","","","","","","","","","","","","","","","","","","",""
"audio-keyboard-response","45","203221","0.0-4.0-1.0-0.8","3","0","wgh6bt92f4lv216","","null","","sounds/induction/right_rev/ru_SWS.wav","","null","","","","","","","","","","","","","","","","","","","","","","","","","","","","","","","",""
"html-button-response","46","204141","0.0-4.0-1.0-1.8","3","0","wgh6bt92f4lv216","","919.3999999985099","","Was the sound coming from the left or the right?","1","","","1","INDUCTION-JUDGMENT","right","1","","","","","","","","","","","","","","","","","","","","","","","","","","",""
"html-keyboard-response","47","205142","0.0-4.0-1.0-2.8","3","0","wgh6bt92f4lv216","","null","","<p style=""color:#054d00;""><b>Correct!</b></p>","","null","","","","","","","","","","","","","","","","","","","","","","","","","","","","","","","",""
"audio-keyboard-response","48","205949","0.0-4.0-1.0-0.9","3","0","wgh6bt92f4lv216","","null","","sounds/induction/left_rev/ta_SWS.wav","","null","","","","","","","","","","","","","","","","","","","","","","","","","","","","","","","",""
"html-button-response","49","206914","0.0-4.0-1.0-1.9","3","0","wgh6bt92f4lv216","","963.7000000011176","","Was the sound coming from the left or the right?","0","","","1","INDUCTION-JUDGMENT","left","0","","","","","","","","","","","","","","","","","","","","","","","","","","",""
"html-keyboard-response","50","207918","0.0-4.0-1.0-2.9","3","0","wgh6bt92f4lv216","","null","","<p style=""color:#054d00;""><b>Correct!</b></p>","","null","","","","","","","","","","","","","","","","","","","","","","","","","","","","","","","",""
"audio-keyboard-response","51","208723","0.0-4.0-1.0-0.10","3","0","wgh6bt92f4lv216","","null","","sounds/induction/left_rev/re_SWS.wav","","null","","","","","","","","","","","","","","","","","","","","","","","","","","","","","","","",""
"html-button-response","52","209715","0.0-4.0-1.0-1.10","3","0","wgh6bt92f4lv216","","991","","Was the sound coming from the left or the right?","0","","","1","INDUCTION-JUDGMENT","left","0","","","","","","","","","","","","","","","","","","","","","","","","","","",""
"html-keyboard-response","53","210721","0.0-4.0-1.0-2.10","3","0","wgh6bt92f4lv216","","null","","<p style=""color:#054d00;""><b>Correct!</b></p>","","null","","","","","","","","","","","","","","","","","","","","","","","","","","","","","","","",""
"audio-keyboard-response","54","211526","0.0-4.0-1.0-0.11","3","0","wgh6bt92f4lv216","","null","","sounds/induction/right_rev/su_SWS.wav","","null","","","","","","","","","","","","","","","","","","","","","","","","","","","","","","","",""
"html-button-response","55","212500","0.0-4.0-1.0-1.11","3","0","wgh6bt92f4lv216","","972.1999999992549","","Was the sound coming from the left or the right?","1","","","1","INDUCTION-JUDGMENT","right","1","","","","","","","","","","","","","","","","","","","","","","","","","","",""
"html-keyboard-response","56","213501","0.0-4.0-1.0-2.11","3","0","wgh6bt92f4lv216","","null","","<p style=""color:#054d00;""><b>Correct!</b></p>","","null","","","","","","","","","","","","","","","","","","","","","","","","","","","","","","","",""
"audio-keyboard-response","57","214306","0.0-4.0-1.0-0.12","3","0","wgh6bt92f4lv216","","null","","sounds/induction/right_rev/ko_SWS.wav","","null","","","","","","","","","","","","","","","","","","","","","","","","","","","","","","","",""
"html-button-response","58","215554","0.0-4.0-1.0-1.12","3","0","wgh6bt92f4lv216","","1246.300000000745","","Was the sound coming from the left or the right?","1","","","1","INDUCTION-JUDGMENT","right","1","","","","","","","","","","","","","","","","","","","","","","","","","","",""
"html-keyboard-response","59","216556","0.0-4.0-1.0-2.12","3","0","wgh6bt92f4lv216","","null","","<p style=""color:#054d00;""><b>Correct!</b></p>","","null","","","","","","","","","","","","","","","","","","","","","","","","","","","","","","","",""
"audio-keyboard-response","60","217358","0.0-4.0-1.0-0.13","3","0","wgh6bt92f4lv216","","null","","sounds/induction/right_rev/fu_SWS.wav","","null","","","","","","","","","","","","","","","","","","","","","","","","","","","","","","","",""
"html-button-response","61","218566","0.0-4.0-1.0-1.13","3","0","wgh6bt92f4lv216","","1206.0999999996275","","Was the sound coming from the left or the right?","1","","","1","INDUCTION-JUDGMENT","right","1","","","","","","","","","","","","","","","","","","","","","","","","","","",""
"html-keyboard-response","62","219568","0.0-4.0-1.0-2.13","3","0","wgh6bt92f4lv216","","null","","<p style=""color:#054d00;""><b>Correct!</b></p>","","null","","","","","","","","","","","","","","","","","","","","","","","","","","","","","","","",""
"audio-keyboard-response","63","220370","0.0-4.0-1.0-0.14","3","0","wgh6bt92f4lv216","","null","","sounds/induction/right_rev/ta_SWS.wav","","null","","","","","","","","","","","","","","","","","","","","","","","","","","","","","","","",""
"html-button-response","64","221466","0.0-4.0-1.0-1.14","3","0","wgh6bt92f4lv216","","1094","","Was the sound coming from the left or the right?","1","","","1","INDUCTION-JUDGMENT","right","1","","","","","","","","","","","","","","","","","","","","","","","","","","",""
"html-keyboard-response","65","222471","0.0-4.0-1.0-2.14","3","0","wgh6bt92f4lv216","","null","","<p style=""color:#054d00;""><b>Correct!</b></p>","","null","","","","","","","","","","","","","","","","","","","","","","","","","","","","","","","",""
"audio-keyboard-response","66","223277","0.0-4.0-1.0-0.15","3","0","wgh6bt92f4lv216","","null","","sounds/induction/left_rev/su_SWS.wav","","null","","","","","","","","","","","","","","","","","","","","","","","","","","","","","","","",""
"html-button-response","67","224326","0.0-4.0-1.0-1.15","3","0","wgh6bt92f4lv216","","1046.9000000003725","","Was the sound coming from the left or the right?","0","","","1","INDUCTION-JUDGMENT","left","0","","","","","","","","","","","","","","","","","","","","","","","","","","",""
"html-keyboard-response","68","225328","0.0-4.0-1.0-2.15","3","0","wgh6bt92f4lv216","","null","","<p style=""color:#054d00;""><b>Correct!</b></p>","","null","","","","","","","","","","","","","","","","","","","","","","","","","","","","","","","",""
"audio-keyboard-response","69","226133","0.0-4.0-1.0-0.16","3","0","wgh6bt92f4lv216","","null","","sounds/induction/left_rev/pu_SWS.wav","","null","","","","","","","","","","","","","","","","","","","","","","","","","","","","","","","",""
"html-button-response","70","227161","0.0-4.0-1.0-1.16","3","0","wgh6bt92f4lv216","","1026.2000000011176","","Was the sound coming from the left or the right?","0","","","1","INDUCTION-JUDGMENT","left","0","","","","","","","","","","","","","","","","","","","","","","","","","","",""
"html-keyboard-response","71","228166","0.0-4.0-1.0-2.16","3","0","wgh6bt92f4lv216","","null","","<p style=""color:#054d00;""><b>Correct!</b></p>","","null","","","","","","","","","","","","","","","","","","","","","","","","","","","","","","","",""
"audio-keyboard-response","72","228971","0.0-4.0-1.0-0.17","3","0","wgh6bt92f4lv216","","null","","sounds/induction/right_rev/ge_SWS.wav","","null","","","","","","","","","","","","","","","","","","","","","","","","","","","","","","","",""
"html-button-response","73","229846","0.0-4.0-1.0-1.17","3","0","wgh6bt92f4lv216","","874.1999999992549","","Was the sound coming from the left or the right?","1","","","1","INDUCTION-JUDGMENT","right","1","","","","","","","","","","","","","","","","","","","","","","","","","","",""
"html-keyboard-response","74","230848","0.0-4.0-1.0-2.17","3","0","wgh6bt92f4lv216","","null","","<p style=""color:#054d00;""><b>Correct!</b></p>","","null","","","","","","","","","","","","","","","","","","","","","","","","","","","","","","","",""
"audio-keyboard-response","75","231652","0.0-4.0-1.0-0.18","3","0","wgh6bt92f4lv216","","null","","sounds/induction/left_rev/ge_SWS.wav","","null","","","","","","","","","","","","","","","","","","","","","","","","","","","","","","","",""
"html-button-response","76","232421","0.0-4.0-1.0-1.18","3","0","wgh6bt92f4lv216","","767.6999999992549","","Was the sound coming from the left or the right?","0","","","1","INDUCTION-JUDGMENT","left","0","","","","","","","","","","","","","","","","","","","","","","","","","","",""
"html-keyboard-response","77","233424","0.0-4.0-1.0-2.18","3","0","wgh6bt92f4lv216","","null","","<p style=""color:#054d00;""><b>Correct!</b></p>","","null","","","","","","","","","","","","","","","","","","","","","","","","","","","","","","","",""
"audio-keyboard-response","78","234230","0.0-4.0-1.0-0.19","3","0","wgh6bt92f4lv216","","null","","sounds/induction/left_rev/ge_SWS.wav","","null","","","","","","","","","","","","","","","","","","","","","","","","","","","","","","","",""
"html-button-response","79","235226","0.0-4.0-1.0-1.19","3","0","wgh6bt92f4lv216","","994.9000000003725","","Was the sound coming from the left or the right?","0","","","1","INDUCTION-JUDGMENT","left","0","","","","","","","","","","","","","","","","","","","","","","","","","","",""
"html-keyboard-response","80","236231","0.0-4.0-1.0-2.19","3","0","wgh6bt92f4lv216","","null","","<p style=""color:#054d00;""><b>Correct!</b></p>","","null","","","","","","","","","","","","","","","","","","","","","","","","","","","","","","","",""
"audio-keyboard-response","81","237033","0.0-4.0-1.0-0.20","3","0","wgh6bt92f4lv216","","null","","sounds/induction/right_rev/ni_SWS.wav","","null","","","","","","","","","","","","","","","","","","","","","","","","","","","","","","","",""
"html-button-response","82","237721","0.0-4.0-1.0-1.20","3","0","wgh6bt92f4lv216","","687.7999999988824","","Was the sound coming from the left or the right?","1","","","1","INDUCTION-JUDGMENT","right","1","","","","","","","","","","","","","","","","","","","","","","","","","","",""
"html-keyboard-response","83","238724","0.0-4.0-1.0-2.20","3","0","wgh6bt92f4lv216","","null","","<p style=""color:#054d00;""><b>Correct!</b></p>","","null","","","","","","","","","","","","","","","","","","","","","","","","","","","","","","","",""
"audio-keyboard-response","84","239523","0.0-4.0-1.0-0.21","3","0","wgh6bt92f4lv216","","null","","sounds/induction/left_rev/ti_SWS.wav","","null","","","","","","","","","","","","","","","","","","","","","","","","","","","","","","","",""
"html-button-response","85","240454","0.0-4.0-1.0-1.21","3","0","wgh6bt92f4lv216","","929.7000000011176","","Was the sound coming from the left or the right?","0","","","1","INDUCTION-JUDGMENT","left","0","","","","","","","","","","","","","","","","","","","","","","","","","","",""
"html-keyboard-response","86","241455","0.0-4.0-1.0-2.21","3","0","wgh6bt92f4lv216","","null","","<p style=""color:#054d00;""><b>Correct!</b></p>","","null","","","","","","","","","","","","","","","","","","","","","","","","","","","","","","","",""
"audio-keyboard-response","87","242257","0.0-4.0-1.0-0.22","3","0","wgh6bt92f4lv216","","null","","sounds/induction/right_rev/ru_SWS.wav","","null","","","","","","","","","","","","","","","","","","","","","","","","","","","","","","","",""
"html-button-response","88","243156","0.0-4.0-1.0-1.22","3","0","wgh6bt92f4lv216","","897.8000000007451","","Was the sound coming from the left or the right?","1","","","1","INDUCTION-JUDGMENT","right","1","","","","","","","","","","","","","","","","","","","","","","","","","","",""
"html-keyboard-response","89","244158","0.0-4.0-1.0-2.22","3","0","wgh6bt92f4lv216","","null","","<p style=""color:#054d00;""><b>Correct!</b></p>","","null","","","","","","","","","","","","","","","","","","","","","","","","","","","","","","","",""
"audio-keyboard-response","90","244962","0.0-4.0-1.0-0.23","3","0","wgh6bt92f4lv216","","null","","sounds/induction/right_rev/ti_SWS.wav","","null","","","","","","","","","","","","","","","","","","","","","","","","","","","","","","","",""
"html-button-response","91","245808","0.0-4.0-1.0-1.23","3","0","wgh6bt92f4lv216","","845.9000000003725","","Was the sound coming from the left or the right?","1","","","1","INDUCTION-JUDGMENT","right","1","","","","","","","","","","","","","","","","","","","","","","","","","","",""
"html-keyboard-response","92","246813","0.0-4.0-1.0-2.23","3","0","wgh6bt92f4lv216","","null","","<p style=""color:#054d00;""><b>Correct!</b></p>","","null","","","","","","","","","","","","","","","","","","","","","","","","","","","","","","","",""
"audio-keyboard-response","93","247614","0.0-4.0-1.0-0.24","3","0","wgh6bt92f4lv216","","null","","sounds/induction/left_rev/re_SWS.wav","","null","","","","","","","","","","","","","","","","","","","","","","","","","","","","","","","",""
"html-button-response","94","248367","0.0-4.0-1.0-1.24","3","0","wgh6bt92f4lv216","","752.2000000011176","","Was the sound coming from the left or the right?","0","","","1","INDUCTION-JUDGMENT","left","0","","","","","","","","","","","","","","","","","","","","","","","","","","",""
"html-keyboard-response","95","249371","0.0-4.0-1.0-2.24","3","0","wgh6bt92f4lv216","","null","","<p style=""color:#054d00;""><b>Correct!</b></p>","","null","","","","","","","","","","","","","","","","","","","","","","","","","","","","","","","",""
"audio-keyboard-response","96","250168","0.0-4.0-1.0-0.25","3","0","wgh6bt92f4lv216","","null","","sounds/induction/right_rev/pu_SWS.wav","","null","","","","","","","","","","","","","","","","","","","","","","","","","","","","","","","",""
"html-button-response","97","251029","0.0-4.0-1.0-1.25","3","0","wgh6bt92f4lv216","","860.0999999996275","","Was the sound coming from the left or the right?","1","","","1","INDUCTION-JUDGMENT","right","1","","","","","","","","","","","","","","","","","","","","","","","","","","",""
"html-keyboard-response","98","252030","0.0-4.0-1.0-2.25","3","0","wgh6bt92f4lv216","","null","","<p style=""color:#054d00;""><b>Correct!</b></p>","","null","","","","","","","","","","","","","","","","","","","","","","","","","","","","","","","",""
"audio-keyboard-response","99","252832","0.0-4.0-1.0-0.26","3","0","wgh6bt92f4lv216","","null","","sounds/induction/right_rev/ni_SWS.wav","","null","","","","","","","","","","","","","","","","","","","","","","","","","","","","","","","",""
"html-button-response","100","253739","0.0-4.0-1.0-1.26","3","0","wgh6bt92f4lv216","","905.8999999985099","","Was the sound coming from the left or the right?","1","","","1","INDUCTION-JUDGMENT","right","1","","","","","","","","","","","","","","","","","","","","","","","","","","",""
"html-keyboard-response","101","254741","0.0-4.0-1.0-2.26","3","0","wgh6bt92f4lv216","","null","","<p style=""color:#054d00;""><b>Correct!</b></p>","","null","","","","","","","","","","","","","","","","","","","","","","","","","","","","","","","",""
"audio-keyboard-response","102","255543","0.0-4.0-1.0-0.27","3","0","wgh6bt92f4lv216","","null","","sounds/induction/right_rev/me_SWS.wav","","null","","","","","","","","","","","","","","","","","","","","","","","","","","","","","","","",""
"html-button-response","103","256242","0.0-4.0-1.0-1.27","3","0","wgh6bt92f4lv216","","698.2999999988824","","Was the sound coming from the left or the right?","1","","","1","INDUCTION-JUDGMENT","right","1","","","","","","","","","","","","","","","","","","","","","","","","","","",""
"html-keyboard-response","104","257243","0.0-4.0-1.0-2.27","3","0","wgh6bt92f4lv216","","null","","<p style=""color:#054d00;""><b>Correct!</b></p>","","null","","","","","","","","","","","","","","","","","","","","","","","","","","","","","","","",""
"audio-keyboard-response","105","258045","0.0-4.0-1.0-0.28","3","0","wgh6bt92f4lv216","","null","","sounds/induction/right_rev/re_SWS.wav","","null","","","","","","","","","","","","","","","","","","","","","","","","","","","","","","","",""
"html-button-response","106","258794","0.0-4.0-1.0-1.28","3","0","wgh6bt92f4lv216","","747.5999999996275","","Was the sound coming from the left or the right?","1","","","1","INDUCTION-JUDGMENT","right","1","","","","","","","","","","","","","","","","","","","","","","","","","","",""
"html-keyboard-response","107","259797","0.0-4.0-1.0-2.28","3","0","wgh6bt92f4lv216","","null","","<p style=""color:#054d00;""><b>Correct!</b></p>","","null","","","","","","","","","","","","","","","","","","","","","","","","","","","","","","","",""
"audio-keyboard-response","108","260599","0.0-4.0-1.0-0.29","3","0","wgh6bt92f4lv216","","null","","sounds/induction/left_rev/fu_SWS.wav","","null","","","","","","","","","","","","","","","","","","","","","","","","","","","","","","","",""
"html-button-response","109","261398","0.0-4.0-1.0-1.29","3","0","wgh6bt92f4lv216","","798.4000000003725","","Was the sound coming from the left or the right?","0","","","1","INDUCTION-JUDGMENT","left","0","","","","","","","","","","","","","","","","","","","","","","","","","","",""
"html-keyboard-response","110","262400","0.0-4.0-1.0-2.29","3","0","wgh6bt92f4lv216","","null","","<p style=""color:#054d00;""><b>Correct!</b></p>","","null","","","","","","","","","","","","","","","","","","","","","","","","","","","","","","","",""
"audio-keyboard-response","111","263199","0.0-4.0-1.0-0.30","3","0","wgh6bt92f4lv216","","null","","sounds/induction/left_rev/su_SWS.wav","","null","","","","","","","","","","","","","","","","","","","","","","","","","","","","","","","",""
"html-button-response","112","264189","0.0-4.0-1.0-1.30","3","0","wgh6bt92f4lv216","","988.4000000003725","","Was the sound coming from the left or the right?","1","","","0","INDUCTION-JUDGMENT","left","0","","","","","","","","","","","","","","","","","","","","","","","","","","",""
"html-keyboard-response","113","265190","0.0-4.0-1.0-2.30","3","0","wgh6bt92f4lv216","","null","","<p style=""color:#690000;""><b>Incorrect!</b></p>","","null","","","","","","","","","","","","","","","","","","","","","","","","","","","","","","","",""
"audio-keyboard-response","114","265992","0.0-4.0-1.0-0.31","3","0","wgh6bt92f4lv216","","null","","sounds/induction/left_rev/pu_SWS.wav","","null","","","","","","","","","","","","","","","","","","","","","","","","","","","","","","","",""
"html-button-response","115","266850","0.0-4.0-1.0-1.31","3","0","wgh6bt92f4lv216","","857.5","","Was the sound coming from the left or the right?","0","","","1","INDUCTION-JUDGMENT","left","0","","","","","","","","","","","","","","","","","","","","","","","","","","",""
"html-keyboard-response","116","267854","0.0-4.0-1.0-2.31","3","0","wgh6bt92f4lv216","","null","","<p style=""color:#054d00;""><b>Correct!</b></p>","","null","","","","","","","","","","","","","","","","","","","","","","","","","","","","","","","",""
"audio-keyboard-response","117","268661","0.0-4.0-1.0-0.32","3","0","wgh6bt92f4lv216","","null","","sounds/induction/left_rev/me_SWS.wav","","null","","","","","","","","","","","","","","","","","","","","","","","","","","","","","","","",""
"html-button-response","118","269504","0.0-4.0-1.0-1.32","3","0","wgh6bt92f4lv216","","842.0999999996275","","Was the sound coming from the left or the right?","0","","","1","INDUCTION-JUDGMENT","left","0","","","","","","","","","","","","","","","","","","","","","","","","","","",""
"html-keyboard-response","119","270507","0.0-4.0-1.0-2.32","3","0","wgh6bt92f4lv216","","null","","<p style=""color:#054d00;""><b>Correct!</b></p>","","null","","","","","","","","","","","","","","","","","","","","","","","","","","","","","","","",""
"audio-keyboard-response","120","271314","0.0-4.0-1.0-0.33","3","0","wgh6bt92f4lv216","","null","","sounds/induction/left_rev/ta_SWS.wav","","null","","","","","","","","","","","","","","","","","","","","","","","","","","","","","","","",""
"html-button-response","121","272189","0.0-4.0-1.0-1.33","3","0","wgh6bt92f4lv216","","874.6999999992549","","Was the sound coming from the left or the right?","0","","","1","INDUCTION-JUDGMENT","left","0","","","","","","","","","","","","","","","","","","","","","","","","","","",""
"html-keyboard-response","122","273195","0.0-4.0-1.0-2.33","3","0","wgh6bt92f4lv216","","null","","<p style=""color:#054d00;""><b>Correct!</b></p>","","null","","","","","","","","","","","","","","","","","","","","","","","","","","","","","","","",""
"audio-keyboard-response","123","274001","0.0-4.0-1.0-0.34","3","0","wgh6bt92f4lv216","","null","","sounds/induction/right_rev/re_SWS.wav","","null","","","","","","","","","","","","","","","","","","","","","","","","","","","","","","","",""
"html-button-response","124","274623","0.0-4.0-1.0-1.34","3","0","wgh6bt92f4lv216","","620.0999999996275","","Was the sound coming from the left or the right?","1","","","1","INDUCTION-JUDGMENT","right","1","","","","","","","","","","","","","","","","","","","","","","","","","","",""
"html-keyboard-response","125","275627","0.0-4.0-1.0-2.34","3","0","wgh6bt92f4lv216","","null","","<p style=""color:#054d00;""><b>Correct!</b></p>","","null","","","","","","","","","","","","","","","","","","","","","","","","","","","","","","","",""
"audio-keyboard-response","126","276434","0.0-4.0-1.0-0.35","3","0","wgh6bt92f4lv216","","null","","sounds/induction/right_rev/fu_SWS.wav","","null","","","","","","","","","","","","","","","","","","","","","","","","","","","","","","","",""
"html-button-response","127","277189","0.0-4.0-1.0-1.35","3","0","wgh6bt92f4lv216","","754.4000000003725","","Was the sound coming from the left or the right?","1","","","1","INDUCTION-JUDGMENT","right","1","","","","","","","","","","","","","","","","","","","","","","","","","","",""
"html-keyboard-response","128","278193","0.0-4.0-1.0-2.35","3","0","wgh6bt92f4lv216","","null","","<p style=""color:#054d00;""><b>Correct!</b></p>","","null","","","","","","","","","","","","","","","","","","","","","","","","","","","","","","","",""
"audio-keyboard-response","129","278993","0.0-4.0-1.0-0.36","3","0","wgh6bt92f4lv216","","null","","sounds/induction/left_rev/ru_SWS.wav","","null","","","","","","","","","","","","","","","","","","","","","","","","","","","","","","","",""
"html-button-response","130","279535","0.0-4.0-1.0-1.36","3","0","wgh6bt92f4lv216","","540.2000000011176","","Was the sound coming from the left or the right?","0","","","1","INDUCTION-JUDGMENT","left","0","","","","","","","","","","","","","","","","","","","","","","","","","","",""
"html-keyboard-response","131","280536","0.0-4.0-1.0-2.36","3","0","wgh6bt92f4lv216","","null","","<p style=""color:#054d00;""><b>Correct!</b></p>","","null","","","","","","","","","","","","","","","","","","","","","","","","","","","","","","","",""
"audio-keyboard-response","132","281339","0.0-4.0-1.0-0.37","3","0","wgh6bt92f4lv216","","null","","sounds/induction/left_rev/fe_SWS.wav","","null","","","","","","","","","","","","","","","","","","","","","","","","","","","","","","","",""
"html-button-response","133","282047","0.0-4.0-1.0-1.37","3","0","wgh6bt92f4lv216","","706.1999999992549","","Was the sound coming from the left or the right?","1","","","0","INDUCTION-JUDGMENT","left","0","","","","","","","","","","","","","","","","","","","","","","","","","","",""
"html-keyboard-response","134","283052","0.0-4.0-1.0-2.37","3","0","wgh6bt92f4lv216","","null","","<p style=""color:#690000;""><b>Incorrect!</b></p>","","null","","","","","","","","","","","","","","","","","","","","","","","","","","","","","","","",""
"audio-keyboard-response","135","283858","0.0-4.0-1.0-0.38","3","0","wgh6bt92f4lv216","","null","","sounds/induction/left_rev/ru_SWS.wav","","null","","","","","","","","","","","","","","","","","","","","","","","","","","","","","","","",""
"html-button-response","136","284573","0.0-4.0-1.0-1.38","3","0","wgh6bt92f4lv216","","713.7999999988824","","Was the sound coming from the left or the right?","0","","","1","INDUCTION-JUDGMENT","left","0","","","","","","","","","","","","","","","","","","","","","","","","","","",""
"html-keyboard-response","137","285577","0.0-4.0-1.0-2.38","3","0","wgh6bt92f4lv216","","null","","<p style=""color:#054d00;""><b>Correct!</b></p>","","null","","","","","","","","","","","","","","","","","","","","","","","","","","","","","","","",""
"audio-keyboard-response","138","286384","0.0-4.0-1.0-0.39","3","0","wgh6bt92f4lv216","","null","","sounds/induction/left_rev/ti_SWS.wav","","null","","","","","","","","","","","","","","","","","","","","","","","","","","","","","","","",""
"html-button-response","139","286998","0.0-4.0-1.0-1.39","3","0","wgh6bt92f4lv216","","612.7000000011176","","Was the sound coming from the left or the right?","1","","","0","INDUCTION-JUDGMENT","left","0","","","","","","","","","","","","","","","","","","","","","","","","","","",""
"html-keyboard-response","140","288003","0.0-4.0-1.0-2.39","3","0","wgh6bt92f4lv216","","null","","<p style=""color:#690000;""><b>Incorrect!</b></p>","","null","","","","","","","","","","","","","","","","","","","","","","","","","","","","","","","",""
"audio-keyboard-response","141","288810","0.0-4.0-1.0-0.40","3","0","wgh6bt92f4lv216","","null","","sounds/induction/right_rev/fe_SWS.wav","","null","","","","","","","","","","","","","","","","","","","","","","","","","","","","","","","",""
"html-button-response","142","289638","0.0-4.0-1.0-1.40","3","0","wgh6bt92f4lv216","","826","","Was the sound coming from the left or the right?","1","","","1","INDUCTION-JUDGMENT","right","1","","","","","","","","","","","","","","","","","","","","","","","","","","",""
"html-keyboard-response","143","290641","0.0-4.0-1.0-2.40","3","0","wgh6bt92f4lv216","","null","","<p style=""color:#054d00;""><b>Correct!</b></p>","","null","","","","","","","","","","","","","","","","","","","","","","","","","","","","","","","",""
"audio-keyboard-response","144","291446","0.0-4.0-1.0-0.41","3","0","wgh6bt92f4lv216","","null","","sounds/induction/right_rev/me_SWS.wav","","null","","","","","","","","","","","","","","","","","","","","","","","","","","","","","","","",""
"html-button-response","145","292011","0.0-4.0-1.0-1.41","3","0","wgh6bt92f4lv216","","563.7000000011176","","Was the sound coming from the left or the right?","1","","","1","INDUCTION-JUDGMENT","right","1","","","","","","","","","","","","","","","","","","","","","","","","","","",""
"html-keyboard-response","146","293013","0.0-4.0-1.0-2.41","3","0","wgh6bt92f4lv216","","null","","<p style=""color:#054d00;""><b>Correct!</b></p>","","null","","","","","","","","","","","","","","","","","","","","","","","","","","","","","","","",""
"audio-keyboard-response","147","293814","0.0-4.0-1.0-0.42","3","0","wgh6bt92f4lv216","","null","","sounds/induction/left_rev/fu_SWS.wav","","null","","","","","","","","","","","","","","","","","","","","","","","","","","","","","","","",""
"html-button-response","148","294556","0.0-4.0-1.0-1.42","3","0","wgh6bt92f4lv216","","740.5","","Was the sound coming from the left or the right?","0","","","1","INDUCTION-JUDGMENT","left","0","","","","","","","","","","","","","","","","","","","","","","","","","","",""
"html-keyboard-response","149","295562","0.0-4.0-1.0-2.42","3","0","wgh6bt92f4lv216","","null","","<p style=""color:#054d00;""><b>Correct!</b></p>","","null","","","","","","","","","","","","","","","","","","","","","","","","","","","","","","","",""
"audio-keyboard-response","150","296368","0.0-4.0-1.0-0.43","3","0","wgh6bt92f4lv216","","null","","sounds/induction/right_rev/fe_SWS.wav","","null","","","","","","","","","","","","","","","","","","","","","","","","","","","","","","","",""
"html-button-response","151","297150","0.0-4.0-1.0-1.43","3","0","wgh6bt92f4lv216","","780","","Was the sound coming from the left or the right?","1","","","1","INDUCTION-JUDGMENT","right","1","","","","","","","","","","","","","","","","","","","","","","","","","","",""
"html-keyboard-response","152","298152","0.0-4.0-1.0-2.43","3","0","wgh6bt92f4lv216","","null","","<p style=""color:#054d00;""><b>Correct!</b></p>","","null","","","","","","","","","","","","","","","","","","","","","","","","","","","","","","","",""
"audio-keyboard-response","153","298963","0.0-4.0-1.0-0.44","3","0","wgh6bt92f4lv216","","null","","sounds/induction/right_rev/pu_SWS.wav","","null","","","","","","","","","","","","","","","","","","","","","","","","","","","","","","","",""
"html-button-response","154","299705","0.0-4.0-1.0-1.44","3","0","wgh6bt92f4lv216","","739.8000000007451","","Was the sound coming from the left or the right?","1","","","1","INDUCTION-JUDGMENT","right","1","","","","","","","","","","","","","","","","","","","","","","","","","","",""
"html-keyboard-response","155","300710","0.0-4.0-1.0-2.44","3","0","wgh6bt92f4lv216","","null","","<p style=""color:#054d00;""><b>Correct!</b></p>","","null","","","","","","","","","","","","","","","","","","","","","","","","","","","","","","","",""
"audio-keyboard-response","156","301517","0.0-4.0-1.0-0.45","3","0","wgh6bt92f4lv216","","null","","sounds/induction/right_rev/su_SWS.wav","","null","","","","","","","","","","","","","","","","","","","","","","","","","","","","","","","",""
"html-button-response","157","302340","0.0-4.0-1.0-1.45","3","0","wgh6bt92f4lv216","","820.8999999985099","","Was the sound coming from the left or the right?","1","","","1","INDUCTION-JUDGMENT","right","1","","","","","","","","","","","","","","","","","","","","","","","","","","",""
"html-keyboard-response","158","303342","0.0-4.0-1.0-2.45","3","0","wgh6bt92f4lv216","","null","","<p style=""color:#054d00;""><b>Correct!</b></p>","","null","","","","","","","","","","","","","","","","","","","","","","","","","","","","","","","",""
"audio-keyboard-response","159","304147","0.0-4.0-1.0-0.46","3","0","wgh6bt92f4lv216","","null","","sounds/induction/left_rev/ko_SWS.wav","","null","","","","","","","","","","","","","","","","","","","","","","","","","","","","","","","",""
"html-button-response","160","304854","0.0-4.0-1.0-1.46","3","0","wgh6bt92f4lv216","","705.9000000003725","","Was the sound coming from the left or the right?","0","","","1","INDUCTION-JUDGMENT","left","0","","","","","","","","","","","","","","","","","","","","","","","","","","",""
"html-keyboard-response","161","305860","0.0-4.0-1.0-2.46","3","0","wgh6bt92f4lv216","","null","","<p style=""color:#054d00;""><b>Correct!</b></p>","","null","","","","","","","","","","","","","","","","","","","","","","","","","","","","","","","",""
"audio-keyboard-response","162","306666","0.0-4.0-1.0-0.47","3","0","wgh6bt92f4lv216","","null","","sounds/induction/left_rev/ni_SWS.wav","","null","","","","","","","","","","","","","","","","","","","","","","","","","","","","","","","",""
"html-button-response","163","307755","0.0-4.0-1.0-1.47","3","0","wgh6bt92f4lv216","","1088","","Was the sound coming from the left or the right?","0","","","1","INDUCTION-JUDGMENT","left","0","","","","","","","","","","","","","","","","","","","","","","","","","","",""
"html-keyboard-response","164","308757","0.0-4.0-1.0-2.47","3","0","wgh6bt92f4lv216","","null","","<p style=""color:#054d00;""><b>Correct!</b></p>","","null","","","","","","","","","","","","","","","","","","","","","","","","","","","","","","","",""
"html-button-response","165","317522","0.0-5.0-0.0","3","0","wgh6bt92f4lv216","","8259.699999999255","","<p>Thank you for your answers.</p><p>You will now listen to similar sounds. The main difference is that the sounds will be longer.</p><p>Just as before, you will be asked to judge whether the sound was coming from the left or the right.</p><p>There are 10 of these longer sounds in total.","0","","","","","","","","","","","","","","","","","","","","","","","","","","","","","","","","",""
"audio-keyboard-response","166","320271","0.0-5.0-1.0-0.0","3","0","wgh6bt92f4lv216","","null","","sounds/sentences/right_rev/14_06_cfSWS.wav","","null","","","","","","","","","","","","","","","","","","","","","","","","","","","","","","","",""
"html-button-response","167","321107","0.0-5.0-1.0-1.0","3","0","wgh6bt92f4lv216","","834.3000000007451","","Was the sound coming from the left or the right?","1","","","1","INDUCTION-JUDGMENT","right","1","","","","","","","","","","","","","","","","","","","","","","","","","","",""
"html-keyboard-response","168","322112","0.0-5.0-1.0-2.0","3","0","wgh6bt92f4lv216","","null","","<p style=""color:#054d00;""><b>Correct!</b></p>","","null","","","","","","","","","","","","","","","","","","","","","","","","","","","","","","","",""
"html-button-response","169","324001","0.0-5.0-1.0-3.0","3","0","wgh6bt92f4lv216","","1385.2000000011176","","<p>Press the button below when you are ready to continue.</p>","0","","","","","","","","","","","","","","","","","","","","","","","","","","","","","","","","",""
"audio-keyboard-response","170","326891","0.0-5.0-1.0-0.1","3","0","wgh6bt92f4lv216","","null","","sounds/sentences/right_rev/14_07_cfSWS.wav","","null","","","","","","","","","","","","","","","","","","","","","","","","","","","","","","","",""
"html-button-response","171","327953","0.0-5.0-1.0-1.1","3","0","wgh6bt92f4lv216","","1060.699999999255","","Was the sound coming from the left or the right?","1","","","1","INDUCTION-JUDGMENT","right","1","","","","","","","","","","","","","","","","","","","","","","","","","","",""
"html-keyboard-response","172","328958","0.0-5.0-1.0-2.1","3","0","wgh6bt92f4lv216","","null","","<p style=""color:#054d00;""><b>Correct!</b></p>","","null","","","","","","","","","","","","","","","","","","","","","","","","","","","","","","","",""
"html-button-response","173","332743","0.0-5.0-1.0-3.1","3","0","wgh6bt92f4lv216","","3279.800000000745","","<p>Press the button below when you are ready to continue.</p>","0","","","","","","","","","","","","","","","","","","","","","","","","","","","","","","","","",""
"audio-keyboard-response","174","335561","0.0-5.0-1.0-0.2","3","0","wgh6bt92f4lv216","","null","","sounds/sentences/left_rev/14_02_cfSWS.wav","","null","","","","","","","","","","","","","","","","","","","","","","","","","","","","","","","",""
"html-button-response","175","336327","0.0-5.0-1.0-1.2","3","0","wgh6bt92f4lv216","","765.0999999996275","","Was the sound coming from the left or the right?","0","","","1","INDUCTION-JUDGMENT","left","0","","","","","","","","","","","","","","","","","","","","","","","","","","",""
"html-keyboard-response","176","337328","0.0-5.0-1.0-2.2","3","0","wgh6bt92f4lv216","","null","","<p style=""color:#054d00;""><b>Correct!</b></p>","","null","","","","","","","","","","","","","","","","","","","","","","","","","","","","","","","",""
"html-button-response","177","339644","0.0-5.0-1.0-3.2","3","0","wgh6bt92f4lv216","","1810.7000000011176","","<p>Press the button below when you are ready to continue.</p>","0","","","","","","","","","","","","","","","","","","","","","","","","","","","","","","","","",""
"audio-keyboard-response","178","342661","0.0-5.0-1.0-0.3","3","0","wgh6bt92f4lv216","","null","","sounds/sentences/right_rev/14_10_cfSWS.wav","","null","","","","","","","","","","","","","","","","","","","","","","","","","","","","","","","",""
"html-button-response","179","343399","0.0-5.0-1.0-1.3","3","0","wgh6bt92f4lv216","","736.2999999988824","","Was the sound coming from the left or the right?","1","","","1","INDUCTION-JUDGMENT","right","1","","","","","","","","","","","","","","","","","","","","","","","","","","",""
"html-keyboard-response","180","344405","0.0-5.0-1.0-2.3","3","0","wgh6bt92f4lv216","","null","","<p style=""color:#054d00;""><b>Correct!</b></p>","","null","","","","","","","","","","","","","","","","","","","","","","","","","","","","","","","",""
"html-button-response","181","345713","0.0-5.0-1.0-3.3","3","0","wgh6bt92f4lv216","","802.7000000011176","","<p>Press the button below when you are ready to continue.</p>","0","","","","","","","","","","","","","","","","","","","","","","","","","","","","","","","","",""
"audio-keyboard-response","182","348441","0.0-5.0-1.0-0.4","3","0","wgh6bt92f4lv216","","null","","sounds/sentences/right_rev/14_09_cfSWS.wav","","null","","","","","","","","","","","","","","","","","","","","","","","","","","","","","","","",""
"html-button-response","183","349720","0.0-5.0-1.0-1.4","3","0","wgh6bt92f4lv216","","1276.800000000745","","Was the sound coming from the left or the right?","1","","","1","INDUCTION-JUDGMENT","right","1","","","","","","","","","","","","","","","","","","","","","","","","","","",""
"html-keyboard-response","184","350720","0.0-5.0-1.0-2.4","3","0","wgh6bt92f4lv216","","null","","<p style=""color:#054d00;""><b>Correct!</b></p>","","null","","","","","","","","","","","","","","","","","","","","","","","","","","","","","","","",""
"html-button-response","185","352148","0.0-5.0-1.0-3.4","3","0","wgh6bt92f4lv216","","923.0999999996275","","<p>Press the button below when you are ready to continue.</p>","0","","","","","","","","","","","","","","","","","","","","","","","","","","","","","","","","",""
"audio-keyboard-response","186","354702","0.0-5.0-1.0-0.5","3","0","wgh6bt92f4lv216","","null","","sounds/sentences/left_rev/14_04_cfSWS.wav","","null","","","","","","","","","","","","","","","","","","","","","","","","","","","","","","","",""
"html-button-response","187","355328","0.0-5.0-1.0-1.5","3","0","wgh6bt92f4lv216","","624","","Was the sound coming from the left or the right?","0","","","1","INDUCTION-JUDGMENT","left","0","","","","","","","","","","","","","","","","","","","","","","","","","","",""
"html-keyboard-response","188","356330","0.0-5.0-1.0-2.5","3","0","wgh6bt92f4lv216","","null","","<p style=""color:#054d00;""><b>Correct!</b></p>","","null","","","","","","","","","","","","","","","","","","","","","","","","","","","","","","","",""
"html-button-response","189","358200","0.0-5.0-1.0-3.5","3","0","wgh6bt92f4lv216","","1368.2000000011176","","<p>Press the button below when you are ready to continue.</p>","0","","","","","","","","","","","","","","","","","","","","","","","","","","","","","","","","",""
"audio-keyboard-response","190","361316","0.0-5.0-1.0-0.6","3","0","wgh6bt92f4lv216","","null","","sounds/sentences/left_rev/14_01_cfSWS.wav","","null","","","","","","","","","","","","","","","","","","","","","","","","","","","","","","","",""
"html-button-response","191","362087","0.0-5.0-1.0-1.6","3","0","wgh6bt92f4lv216","","769.5999999996275","","Was the sound coming from the left or the right?","0","","","1","INDUCTION-JUDGMENT","left","0","","","","","","","","","","","","","","","","","","","","","","","","","","",""
"html-keyboard-response","192","363091","0.0-5.0-1.0-2.6","3","0","wgh6bt92f4lv216","","null","","<p style=""color:#054d00;""><b>Correct!</b></p>","","null","","","","","","","","","","","","","","","","","","","","","","","","","","","","","","","",""
"html-button-response","193","364306","0.0-5.0-1.0-3.6","3","0","wgh6bt92f4lv216","","713.8000000007451","","<p>Press the button below when you are ready to continue.</p>","0","","","","","","","","","","","","","","","","","","","","","","","","","","","","","","","","",""
"audio-keyboard-response","194","367061","0.0-5.0-1.0-0.7","3","0","wgh6bt92f4lv216","","null","","sounds/sentences/right_rev/14_08_cfSWS.wav","","null","","","","","","","","","","","","","","","","","","","","","","","","","","","","","","","",""
"html-button-response","195","367748","0.0-5.0-1.0-1.7","3","0","wgh6bt92f4lv216","","684.9000000003725","","Was the sound coming from the left or the right?","1","","","1","INDUCTION-JUDGMENT","right","1","","","","","","","","","","","","","","","","","","","","","","","","","","",""
"html-keyboard-response","196","368751","0.0-5.0-1.0-2.7","3","0","wgh6bt92f4lv216","","null","","<p style=""color:#054d00;""><b>Correct!</b></p>","","null","","","","","","","","","","","","","","","","","","","","","","","","","","","","","","","",""
"html-button-response","197","369960","0.0-5.0-1.0-3.7","3","0","wgh6bt92f4lv216","","703.5999999996275","","<p>Press the button below when you are ready to continue.</p>","0","","","","","","","","","","","","","","","","","","","","","","","","","","","","","","","","",""
"audio-keyboard-response","198","372546","0.0-5.0-1.0-0.8","3","0","wgh6bt92f4lv216","","null","","sounds/sentences/left_rev/14_03_cfSWS.wav","","null","","","","","","","","","","","","","","","","","","","","","","","","","","","","","","","",""
"html-button-response","199","373633","0.0-5.0-1.0-1.8","3","0","wgh6bt92f4lv216","","1085.5999999996275","","Was the sound coming from the left or the right?","0","","","1","INDUCTION-JUDGMENT","left","0","","","","","","","","","","","","","","","","","","","","","","","","","","",""
"html-keyboard-response","200","374637","0.0-5.0-1.0-2.8","3","0","wgh6bt92f4lv216","","null","","<p style=""color:#054d00;""><b>Correct!</b></p>","","null","","","","","","","","","","","","","","","","","","","","","","","","","","","","","","","",""
"html-button-response","201","401226","0.0-5.0-1.0-3.8","3","0","wgh6bt92f4lv216","","26087.099999999627","","<p>Press the button below when you are ready to continue.</p>","0","","","","","","","","","","","","","","","","","","","","","","","","","","","","","","","","",""
"audio-keyboard-response","202","404215","0.0-5.0-1.0-0.9","3","0","wgh6bt92f4lv216","","null","","sounds/sentences/left_rev/14_05_cfSWS.wav","","null","","","","","","","","","","","","","","","","","","","","","","","","","","","","","","","",""
"html-button-response","203","404994","0.0-5.0-1.0-1.9","3","0","wgh6bt92f4lv216","","777.4000000003725","","Was the sound coming from the left or the right?","0","","","1","INDUCTION-JUDGMENT","left","0","","","","","","","","","","","","","","","","","","","","","","","","","","",""
"html-keyboard-response","204","405996","0.0-5.0-1.0-2.9","3","0","wgh6bt92f4lv216","","null","","<p style=""color:#054d00;""><b>Correct!</b></p>","","null","","","","","","","","","","","","","","","","","","","","","","","","","","","","","","","",""
"html-button-response","205","408076","0.0-5.0-1.0-3.9","3","0","wgh6bt92f4lv216","","1577.300000000745","","<p>Press the button below when you are ready to continue.</p>","0","","","","","","","","","","","","","","","","","","","","","","","","","","","","","","","","",""
"html-keyboard-response","206","456563","0.0-6.0-0.0","3","0","wgh6bt92f4lv216","","47983.10000000149","","<p>In this part of the study, you will hear sounds similar to those you just heard.</p><p>Please focus on these sounds, as you may be asked questions about them later.</p><p>Occasionally, the sounds will pause for up to two seconds. When this happens, please press SPACEBAR as quickly as you can.</br>This helps ensure that you are paying attention to the sounds.</p><p>This part of the study will take about 12 minutes to complete, and you will be given the opportunity to take a couple of short breaks every few minutes.</p><p><strong>Press SPACEBAR to begin</strong></p>","","32","","","","","","","","","","","","","","","","","","","","","","","","","","","","","","","",""
"html-keyboard-response","207","457567","0.0-6.0-1.0-0.0","3","0","wgh6bt92f4lv216","","null","","<p style=""font-size: 40px;"">+</p>","","null","","","","","","","","","","","","","","","","","","","","","","","","","","","","","","","",""
"html-keyboard-response","208","642575","0.0-6.0-1.0-1.0","3","0","wgh6bt92f4lv216","","null","","","","null","","","SL-TRAIN","","","0","542.5999999996275","423.80000000074506","sounds/C/TRAIN/SEQ__12.mp3","788","","","","","","","","","","","","","","","","","","","","","",""
"html-button-response","209","646516","0.0-6.0-1.0-2.0","3","0","wgh6bt92f4lv216","","3939.5999999996275","","<p>You may take a short break if you wish.</p>","0","","","","","","","","","","","","","","","","","","","","","","","","","","","","","","","","",""
"html-keyboard-response","210","647521","0.0-6.0-1.0-3.0","3","0","wgh6bt92f4lv216","","null","","<p style=""font-size: 40px;"">+</p>","","null","","","","","","","","","","","","","","","","","","","","","","","","","","","","","","","",""
"html-keyboard-response","211","832530","0.0-6.0-1.0-4.0","3","0","wgh6bt92f4lv216","","null","","","","null","","","SL-TRAIN","","","0","404","470.30000000074506","sounds/C/TRAIN/SEQ__11.mp3","1496","","","","","","","","","","","","","","","","","","","","","",""
"html-button-response","212","836292","0.0-6.0-1.0-5.0","3","0","wgh6bt92f4lv216","","3760.5999999996275","","<p>You may take a short break if you wish.</p>","0","","","","","","","","","","","","","","","","","","","","","","","","","","","","","","","","",""
"html-keyboard-response","213","837295","0.0-6.0-1.0-6.0","3","0","wgh6bt92f4lv216","","null","","<p style=""font-size: 40px;"">+</p>","","null","","","","","","","","","","","","","","","","","","","","","","","","","","","","","","","",""
"html-keyboard-response","214","1022299","0.0-6.0-1.0-7.0","3","0","wgh6bt92f4lv216","","null","","","","null","","","SL-TRAIN","","","0","500.09999999962747","498.19999999925494","sounds/C/TRAIN/SEQ__02.mp3","2194","","","","","","","","","","","","","","","","","","","","","",""
"html-button-response","215","1051789","0.0-6.0-1.0-8.0","3","0","wgh6bt92f4lv216","","29489","","<p>You may take a short break if you wish.</p>","0","","","","","","","","","","","","","","","","","","","","","","","","","","","","","","","","",""
"html-keyboard-response","216","1052794","0.0-6.0-1.0-9.0","3","0","wgh6bt92f4lv216","","null","","<p style=""font-size: 40px;"">+</p>","","null","","","","","","","","","","","","","","","","","","","","","","","","","","","","","","","",""
"html-keyboard-response","217","1237810","0.0-6.0-1.0-10.0","3","0","wgh6bt92f4lv216","","null","","","","null","","","SL-TRAIN","","","0","418.19999999925494","470.40000000037253","sounds/C/TRAIN/SEQ__05.mp3","3015","","","","","","","","","","","","","","","","","","","","","",""
"html-button-response","218","1242669","0.0-6.0-1.0-11.0","3","0","wgh6bt92f4lv216","","4858","","<p>You may take a short break if you wish.</p>","0","","","","","","","","","","","","","","","","","","","","","","","","","","","","","","","","",""
"html-button-response","219","1250039","0.0-7.0-0.0","3","0","wgh6bt92f4lv216","","7368.39999999851","","<p>Welcome to the second part of the study. This is a <u>familiarity task</u>.</p><p>You will now hear short sounds and will be asked to rate how familiar they sound to you <b>based on what you heard in the previous part of the study</b>.</p><p>You will rate 12 sounds in total.</p>","0","","","","","","","","","","","","","","","","","","","","","","","","","","","","","","","","",""
"html-keyboard-response","220","1251040","0.0-7.0-1.0-0.0","3","0","wgh6bt92f4lv216","","null","","","","null","","","","","","","","","","","","","","","","","","","","","","","","","","","","","","","",""
"audio-keyboard-response","221","1252342","0.0-7.0-1.0-1.0","3","0","wgh6bt92f4lv216","","null","","sounds/C/FAM/W001.mp3","","null","","","","","","","","","","","","","","","","","","","","","","","","","","","","","","","",""
"html-keyboard-response","222","1256853","0.0-7.0-1.0-2.0","3","0","wgh6bt92f4lv216","","4007.7000000011176","","<p>How familiar did this sound to you?</p><p>1&nbsp;&nbsp;&nbsp;&nbsp;&nbsp;&nbsp;&nbsp;&nbsp;&nbsp;&nbsp;&nbsp;&nbsp;&nbsp;&nbsp;&nbsp;&nbsp;&nbsp;&nbsp;&nbsp;2&nbsp;&nbsp;&nbsp;&nbsp;&nbsp;&nbsp;&nbsp;&nbsp;&nbsp;&nbsp;&nbsp;&nbsp;&nbsp;&nbsp;&nbsp;&nbsp;&nbsp;&nbsp;&nbsp;3&nbsp;&nbsp;&nbsp;&nbsp;&nbsp;&nbsp;&nbsp;&nbsp;&nbsp;&nbsp;&nbsp;&nbsp;&nbsp;&nbsp;&nbsp;&nbsp;&nbsp;&nbsp;&nbsp;4</p><p style=""font-size:14px"">Not at all familiar&nbsp;&nbsp;&nbsp;&nbsp;A little familiar&nbsp;&nbsp;&nbsp;Moderately familiar&nbsp;&nbsp;&nbsp;Extremely familiar</p><p>(press the corresponding number on your keyboard)</p>","","51","","","FAM-RESPONSE","","","","","","","","sounds/C/FAM/W001.mp3","word","","","","","","","","","","","","","","","","","","","",""
"html-keyboard-response","223","1258859","0.0-7.0-1.0-0.1","3","0","wgh6bt92f4lv216","","null","","","","null","","","","","","","","","","","","","","","","","","","","","","","","","","","","","","","",""
"audio-keyboard-response","224","1259802","0.0-7.0-1.0-1.1","3","0","wgh6bt92f4lv216","","null","","sounds/C/FAM/N003.mp3","","null","","","","","","","","","","","","","","","","","","","","","","","","","","","","","","","",""
"html-keyboard-response","225","1261005","0.0-7.0-1.0-2.1","3","0","wgh6bt92f4lv216","","700.5999999996275","","<p>How familiar did this sound to you?</p><p>1&nbsp;&nbsp;&nbsp;&nbsp;&nbsp;&nbsp;&nbsp;&nbsp;&nbsp;&nbsp;&nbsp;&nbsp;&nbsp;&nbsp;&nbsp;&nbsp;&nbsp;&nbsp;&nbsp;2&nbsp;&nbsp;&nbsp;&nbsp;&nbsp;&nbsp;&nbsp;&nbsp;&nbsp;&nbsp;&nbsp;&nbsp;&nbsp;&nbsp;&nbsp;&nbsp;&nbsp;&nbsp;&nbsp;3&nbsp;&nbsp;&nbsp;&nbsp;&nbsp;&nbsp;&nbsp;&nbsp;&nbsp;&nbsp;&nbsp;&nbsp;&nbsp;&nbsp;&nbsp;&nbsp;&nbsp;&nbsp;&nbsp;4</p><p style=""font-size:14px"">Not at all familiar&nbsp;&nbsp;&nbsp;&nbsp;A little familiar&nbsp;&nbsp;&nbsp;Moderately familiar&nbsp;&nbsp;&nbsp;Extremely familiar</p><p>(press the corresponding number on your keyboard)</p>","","50","","","FAM-RESPONSE","","","","","","","","sounds/C/FAM/N003.mp3","nonword","","","","","","","","","","","","","","","","","","","",""
"html-keyboard-response","226","1263015","0.0-7.0-1.0-0.2","3","0","wgh6bt92f4lv216","","null","","","","null","","","","","","","","","","","","","","","","","","","","","","","","","","","","","","","",""
"audio-keyboard-response","227","1263955","0.0-7.0-1.0-1.2","3","0","wgh6bt92f4lv216","","null","","sounds/C/FAM/N002.mp3","","null","","","","","","","","","","","","","","","","","","","","","","","","","","","","","","","",""
"html-keyboard-response","228","1264587","0.0-7.0-1.0-2.2","3","0","wgh6bt92f4lv216","","127.40000000037253","","<p>How familiar did this sound to you?</p><p>1&nbsp;&nbsp;&nbsp;&nbsp;&nbsp;&nbsp;&nbsp;&nbsp;&nbsp;&nbsp;&nbsp;&nbsp;&nbsp;&nbsp;&nbsp;&nbsp;&nbsp;&nbsp;&nbsp;2&nbsp;&nbsp;&nbsp;&nbsp;&nbsp;&nbsp;&nbsp;&nbsp;&nbsp;&nbsp;&nbsp;&nbsp;&nbsp;&nbsp;&nbsp;&nbsp;&nbsp;&nbsp;&nbsp;3&nbsp;&nbsp;&nbsp;&nbsp;&nbsp;&nbsp;&nbsp;&nbsp;&nbsp;&nbsp;&nbsp;&nbsp;&nbsp;&nbsp;&nbsp;&nbsp;&nbsp;&nbsp;&nbsp;4</p><p style=""font-size:14px"">Not at all familiar&nbsp;&nbsp;&nbsp;&nbsp;A little familiar&nbsp;&nbsp;&nbsp;Moderately familiar&nbsp;&nbsp;&nbsp;Extremely familiar</p><p>(press the corresponding number on your keyboard)</p>","","52","","","FAM-RESPONSE","","","","","","","","sounds/C/FAM/N002.mp3","nonword","","","","","","","","","","","","","","","","","","","",""
"html-keyboard-response","229","1266596","0.0-7.0-1.0-0.3","3","0","wgh6bt92f4lv216","","null","","","","null","","","","","","","","","","","","","","","","","","","","","","","","","","","","","","","",""
"audio-keyboard-response","230","1267540","0.0-7.0-1.0-1.3","3","0","wgh6bt92f4lv216","","null","","sounds/C/FAM/P001.mp3","","null","","","","","","","","","","","","","","","","","","","","","","","","","","","","","","","",""
"html-keyboard-response","231","1268379","0.0-7.0-1.0-2.3","3","0","wgh6bt92f4lv216","","335.90000000037253","","<p>How familiar did this sound to you?</p><p>1&nbsp;&nbsp;&nbsp;&nbsp;&nbsp;&nbsp;&nbsp;&nbsp;&nbsp;&nbsp;&nbsp;&nbsp;&nbsp;&nbsp;&nbsp;&nbsp;&nbsp;&nbsp;&nbsp;2&nbsp;&nbsp;&nbsp;&nbsp;&nbsp;&nbsp;&nbsp;&nbsp;&nbsp;&nbsp;&nbsp;&nbsp;&nbsp;&nbsp;&nbsp;&nbsp;&nbsp;&nbsp;&nbsp;3&nbsp;&nbsp;&nbsp;&nbsp;&nbsp;&nbsp;&nbsp;&nbsp;&nbsp;&nbsp;&nbsp;&nbsp;&nbsp;&nbsp;&nbsp;&nbsp;&nbsp;&nbsp;&nbsp;4</p><p style=""font-size:14px"">Not at all familiar&nbsp;&nbsp;&nbsp;&nbsp;A little familiar&nbsp;&nbsp;&nbsp;Moderately familiar&nbsp;&nbsp;&nbsp;Extremely familiar</p><p>(press the corresponding number on your keyboard)</p>","","50","","","FAM-RESPONSE","","","","","","","","sounds/C/FAM/P001.mp3","partword","","","","","","","","","","","","","","","","","","","",""
"html-keyboard-response","232","1270388","0.0-7.0-1.0-0.4","3","0","wgh6bt92f4lv216","","null","","","","null","","","","","","","","","","","","","","","","","","","","","","","","","","","","","","","",""
"audio-keyboard-response","233","1271322","0.0-7.0-1.0-1.4","3","0","wgh6bt92f4lv216","","null","","sounds/C/FAM/P003.mp3","","null","","","","","","","","","","","","","","","","","","","","","","","","","","","","","","","",""
"html-keyboard-response","234","1272048","0.0-7.0-1.0-2.4","3","0","wgh6bt92f4lv216","","220.40000000037253","","<p>How familiar did this sound to you?</p><p>1&nbsp;&nbsp;&nbsp;&nbsp;&nbsp;&nbsp;&nbsp;&nbsp;&nbsp;&nbsp;&nbsp;&nbsp;&nbsp;&nbsp;&nbsp;&nbsp;&nbsp;&nbsp;&nbsp;2&nbsp;&nbsp;&nbsp;&nbsp;&nbsp;&nbsp;&nbsp;&nbsp;&nbsp;&nbsp;&nbsp;&nbsp;&nbsp;&nbsp;&nbsp;&nbsp;&nbsp;&nbsp;&nbsp;3&nbsp;&nbsp;&nbsp;&nbsp;&nbsp;&nbsp;&nbsp;&nbsp;&nbsp;&nbsp;&nbsp;&nbsp;&nbsp;&nbsp;&nbsp;&nbsp;&nbsp;&nbsp;&nbsp;4</p><p style=""font-size:14px"">Not at all familiar&nbsp;&nbsp;&nbsp;&nbsp;A little familiar&nbsp;&nbsp;&nbsp;Moderately familiar&nbsp;&nbsp;&nbsp;Extremely familiar</p><p>(press the corresponding number on your keyboard)</p>","","49","","","FAM-RESPONSE","","","","","","","","sounds/C/FAM/P003.mp3","partword","","","","","","","","","","","","","","","","","","","",""
"html-keyboard-response","235","1274056","0.0-7.0-1.0-0.5","3","0","wgh6bt92f4lv216","","null","","","","null","","","","","","","","","","","","","","","","","","","","","","","","","","","","","","","",""
"audio-keyboard-response","236","1275000","0.0-7.0-1.0-1.5","3","0","wgh6bt92f4lv216","","null","","sounds/C/FAM/W002.mp3","","null","","","","","","","","","","","","","","","","","","","","","","","","","","","","","","","",""
"html-keyboard-response","237","1275724","0.0-7.0-1.0-2.5","3","0","wgh6bt92f4lv216","","221.80000000074506","","<p>How familiar did this sound to you?</p><p>1&nbsp;&nbsp;&nbsp;&nbsp;&nbsp;&nbsp;&nbsp;&nbsp;&nbsp;&nbsp;&nbsp;&nbsp;&nbsp;&nbsp;&nbsp;&nbsp;&nbsp;&nbsp;&nbsp;2&nbsp;&nbsp;&nbsp;&nbsp;&nbsp;&nbsp;&nbsp;&nbsp;&nbsp;&nbsp;&nbsp;&nbsp;&nbsp;&nbsp;&nbsp;&nbsp;&nbsp;&nbsp;&nbsp;3&nbsp;&nbsp;&nbsp;&nbsp;&nbsp;&nbsp;&nbsp;&nbsp;&nbsp;&nbsp;&nbsp;&nbsp;&nbsp;&nbsp;&nbsp;&nbsp;&nbsp;&nbsp;&nbsp;4</p><p style=""font-size:14px"">Not at all familiar&nbsp;&nbsp;&nbsp;&nbsp;A little familiar&nbsp;&nbsp;&nbsp;Moderately familiar&nbsp;&nbsp;&nbsp;Extremely familiar</p><p>(press the corresponding number on your keyboard)</p>","","50","","","FAM-RESPONSE","","","","","","","","sounds/C/FAM/W002.mp3","word","","","","","","","","","","","","","","","","","","","",""
"html-keyboard-response","238","1277731","0.0-7.0-1.0-0.6","3","0","wgh6bt92f4lv216","","null","","","","null","","","","","","","","","","","","","","","","","","","","","","","","","","","","","","","",""
"audio-keyboard-response","239","1278666","0.0-7.0-1.0-1.6","3","0","wgh6bt92f4lv216","","null","","sounds/C/FAM/W003.mp3","","null","","","","","","","","","","","","","","","","","","","","","","","","","","","","","","","",""
"html-keyboard-response","240","1280633","0.0-7.0-1.0-2.6","3","0","wgh6bt92f4lv216","","1462.1000000014901","","<p>How familiar did this sound to you?</p><p>1&nbsp;&nbsp;&nbsp;&nbsp;&nbsp;&nbsp;&nbsp;&nbsp;&nbsp;&nbsp;&nbsp;&nbsp;&nbsp;&nbsp;&nbsp;&nbsp;&nbsp;&nbsp;&nbsp;2&nbsp;&nbsp;&nbsp;&nbsp;&nbsp;&nbsp;&nbsp;&nbsp;&nbsp;&nbsp;&nbsp;&nbsp;&nbsp;&nbsp;&nbsp;&nbsp;&nbsp;&nbsp;&nbsp;3&nbsp;&nbsp;&nbsp;&nbsp;&nbsp;&nbsp;&nbsp;&nbsp;&nbsp;&nbsp;&nbsp;&nbsp;&nbsp;&nbsp;&nbsp;&nbsp;&nbsp;&nbsp;&nbsp;4</p><p style=""font-size:14px"">Not at all familiar&nbsp;&nbsp;&nbsp;&nbsp;A little familiar&nbsp;&nbsp;&nbsp;Moderately familiar&nbsp;&nbsp;&nbsp;Extremely familiar</p><p>(press the corresponding number on your keyboard)</p>","","52","","","FAM-RESPONSE","","","","","","","","sounds/C/FAM/W003.mp3","word","","","","","","","","","","","","","","","","","","","",""
"html-keyboard-response","241","1282642","0.0-7.0-1.0-0.7","3","0","wgh6bt92f4lv216","","null","","","","null","","","","","","","","","","","","","","","","","","","","","","","","","","","","","","","",""
"audio-keyboard-response","242","1283577","0.0-7.0-1.0-1.7","3","0","wgh6bt92f4lv216","","null","","sounds/C/FAM/P004.mp3","","null","","","","","","","","","","","","","","","","","","","","","","","","","","","","","","","",""
"html-keyboard-response","243","1286343","0.0-7.0-1.0-2.7","3","0","wgh6bt92f4lv216","","2264","","<p>How familiar did this sound to you?</p><p>1&nbsp;&nbsp;&nbsp;&nbsp;&nbsp;&nbsp;&nbsp;&nbsp;&nbsp;&nbsp;&nbsp;&nbsp;&nbsp;&nbsp;&nbsp;&nbsp;&nbsp;&nbsp;&nbsp;2&nbsp;&nbsp;&nbsp;&nbsp;&nbsp;&nbsp;&nbsp;&nbsp;&nbsp;&nbsp;&nbsp;&nbsp;&nbsp;&nbsp;&nbsp;&nbsp;&nbsp;&nbsp;&nbsp;3&nbsp;&nbsp;&nbsp;&nbsp;&nbsp;&nbsp;&nbsp;&nbsp;&nbsp;&nbsp;&nbsp;&nbsp;&nbsp;&nbsp;&nbsp;&nbsp;&nbsp;&nbsp;&nbsp;4</p><p style=""font-size:14px"">Not at all familiar&nbsp;&nbsp;&nbsp;&nbsp;A little familiar&nbsp;&nbsp;&nbsp;Moderately familiar&nbsp;&nbsp;&nbsp;Extremely familiar</p><p>(press the corresponding number on your keyboard)</p>","","52","","","FAM-RESPONSE","","","","","","","","sounds/C/FAM/P004.mp3","partword","","","","","","","","","","","","","","","","","","","",""
"html-keyboard-response","244","1288348","0.0-7.0-1.0-0.8","3","0","wgh6bt92f4lv216","","null","","","","null","","","","","","","","","","","","","","","","","","","","","","","","","","","","","","","",""
"audio-keyboard-response","245","1289288","0.0-7.0-1.0-1.8","3","0","wgh6bt92f4lv216","","null","","sounds/C/FAM/N004.mp3","","null","","","","","","","","","","","","","","","","","","","","","","","","","","","","","","","",""
"html-keyboard-response","246","1289794","0.0-7.0-1.0-2.8","3","0","wgh6bt92f4lv216","","4.400000000372529","","<p>How familiar did this sound to you?</p><p>1&nbsp;&nbsp;&nbsp;&nbsp;&nbsp;&nbsp;&nbsp;&nbsp;&nbsp;&nbsp;&nbsp;&nbsp;&nbsp;&nbsp;&nbsp;&nbsp;&nbsp;&nbsp;&nbsp;2&nbsp;&nbsp;&nbsp;&nbsp;&nbsp;&nbsp;&nbsp;&nbsp;&nbsp;&nbsp;&nbsp;&nbsp;&nbsp;&nbsp;&nbsp;&nbsp;&nbsp;&nbsp;&nbsp;3&nbsp;&nbsp;&nbsp;&nbsp;&nbsp;&nbsp;&nbsp;&nbsp;&nbsp;&nbsp;&nbsp;&nbsp;&nbsp;&nbsp;&nbsp;&nbsp;&nbsp;&nbsp;&nbsp;4</p><p style=""font-size:14px"">Not at all familiar&nbsp;&nbsp;&nbsp;&nbsp;A little familiar&nbsp;&nbsp;&nbsp;Moderately familiar&nbsp;&nbsp;&nbsp;Extremely familiar</p><p>(press the corresponding number on your keyboard)</p>","","51","","","FAM-RESPONSE","","","","","","","","sounds/C/FAM/N004.mp3","nonword","","","","","","","","","","","","","","","","","","","",""
"html-keyboard-response","247","1291799","0.0-7.0-1.0-0.9","3","0","wgh6bt92f4lv216","","null","","","","null","","","","","","","","","","","","","","","","","","","","","","","","","","","","","","","",""
"audio-keyboard-response","248","1292740","0.0-7.0-1.0-1.9","3","0","wgh6bt92f4lv216","","null","","sounds/C/FAM/P002.mp3","","null","","","","","","","","","","","","","","","","","","","","","","","","","","","","","","","",""
"html-keyboard-response","249","1293799","0.0-7.0-1.0-2.9","3","0","wgh6bt92f4lv216","","556.2000000011176","","<p>How familiar did this sound to you?</p><p>1&nbsp;&nbsp;&nbsp;&nbsp;&nbsp;&nbsp;&nbsp;&nbsp;&nbsp;&nbsp;&nbsp;&nbsp;&nbsp;&nbsp;&nbsp;&nbsp;&nbsp;&nbsp;&nbsp;2&nbsp;&nbsp;&nbsp;&nbsp;&nbsp;&nbsp;&nbsp;&nbsp;&nbsp;&nbsp;&nbsp;&nbsp;&nbsp;&nbsp;&nbsp;&nbsp;&nbsp;&nbsp;&nbsp;3&nbsp;&nbsp;&nbsp;&nbsp;&nbsp;&nbsp;&nbsp;&nbsp;&nbsp;&nbsp;&nbsp;&nbsp;&nbsp;&nbsp;&nbsp;&nbsp;&nbsp;&nbsp;&nbsp;4</p><p style=""font-size:14px"">Not at all familiar&nbsp;&nbsp;&nbsp;&nbsp;A little familiar&nbsp;&nbsp;&nbsp;Moderately familiar&nbsp;&nbsp;&nbsp;Extremely familiar</p><p>(press the corresponding number on your keyboard)</p>","","50","","","FAM-RESPONSE","","","","","","","","sounds/C/FAM/P002.mp3","partword","","","","","","","","","","","","","","","","","","","",""
"html-keyboard-response","250","1295808","0.0-7.0-1.0-0.10","3","0","wgh6bt92f4lv216","","null","","","","null","","","","","","","","","","","","","","","","","","","","","","","","","","","","","","","",""
"audio-keyboard-response","251","1296747","0.0-7.0-1.0-1.10","3","0","wgh6bt92f4lv216","","null","","sounds/C/FAM/N001.mp3","","null","","","","","","","","","","","","","","","","","","","","","","","","","","","","","","","",""
"html-keyboard-response","252","1298009","0.0-7.0-1.0-2.10","3","0","wgh6bt92f4lv216","","760.5","","<p>How familiar did this sound to you?</p><p>1&nbsp;&nbsp;&nbsp;&nbsp;&nbsp;&nbsp;&nbsp;&nbsp;&nbsp;&nbsp;&nbsp;&nbsp;&nbsp;&nbsp;&nbsp;&nbsp;&nbsp;&nbsp;&nbsp;2&nbsp;&nbsp;&nbsp;&nbsp;&nbsp;&nbsp;&nbsp;&nbsp;&nbsp;&nbsp;&nbsp;&nbsp;&nbsp;&nbsp;&nbsp;&nbsp;&nbsp;&nbsp;&nbsp;3&nbsp;&nbsp;&nbsp;&nbsp;&nbsp;&nbsp;&nbsp;&nbsp;&nbsp;&nbsp;&nbsp;&nbsp;&nbsp;&nbsp;&nbsp;&nbsp;&nbsp;&nbsp;&nbsp;4</p><p style=""font-size:14px"">Not at all familiar&nbsp;&nbsp;&nbsp;&nbsp;A little familiar&nbsp;&nbsp;&nbsp;Moderately familiar&nbsp;&nbsp;&nbsp;Extremely familiar</p><p>(press the corresponding number on your keyboard)</p>","","50","","","FAM-RESPONSE","","","","","","","","sounds/C/FAM/N001.mp3","nonword","","","","","","","","","","","","","","","","","","","",""
"html-keyboard-response","253","1300016","0.0-7.0-1.0-0.11","3","0","wgh6bt92f4lv216","","null","","","","null","","","","","","","","","","","","","","","","","","","","","","","","","","","","","","","",""
"audio-keyboard-response","254","1300952","0.0-7.0-1.0-1.11","3","0","wgh6bt92f4lv216","","null","","sounds/C/FAM/W004.mp3","","null","","","","","","","","","","","","","","","","","","","","","","","","","","","","","","","",""
"html-keyboard-response","255","1301545","0.0-7.0-1.0-2.11","3","0","wgh6bt92f4lv216","","88.5","","<p>How familiar did this sound to you?</p><p>1&nbsp;&nbsp;&nbsp;&nbsp;&nbsp;&nbsp;&nbsp;&nbsp;&nbsp;&nbsp;&nbsp;&nbsp;&nbsp;&nbsp;&nbsp;&nbsp;&nbsp;&nbsp;&nbsp;2&nbsp;&nbsp;&nbsp;&nbsp;&nbsp;&nbsp;&nbsp;&nbsp;&nbsp;&nbsp;&nbsp;&nbsp;&nbsp;&nbsp;&nbsp;&nbsp;&nbsp;&nbsp;&nbsp;3&nbsp;&nbsp;&nbsp;&nbsp;&nbsp;&nbsp;&nbsp;&nbsp;&nbsp;&nbsp;&nbsp;&nbsp;&nbsp;&nbsp;&nbsp;&nbsp;&nbsp;&nbsp;&nbsp;4</p><p style=""font-size:14px"">Not at all familiar&nbsp;&nbsp;&nbsp;&nbsp;A little familiar&nbsp;&nbsp;&nbsp;Moderately familiar&nbsp;&nbsp;&nbsp;Extremely familiar</p><p>(press the corresponding number on your keyboard)</p>","","50","","","FAM-RESPONSE","","","","","","","","sounds/C/FAM/W004.mp3","word","","","","","","","","","","","","","","","","","","","",""
"html-button-response","256","1313848","0.0-8.0-0.0","3","0","wgh6bt92f4lv216","","11299.400000000373","","<p>You will now listen to longer sound sequences.</p><p>Each sound sequence will last about 16 seconds.</p><p>On each trial, you will be given a <u>TARGET SOUND</u>. Your task is to listen very carefully for this sound.</p><p>Every time you hear the <u>TARGET SOUND</u>, you will press the <b>SPACEBAR</b> as quickly and accurately as you can.</p>","0","","","","","","","","","","","","","","","","","","","","","","","","","","","","","","","","",""
"html-button-response","257","1325173","0.0-8.0-1.0","3","0","wgh6bt92f4lv216","","11071.199999999255","","<p>It is very important that you make your responses as quickly and accurately as possible.</p><p>To help you make your responses, you will be able to listen to the <u>TARGET SOUND</u> at the beginning of each trial.</p><p>There will be 36 total trials.</p><p><b>Note: This is meant to be a difficult task. We simply want you to try your best.</p>","0","","","","","","","","","","","","","","","","","","","","","","","","","","","","","","","","",""
"html-button-response","258","1326844","0.0-8.0-2.0-0.0","3","0","wgh6bt92f4lv216","","1417.7000000011176","","<p>Trial 1 of 36</p>","0","","","","","","","","","","","","","","GE","sounds/syllables/ge_SWS.wav","1500,6000,7800,10500","3","","","","","","","","","","","","","","","",""
"html-keyboard-response","259","1330035","0.0-8.0-2.0-1.0","3","0","wgh6bt92f4lv216","","3190.10000000149","","","","80","","","","","","","","","","","","","GE","","1500,6000,7800,10500","3","","","","","","","","","","","","","","","",""
"audio-keyboard-response","260","1330333","0.0-8.0-2.0-2.0-0.0","3","0","wgh6bt92f4lv216","","null","","sounds/syllables/ge_SWS.wav","","null","","","","","","","","","","","","","","","","","","","","","","","","","","","","","","","",""
"html-keyboard-response","261","1331777","0.0-8.0-2.0-2.0-1.0","3","0","wgh6bt92f4lv216","","1443.5","","<p>To replay the <u>TARGET SOUND</u>, press P.</p> When you are ready to begin, press SPACEBAR.","","80","","","","","","","","","","","","","","","","","","","","","","","","","","","","","","","",""
"audio-keyboard-response","262","1332586","0.0-8.0-2.0-2.1-0.1","3","0","wgh6bt92f4lv216","","null","","sounds/syllables/ge_SWS.wav","","null","","","","","","","","","","","","","","","","","","","","","","","","","","","","","","","",""
"html-keyboard-response","263","1333136","0.0-8.0-2.0-2.1-1.1","3","0","wgh6bt92f4lv216","","549.8999999985099","","<p>To replay the <u>TARGET SOUND</u>, press P.</p> When you are ready to begin, press SPACEBAR.","","80","","","","","","","","","","","","","","","","","","","","","","","","","","","","","","","",""
"audio-keyboard-response","264","1333935","0.0-8.0-2.0-2.2-0.2","3","0","wgh6bt92f4lv216","","null","","sounds/syllables/ge_SWS.wav","","null","","","","","","","","","","","","","","","","","","","","","","","","","","","","","","","",""
"html-keyboard-response","265","1334646","0.0-8.0-2.0-2.2-1.2","3","0","wgh6bt92f4lv216","","709.8999999985099","","<p>To replay the <u>TARGET SOUND</u>, press P.</p> When you are ready to begin, press SPACEBAR.","","32","","","","","","","","","","","","","","","","","","","","","","","","","","","","","","","",""
"audio-keyboard-response","266","1349590","0.0-8.0-2.0-3.0","3","0","wgh6bt92f4lv216","","2421","","sounds/C/TD/GE_06_TD.mp3","","32","","","TD_SUMMARY","","","","","","","","","","GE","","1500,6000,7800,10500","3","1500","6000","7800","10500","918.4000000003725","954.9000000003725","817.2000000011176","671.2000000011176","2418.4000000003725_3037.2000000011176_4156.5_4893.0999999996275_6093.5999999996275_6954.9000000003725_8060.200000001118_8617.200000001118_9211.800000000745_9764.700000001118_10273.099999999627_10736.900000000373_11171.200000001118_12937_13806.700000001118","3","","","","","",""
"html-button-response","267","1350911","0.0-8.0-2.0-0.1","3","0","wgh6bt92f4lv216","","1317.5","","<p>Trial 2 of 36</p>","0","","","","","","","","","","","","","","RE","sounds/syllables/re_SWS.wav","3000,4800,10200,12900","2","","","","","","","","","","","","","","","",""
"html-keyboard-response","268","1353110","0.0-8.0-2.0-1.1","3","0","wgh6bt92f4lv216","","2198.199999999255","","","","80","","","","","","","","","","","","","RE","","3000,4800,10200,12900","2","","","","","","","","","","","","","","","",""
"audio-keyboard-response","269","1353407","0.0-8.0-2.0-2.3-0.3","3","0","wgh6bt92f4lv216","","null","","sounds/syllables/re_SWS.wav","","null","","","","","","","","","","","","","","","","","","","","","","","","","","","","","","","",""
"html-keyboard-response","270","1354150","0.0-8.0-2.0-2.3-1.3","3","0","wgh6bt92f4lv216","","742.9000000003725","","<p>To replay the <u>TARGET SOUND</u>, press P.</p> When you are ready to begin, press SPACEBAR.","","80","","","","","","","","","","","","","","","","","","","","","","","","","","","","","","","",""
"audio-keyboard-response","271","1354953","0.0-8.0-2.0-2.4-0.4","3","0","wgh6bt92f4lv216","","null","","sounds/syllables/re_SWS.wav","","null","","","","","","","","","","","","","","","","","","","","","","","","","","","","","","","",""
"html-keyboard-response","272","1355772","0.0-8.0-2.0-2.4-1.4","3","0","wgh6bt92f4lv216","","818.2999999988824","","<p>To replay the <u>TARGET SOUND</u>, press P.</p> When you are ready to begin, press SPACEBAR.","","32","","","","","","","","","","","","","","","","","","","","","","","","","","","","","","","",""
"audio-keyboard-response","273","1370718","0.0-8.0-2.0-3.1","3","0","wgh6bt92f4lv216","","778","","sounds/C/TD/RE_09_TD.mp3","","32","","","TD_SUMMARY","","","","","","","","","","RE","","3000,4800,10200,12900","2","3000","4800","10200","12900","655.3000000007451","1088.800000000745","1059.1000000014901","869.6000000014901","_______________773_1540.7000000011176_2137.9000000003725_2960.9000000003725_3655.300000000745_4212.800000000745_5065.5_5888.800000000745_6415.9000000003725_6977.5_7344.200000001118_7806.60000000149_8263.800000000745_8659.5_9035.60000000149_9461.900000000373_9938.200000001118_10356.10000000149_10803.700000001118_11259.10000000149_11666.400000000373_12278.300000000745_12733.400000000373_13256.700000001118_13769.60000000149_14225.900000000373","2","","","","","",""
"html-button-response","274","1372315","0.0-8.0-2.0-0.2","3","0","wgh6bt92f4lv216","","1594","","<p>Trial 3 of 36</p>","0","","","","","","","","","","","","","","ME","sounds/syllables/me_SWS.wav","900,4500,6300,9000","1","","","","","","","","","","","","","","","",""
"html-keyboard-response","275","1374397","0.0-8.0-2.0-1.2","3","0","wgh6bt92f4lv216","","2081.5999999996275","","","","80","","","","","","","","","","","","","ME","","900,4500,6300,9000","1","","","","","","","","","","","","","","","",""
"audio-keyboard-response","276","1374697","0.0-8.0-2.0-2.5-0.5","3","0","wgh6bt92f4lv216","","null","","sounds/syllables/me_SWS.wav","","null","","","","","","","","","","","","","","","","","","","","","","","","","","","","","","","",""
"html-keyboard-response","277","1375476","0.0-8.0-2.0-2.5-1.5","3","0","wgh6bt92f4lv216","","777.8000000007451","","<p>To replay the <u>TARGET SOUND</u>, press P.</p> When you are ready to begin, press SPACEBAR.","","80","","","","","","","","","","","","","","","","","","","","","","","","","","","","","","","",""
"audio-keyboard-response","278","1376278","0.0-8.0-2.0-2.6-0.6","3","0","wgh6bt92f4lv216","","null","","sounds/syllables/me_SWS.wav","","null","","","","","","","","","","","","","","","","","","","","","","","","","","","","","","","",""
"html-keyboard-response","279","1383306","0.0-8.0-2.0-2.6-1.6","3","0","wgh6bt92f4lv216","","7027","","<p>To replay the <u>TARGET SOUND</u>, press P.</p> When you are ready to begin, press SPACEBAR.","","32","","","","","","","","","","","","","","","","","","","","","","","","","","","","","","","",""
"audio-keyboard-response","280","1398258","0.0-8.0-2.0-3.2","3","0","wgh6bt92f4lv216","","911","","sounds/C/TD/ME_05_TD.mp3","","32","","","TD_SUMMARY","","","","","","","","","","ME","","900,4500,6300,9000","1","900","4500","6300","9000","1062.9000000003725","1195.800000000745","984.8000000007451","1180","_________________________________________906.2000000011176_1175_1436_1723.9000000003725_1962.9000000003725_2173.9000000003725_2381.10000000149_2585.60000000149_3161.300000000745_3377.10000000149_3607_3817_4044.800000000745_4286.800000000745_4509_4743_5013_5254.800000000745_5482.10000000149_5695.800000000745_5932.9000000003725_6179.200000001118_6418.9000000003725_6628.9000000003725_6840.9000000003725_7059_7284.800000000745_7504.60000000149_7753.9000000003725_8050_8288.10000000149_8526_8737.700000001118_8980.800000000745_9210.900000000373_9449.800000000745_9671.900000000373_9927.700000001118_10180_10388.200000001118_10624.700000001118_10858.700000001118_11083.800000000745_11339.200000001118_11582.700000001118_11809.700000001118_12032.5_12272.800000000745_12506.900000000373_12759.5_12982.60000000149_13190.60000000149_13417.900000000373_13695.800000000745_13938.5_14189.60000000149_14429.60000000149","2","","","","","",""
"html-button-response","281","1651777","0.0-8.0-2.0-0.3","3","0","wgh6bt92f4lv216","","253513.6000000015","","<p>Trial 4 of 36</p>","0","","","","","","","","","","","","","","RE","sounds/syllables/re_SWS.wav","1200,3900,5700,10200","2","","","","","","","","","","","","","","","",""
"html-keyboard-response","282","1653410","0.0-8.0-2.0-1.3","3","0","wgh6bt92f4lv216","","1631.699999999255","","","","80","","","","","","","","","","","","","RE","","1200,3900,5700,10200","2","","","","","","","","","","","","","","","",""
"audio-keyboard-response","283","1654256","0.0-8.0-2.0-2.7-0.7","3","0","wgh6bt92f4lv216","","null","","sounds/syllables/re_SWS.wav","","null","","","","","","","","","","","","","","","","","","","","","","","","","","","","","","","",""
"html-keyboard-response","284","1655626","0.0-8.0-2.0-2.7-1.7","3","0","wgh6bt92f4lv216","","1369.0999999996275","","<p>To replay the <u>TARGET SOUND</u>, press P.</p> When you are ready to begin, press SPACEBAR.","","32","","","","","","","","","","","","","","","","","","","","","","","","","","","","","","","",""
"audio-keyboard-response","285","1670577","0.0-8.0-2.0-3.3","3","0","wgh6bt92f4lv216","","923","","sounds/C/TD/RE_07_TD.mp3","","32","","","TD_SUMMARY","","","","","","","","","","RE","","1200,3900,5700,10200","2","1200","3900","5700","10200","1181.2000000011176","667.9000000003725","1116.7000000011176","1057.5","__________________________________________________________________________________________________925.4000000003725_1101.1000000014901_1347.9000000003725_1557.9000000003725_1780_2381.2000000011176_3031.7000000011176_3900.10000000149_4567.9000000003725_5147.800000000745_5699.60000000149_6160.60000000149_6816.700000001118_7370_7961.700000001118_8519.800000000745_9028.700000001118_9543.700000001118_9947_10404.5_10883.5_11257.5_11667.700000001118_12089.300000000745_12414.700000001118_12797.700000001118_13233.5_13587.400000000373_13964.700000001118_14352.200000001118","1","","","","","",""
"html-button-response","286","1671480","0.0-8.0-2.0-0.4","3","0","wgh6bt92f4lv216","","900.3000000007451","","<p>Trial 5 of 36</p>","0","","","","","","","","","","","","","","NI","sounds/syllables/ni_SWS.wav","3600,5400,8100,11700","1","","","","","","","","","","","","","","","",""
"html-keyboard-response","287","1672759","0.0-8.0-2.0-1.4","3","0","wgh6bt92f4lv216","","1277.7000000011176","","","","80","","","","","","","","","","","","","NI","","3600,5400,8100,11700","1","","","","","","","","","","","","","","","",""
"audio-keyboard-response","288","1673056","0.0-8.0-2.0-2.8-0.8","3","0","wgh6bt92f4lv216","","null","","sounds/syllables/ni_SWS.wav","","null","","","","","","","","","","","","","","","","","","","","","","","","","","","","","","","",""
"html-keyboard-response","289","1674415","0.0-8.0-2.0-2.8-1.8","3","0","wgh6bt92f4lv216","","1358.300000000745","","<p>To replay the <u>TARGET SOUND</u>, press P.</p> When you are ready to begin, press SPACEBAR.","","80","","","","","","","","","","","","","","","","","","","","","","","","","","","","","","","",""
"audio-keyboard-response","290","1675216","0.0-8.0-2.0-2.9-0.9","3","0","wgh6bt92f4lv216","","null","","sounds/syllables/ni_SWS.wav","","null","","","","","","","","","","","","","","","","","","","","","","","","","","","","","","","",""
"html-keyboard-response","291","1675867","0.0-8.0-2.0-2.9-1.9","3","0","wgh6bt92f4lv216","","648.0999999996275","","<p>To replay the <u>TARGET SOUND</u>, press P.</p> When you are ready to begin, press SPACEBAR.","","32","","","","","","","","","","","","","","","","","","","","","","","","","","","","","","","",""
"audio-keyboard-response","292","1690819","0.0-8.0-2.0-3.4","3","0","wgh6bt92f4lv216","","1956","","sounds/C/TD/NI_09_TD.mp3","","32","","","TD_SUMMARY","","","","","","","","","","NI","","3600,5400,8100,11700","1","3600","5400","8100","11700","828.2999999988824","917.4000000003725","1176.7999999988824","937.7999999988824","________________________________________________________________________________________________________________________________1961.5_2724.4000000003725_3328.199999999255_3943_4428.299999998882_5285.199999999255_5914.199999999255_6317.4000000003725_6804.5999999996275_7198.0999999996275_7748_8325.299999998882_8842_9276.799999998882_9701.799999998882_10016_10397.799999998882_10835.799999998882_11161.900000000373_11719.699999999255_12063_12345_12637.799999998882_12933.900000000373_13221.900000000373_13503.400000000373_13793.900000000373_14077.900000000373_14359","2","","","","","",""
"html-button-response","293","1691762","0.0-8.0-2.0-0.5","3","0","wgh6bt92f4lv216","","940.5999999996275","","<p>Trial 6 of 36</p>","0","","","","","","","","","","","","","","TI","sounds/syllables/ti_SWS.wav","1500,3300,10500,13200","3","","","","","","","","","","","","","","","",""
"html-keyboard-response","294","1695944","0.0-8.0-2.0-1.5","3","0","wgh6bt92f4lv216","","4180.800000000745","","","","80","","","","","","","","","","","","","TI","","1500,3300,10500,13200","3","","","","","","","","","","","","","","","",""
"audio-keyboard-response","295","1696245","0.0-8.0-2.0-2.10-0.10","3","0","wgh6bt92f4lv216","","null","","sounds/syllables/ti_SWS.wav","","null","","","","","","","","","","","","","","","","","","","","","","","","","","","","","","","",""
"html-keyboard-response","296","1696494","0.0-8.0-2.0-2.10-1.10","3","0","wgh6bt92f4lv216","","248.19999999925494","","<p>To replay the <u>TARGET SOUND</u>, press P.</p> When you are ready to begin, press SPACEBAR.","","32","","","","","","","","","","","","","","","","","","","","","","","","","","","","","","","",""
"audio-keyboard-response","297","1711449","0.0-8.0-2.0-3.5","3","0","wgh6bt92f4lv216","","702","","sounds/C/TD/TI_01_TD.mp3","","32","","","TD_SUMMARY","","","","","","","","","","TI","","1500,3300,10500,13200","3","1500","3300","10500","13200","1045.0999999996275","1164.9000000003725","1096.699999999255","949.6999999992549","_____________________________________________________________________________________________________________________________________________________________708.3000000007451_1064.800000000745_1436.0999999996275_1720_2031_2287.0999999996275_2545.0999999996275_2781_3013.199999999255_3295.0999999996275_3568.9000000003725_3954_4205.199999999255_4464.9000000003725_4753.199999999255_5037.300000000745_5326.199999999255_5649.0999999996275_5929.800000000745_6232_6605.300000000745_6866.0999999996275_7149.0999999996275_7446.699999999255_7762_8040.5999999996275_8348.699999999255_8651.699999999255_8942.300000000745_9226.699999999255_9506.599999999627_9741.800000000745_9995.699999999255_10240.800000000745_10507.699999999255_10784.800000000745_11087.800000000745_11346.5_11596.699999999255_11882.800000000745_12191.699999999255_12489.699999999255_12803.400000000373_13079.800000000745_13352.5_13603.900000000373_13865.800000000745_14149.699999999255_14400.599999999627","1","","","","","",""
"html-button-response","298","1712413","0.0-8.0-2.0-0.6","3","0","wgh6bt92f4lv216","","961.6000000014901","","<p>Trial 7 of 36</p>","0","","","","","","","","","","","","","","FU","sounds/syllables/fu_SWS.wav","2400,6000,7800,10500","3","","","","","","","","","","","","","","","",""
"html-keyboard-response","299","1714181","0.0-8.0-2.0-1.6","3","0","wgh6bt92f4lv216","","1767.800000000745","","","","80","","","","","","","","","","","","","FU","","2400,6000,7800,10500","3","","","","","","","","","","","","","","","",""
"audio-keyboard-response","300","1714478","0.0-8.0-2.0-2.11-0.11","3","0","wgh6bt92f4lv216","","null","","sounds/syllables/fu_SWS.wav","","null","","","","","","","","","","","","","","","","","","","","","","","","","","","","","","","",""
"html-keyboard-response","301","1715245","0.0-8.0-2.0-2.11-1.11","3","0","wgh6bt92f4lv216","","767.1999999992549","","<p>To replay the <u>TARGET SOUND</u>, press P.</p> When you are ready to begin, press SPACEBAR.","","32","","","","","","","","","","","","","","","","","","","","","","","","","","","","","","","",""
"audio-keyboard-response","302","1730197","0.0-8.0-2.0-3.6","3","0","wgh6bt92f4lv216","","540","","sounds/C/TD/FU_08_TD.mp3","","32","","","TD_SUMMARY","","","","","","","","","","FU","","2400,6000,7800,10500","3","2400","6000","7800","10500","1118.5999999996275","1040","1129.0999999996275","1103.0999999996275","______________________________________________________________________________________________________________________________________________________________________________________________________________535.0999999996275_950.3000000007451_1468.0999999996275_1999.4000000003725_2474.800000000745_2921.2000000011176_3240.300000000745_3518.5999999996275_4528.5_4937.200000001118_5341.300000000745_5724.4000000003725_6103.0999999996275_6475.300000000745_6765.300000000745_7040_7393.0999999996275_7658_7955.200000001118_8405.599999999627_8658.300000000745_8929.099999999627_9263_9485_9701.099999999627_9908_10143.200000001118_10404.200000001118_10847.200000001118_11404.700000001118_11603.099999999627_11897.900000000373_12212.099999999627_12464.099999999627_12685.900000000373_12938.700000001118_13216.200000001118_13496.900000000373_13731_13961.800000000745_14185.900000000373_14407.900000000373","1","","","","","",""
"html-button-response","303","1747395","0.0-8.0-2.0-0.7","3","0","wgh6bt92f4lv216","","17196.39999999851","","<p>Trial 8 of 36</p>","0","","","","","","","","","","","","","","TA","sounds/syllables/ta_SWS.wav","5700,8400,10200,12000","2","","","","","","","","","","","","","","","",""
"html-keyboard-response","304","1748449","0.0-8.0-2.0-1.7","3","0","wgh6bt92f4lv216","","1052.7000000011176","","","","80","","","","","","","","","","","","","TA","","5700,8400,10200,12000","2","","","","","","","","","","","","","","","",""
"audio-keyboard-response","305","1748747","0.0-8.0-2.0-2.12-0.12","3","0","wgh6bt92f4lv216","","null","","sounds/syllables/ta_SWS.wav","","null","","","","","","","","","","","","","","","","","","","","","","","","","","","","","","","",""
"html-keyboard-response","306","1750139","0.0-8.0-2.0-2.12-1.12","3","0","wgh6bt92f4lv216","","1391.300000000745","","<p>To replay the <u>TARGET SOUND</u>, press P.</p> When you are ready to begin, press SPACEBAR.","","32","","","","","","","","","","","","","","","","","","","","","","","","","","","","","","","",""
"audio-keyboard-response","307","1765086","0.0-8.0-2.0-3.7","3","0","wgh6bt92f4lv216","","610","","sounds/C/TD/TA_03_TD.mp3","","32","","","TD_SUMMARY","","","","","","","","","","TA","","5700,8400,10200,12000","2","5700","8400","10200","12000","962.3000000007451","1018.3000000007451","1063.6000000014901","1080.300000000745","________________________________________________________________________________________________________________________________________________________________________________________________________________________________________________________608.9000000003725_959.5_1333.7000000011176_1624.5_1968.7000000011176_2333.300000000745_2636.2000000011176_2919.5_3170.4000000003725_3424.4000000003725_3698.300000000745_4000.4000000003725_4285.5_4691.4000000003725_4979.5_5235.5_5533.4000000003725_5741.5_5986.4000000003725_6216.5_6433.10000000149_6662.300000000745_6923.700000001118_7176.10000000149_7418.4000000003725_7647.5_7861.300000000745_8066.4000000003725_8275.300000000745_8513.60000000149_8763.300000000745_8965.5_9193.10000000149_9418.300000000745_9648_9857.200000001118_10074.800000000745_10320.10000000149_10550.10000000149_10788.200000001118_11028.300000000745_11263.60000000149_11477.300000000745_11697_11908.300000000745_12152.400000000373_12390.300000000745_12633.400000000373_12854.60000000149_13080.300000000745_13335.300000000745_13563.300000000745_13796.400000000373_14033.200000001118_14256.5","1","","","","","",""
"html-button-response","308","1766837","0.0-8.0-2.0-0.8","3","0","wgh6bt92f4lv216","","1749.199999999255","","<p>Trial 9 of 36</p>","0","","","","","","","","","","","","","","TA","sounds/syllables/ta_SWS.wav","2100,3900,10200,12000","2","","","","","","","","","","","","","","","",""
"html-keyboard-response","309","1768029","0.0-8.0-2.0-1.8","3","0","wgh6bt92f4lv216","","1190.6000000014901","","","","80","","","","","","","","","","","","","TA","","2100,3900,10200,12000","2","","","","","","","","","","","","","","","",""
"audio-keyboard-response","310","1768329","0.0-8.0-2.0-2.13-0.13","3","0","wgh6bt92f4lv216","","null","","sounds/syllables/ta_SWS.wav","","null","","","","","","","","","","","","","","","","","","","","","","","","","","","","","","","",""
"html-keyboard-response","311","1771574","0.0-8.0-2.0-2.13-1.13","3","0","wgh6bt92f4lv216","","3245","","<p>To replay the <u>TARGET SOUND</u>, press P.</p> When you are ready to begin, press SPACEBAR.","","32","","","","","","","","","","","","","","","","","","","","","","","","","","","","","","","",""
"audio-keyboard-response","312","1786526","0.0-8.0-2.0-3.8","3","0","wgh6bt92f4lv216","","528","","sounds/C/TD/TA_01_TD.mp3","","32","","","TD_SUMMARY","","","","","","","","","","TA","","2100,3900,10200,12000","2","2100","3900","10200","12000","867.4000000003725","1185.4000000003725","1036","1090.2000000011176","_______________________________________________________________________________________________________________________________________________________________________________________________________________________________________________________________________________________________________________528.5_756.3000000007451_981.5_1237.7000000011176_1466.7000000011176_1672.5999999996275_1942.7000000011176_2126.2000000011176_2441.5_2700.4000000003725_2967.4000000003725_3428.2000000011176_3675.2000000011176_4111.4000000003725_4356.300000000745_4634.5999999996275_4887.0999999996275_5085.4000000003725_5293.5_5484.300000000745_5674.5_5933.5_6076.4000000003725_6315.200000001118_6570.5999999996275_6827.9000000003725_7071.200000001118_7293.200000001118_7517_7775.5999999996275_8081.9000000003725_8529.099999999627_8993.599999999627_9414.099999999627_9710.900000000373_9918.300000000745_10184.599999999627_10453.200000001118_10715.099999999627_10966.099999999627_11236_11470.400000000373_11729.300000000745_11985.099999999627_12252.300000000745_12540.400000000373_12824.200000001118_13090.200000001118_13427.099999999627_13681.300000000745_13945.599999999627_14165_14402","1","","","","","",""
"html-button-response","313","1789309","0.0-8.0-2.0-0.9","3","0","wgh6bt92f4lv216","","2779.7999999988824","","<p>Trial 10 of 36</p>","0","","","","","","","","","","","","","","NI","sounds/syllables/ni_SWS.wav","900,2700,8100,12600","1","","","","","","","","","","","","","","","",""
"html-keyboard-response","314","1791221","0.0-8.0-2.0-1.9","3","0","wgh6bt92f4lv216","","1911.5999999996275","","","","80","","","","","","","","","","","","","NI","","900,2700,8100,12600","1","","","","","","","","","","","","","","","",""
"audio-keyboard-response","315","1791519","0.0-8.0-2.0-2.14-0.14","3","0","wgh6bt92f4lv216","","null","","sounds/syllables/ni_SWS.wav","","null","","","","","","","","","","","","","","","","","","","","","","","","","","","","","","","",""
"html-keyboard-response","316","1792514","0.0-8.0-2.0-2.14-1.14","3","0","wgh6bt92f4lv216","","994.3000000007451","","<p>To replay the <u>TARGET SOUND</u>, press P.</p> When you are ready to begin, press SPACEBAR.","","32","","","","","","","","","","","","","","","","","","","","","","","","","","","","","","","",""
