"trial_type","trial_index","time_elapsed","internal_node_id","counterbalance","lang_instruct","ParticipantID","view_history","rt","url","stimulus","button_pressed","key_press","correctRESP","correct","designation","location","correctanswer","timeouts","pause_rt01","pause_rt02","train_file","numKeyPress","sound","fam_type","SYLLABLE","EXEMPLAR","TD_LOCS","TD_TYPE","TDLOC_01","TDLOC_02","TDLOC_03","TDLOC_04","TD_RT_01","TD_RT_02","TD_RT_03","TD_RT_04","TD_SUBJ_RTs","number_of_plays","responses","slider_start","response","question_order","syllable","syllable_type"
"pavlovia","0","4","0.0-0.0","2","0","eotlxm5tho6ybfs","","","","","","","","","","","","","","","","","","","","","","","","","","","","","","","","","","","","","",""
"instructions","1","224046","0.0-1.0","2","0","eotlxm5tho6ybfs","[{""page_index"":0,""viewing_time"":4145.399999976158},{""page_index"":1,""viewing_time"":219891.80000007153}]","224041.29999995232","","","","","","","","","","","","","","","","","","","","","","","","","","","","","","","","","","","",""
"external-html","2","234805","0.0-2.0","2","0","eotlxm5tho6ybfs","","10404.600000023842","consent/consent.html","","","","","","","","","","","","","","","","","","","","","","","","","","","","","","","","","","",""
"html-button-response","3","242504","0.0-3.0-0.0-0.0","2","0","eotlxm5tho6ybfs","","7694.699999928474","","<p>Welcome to the study. You will first complete a short volume calibration and headphone check.</p><p>Please make sure you are in a quiet listening environment, that you are wearing headphones, and that your computer's volume is turned on.<p></p>","0","","","","","","","","","","","","","","","","","","","","","","","","","","","","","","","","",""
"html-button-response","4","247358","0.0-3.0-0.0-1.0","2","0","eotlxm5tho6ybfs","","4593.399999976158","","<p>The volume calibration will be first.</p><p>You will hear a thirty-second noise. Please adjust your computer's volume so that this noise is being presented at a comfortable level.<p></p>","0","","","","","","","","","","","","","","","","","","","","","","","","","","","","","","","","",""
"audio-button-response","5","255921","0.0-3.0-0.0-2.0","2","0","eotlxm5tho6ybfs","","7840","","audCalib/volumetest.mp3","0","","","","","","","","","","","","","","","","","","","","","","","","","","","","","","","","",""
"html-button-response","6","272068","0.0-3.0-1.0-0.0","2","0","eotlxm5tho6ybfs","","16146","","<p>You will now complete a short headphone check.</p><p>On each trial, you will hear three tones. One of these tones will be quieter than the others. Your task is to identify whether the quiet tone occured first, second, or third.</p><p>There are six trials in total.<p></p>","0","","","","","","","","","","","","","","","","","","","","","","","","","","","","","","","","",""
"html-keyboard-response","7","272835","0.0-3.0-1.0-1.0-0.0","2","0","eotlxm5tho6ybfs","","null","","<div style=""font-size:60px;"">+</div>","","null","","","","","","","","","","","","","","","","","","","","","","","","","","","","","","","",""
"audio-button-response","8","284634","0.0-3.0-1.0-1.0-1.0","2","0","eotlxm5tho6ybfs","","11800","","audCalib/t2_2.mp3","1","","1","1","headphone-test","","","","","","","","","","","","","","","","","","","","","","","","","","","","",""
"html-keyboard-response","9","285400","0.0-3.0-1.0-1.0-0.1","2","0","eotlxm5tho6ybfs","","null","","<div style=""font-size:60px;"">+</div>","","null","","","","","","","","","","","","","","","","","","","","","","","","","","","","","","","",""
"audio-button-response","10","291574","0.0-3.0-1.0-1.0-1.1","2","0","eotlxm5tho6ybfs","","6171","","audCalib/t1_2.mp3","1","","0","0","headphone-test","","","","","","","","","","","","","","","","","","","","","","","","","","","","",""
"html-keyboard-response","11","292342","0.0-3.0-1.0-1.0-0.2","2","0","eotlxm5tho6ybfs","","null","","<div style=""font-size:60px;"">+</div>","","null","","","","","","","","","","","","","","","","","","","","","","","","","","","","","","","",""
"audio-button-response","12","306469","0.0-3.0-1.0-1.0-1.2","2","0","eotlxm5tho6ybfs","","14120","","audCalib/t3_1.mp3","2","","2","1","headphone-test","","","","","","","","","","","","","","","","","","","","","","","","","","","","",""
"html-keyboard-response","13","307248","0.0-3.0-1.0-1.0-0.3","2","0","eotlxm5tho6ybfs","","null","","<div style=""font-size:60px;"">+</div>","","null","","","","","","","","","","","","","","","","","","","","","","","","","","","","","","","",""
"audio-button-response","14","313075","0.0-3.0-1.0-1.0-1.3","2","0","eotlxm5tho6ybfs","","5819","","audCalib/t3_2.mp3","2","","2","1","headphone-test","","","","","","","","","","","","","","","","","","","","","","","","","","","","",""
"html-keyboard-response","15","313857","0.0-3.0-1.0-1.0-0.4","2","0","eotlxm5tho6ybfs","","null","","<div style=""font-size:60px;"">+</div>","","null","","","","","","","","","","","","","","","","","","","","","","","","","","","","","","","",""
"audio-button-response","16","318783","0.0-3.0-1.0-1.0-1.4","2","0","eotlxm5tho6ybfs","","4928","","audCalib/t1_1.mp3","0","","0","1","headphone-test","","","","","","","","","","","","","","","","","","","","","","","","","","","","",""
"html-keyboard-response","17","319551","0.0-3.0-1.0-1.0-0.5","2","0","eotlxm5tho6ybfs","","null","","<div style=""font-size:60px;"">+</div>","","null","","","","","","","","","","","","","","","","","","","","","","","","","","","","","","","",""
"audio-button-response","18","374436","0.0-3.0-1.0-1.0-1.5","2","0","eotlxm5tho6ybfs","","54891","","audCalib/t2_1.mp3","1","","1","1","headphone-test","","","","","","","","","","","","","","","","","","","","","","","","","","","","",""
"html-button-response","19","379243","0.0-3.0-2.0","2","0","eotlxm5tho6ybfs","","4553.199999928474","","<p>The volume calibration and headphone check are now complete.</p>","0","","","","","","","","","","","","","","","","","","","","","","","","","","","","","","","","",""
"instructions","20","405371","0.0-4.0-0.0","2","0","eotlxm5tho6ybfs","[{""page_index"":0,""viewing_time"":3099.2999999523163},{""page_index"":1,""viewing_time"":17539.299999952316},{""page_index"":2,""viewing_time"":5487.600000023842}]","26126.699999928474","","","","","","","","","","","","","","","","","","","","","","","","","","","","","","","","","","","",""
"audio-keyboard-response","21","406071","0.0-4.0-1.0-0.0","2","0","eotlxm5tho6ybfs","","null","","sounds/induction/left_rev/pu_SWS.wav","","null","","","","","","","","","","","","","","","","","","","","","","","","","","","","","","","",""
"html-button-response","22","408788","0.0-4.0-1.0-1.0","2","0","eotlxm5tho6ybfs","","2716.100000023842","","Was the sound coming from the left or the right?","1","","","0","INDUCTION-JUDGMENT","left","0","","","","","","","","","","","","","","","","","","","","","","","","","","",""
"html-keyboard-response","23","409793","0.0-4.0-1.0-2.0","2","0","eotlxm5tho6ybfs","","null","","<p style=""color:#690000;""><b>Incorrect!</b></p>","","null","","","","","","","","","","","","","","","","","","","","","","","","","","","","","","","",""
"audio-keyboard-response","24","410601","0.0-4.0-1.0-0.1","2","0","eotlxm5tho6ybfs","","null","","sounds/induction/right_rev/ta_SWS.wav","","null","","","","","","","","","","","","","","","","","","","","","","","","","","","","","","","",""
"html-button-response","25","423057","0.0-4.0-1.0-1.1","2","0","eotlxm5tho6ybfs","","12455.300000071526","","Was the sound coming from the left or the right?","1","","","1","INDUCTION-JUDGMENT","right","1","","","","","","","","","","","","","","","","","","","","","","","","","","",""
"html-keyboard-response","26","424059","0.0-4.0-1.0-2.1","2","0","eotlxm5tho6ybfs","","null","","<p style=""color:#054d00;""><b>Correct!</b></p>","","null","","","","","","","","","","","","","","","","","","","","","","","","","","","","","","","",""
"audio-keyboard-response","27","424869","0.0-4.0-1.0-0.2","2","0","eotlxm5tho6ybfs","","null","","sounds/induction/right_rev/ge_SWS.wav","","null","","","","","","","","","","","","","","","","","","","","","","","","","","","","","","","",""
"html-button-response","28","427160","0.0-4.0-1.0-1.2","2","0","eotlxm5tho6ybfs","","2288.6999999284744","","Was the sound coming from the left or the right?","1","","","1","INDUCTION-JUDGMENT","right","1","","","","","","","","","","","","","","","","","","","","","","","","","","",""
"html-keyboard-response","29","428173","0.0-4.0-1.0-2.2","2","0","eotlxm5tho6ybfs","","null","","<p style=""color:#054d00;""><b>Correct!</b></p>","","null","","","","","","","","","","","","","","","","","","","","","","","","","","","","","","","",""
"audio-keyboard-response","30","428981","0.0-4.0-1.0-0.3","2","0","eotlxm5tho6ybfs","","null","","sounds/induction/left_rev/re_SWS.wav","","null","","","","","","","","","","","","","","","","","","","","","","","","","","","","","","","",""
"html-button-response","31","430414","0.0-4.0-1.0-1.3","2","0","eotlxm5tho6ybfs","","1432","","Was the sound coming from the left or the right?","0","","","1","INDUCTION-JUDGMENT","left","0","","","","","","","","","","","","","","","","","","","","","","","","","","",""
"html-keyboard-response","32","431425","0.0-4.0-1.0-2.3","2","0","eotlxm5tho6ybfs","","null","","<p style=""color:#054d00;""><b>Correct!</b></p>","","null","","","","","","","","","","","","","","","","","","","","","","","","","","","","","","","",""
"audio-keyboard-response","33","432230","0.0-4.0-1.0-0.4","2","0","eotlxm5tho6ybfs","","null","","sounds/induction/right_rev/pu_SWS.wav","","null","","","","","","","","","","","","","","","","","","","","","","","","","","","","","","","",""
"html-button-response","34","434952","0.0-4.0-1.0-1.4","2","0","eotlxm5tho6ybfs","","2721.600000023842","","Was the sound coming from the left or the right?","1","","","1","INDUCTION-JUDGMENT","right","1","","","","","","","","","","","","","","","","","","","","","","","","","","",""
"html-keyboard-response","35","435968","0.0-4.0-1.0-2.4","2","0","eotlxm5tho6ybfs","","null","","<p style=""color:#054d00;""><b>Correct!</b></p>","","null","","","","","","","","","","","","","","","","","","","","","","","","","","","","","","","",""
"audio-keyboard-response","36","436760","0.0-4.0-1.0-0.5","2","0","eotlxm5tho6ybfs","","null","","sounds/induction/right_rev/pu_SWS.wav","","null","","","","","","","","","","","","","","","","","","","","","","","","","","","","","","","",""
"html-button-response","37","438016","0.0-4.0-1.0-1.5","2","0","eotlxm5tho6ybfs","","1253.6000000238419","","Was the sound coming from the left or the right?","1","","","1","INDUCTION-JUDGMENT","right","1","","","","","","","","","","","","","","","","","","","","","","","","","","",""
"html-keyboard-response","38","439034","0.0-4.0-1.0-2.5","2","0","eotlxm5tho6ybfs","","null","","<p style=""color:#054d00;""><b>Correct!</b></p>","","null","","","","","","","","","","","","","","","","","","","","","","","","","","","","","","","",""
"audio-keyboard-response","39","439840","0.0-4.0-1.0-0.6","2","0","eotlxm5tho6ybfs","","null","","sounds/induction/right_rev/ta_SWS.wav","","null","","","","","","","","","","","","","","","","","","","","","","","","","","","","","","","",""
"html-button-response","40","441331","0.0-4.0-1.0-1.6","2","0","eotlxm5tho6ybfs","","1489.5999999046326","","Was the sound coming from the left or the right?","1","","","1","INDUCTION-JUDGMENT","right","1","","","","","","","","","","","","","","","","","","","","","","","","","","",""
"html-keyboard-response","41","442339","0.0-4.0-1.0-2.6","2","0","eotlxm5tho6ybfs","","null","","<p style=""color:#054d00;""><b>Correct!</b></p>","","null","","","","","","","","","","","","","","","","","","","","","","","","","","","","","","","",""
"audio-keyboard-response","42","443150","0.0-4.0-1.0-0.7","2","0","eotlxm5tho6ybfs","","null","","sounds/induction/left_rev/fe_SWS.wav","","null","","","","","","","","","","","","","","","","","","","","","","","","","","","","","","","",""
"html-button-response","43","444060","0.0-4.0-1.0-1.7","2","0","eotlxm5tho6ybfs","","908.3000000715256","","Was the sound coming from the left or the right?","0","","","1","INDUCTION-JUDGMENT","left","0","","","","","","","","","","","","","","","","","","","","","","","","","","",""
"html-keyboard-response","44","445073","0.0-4.0-1.0-2.7","2","0","eotlxm5tho6ybfs","","null","","<p style=""color:#054d00;""><b>Correct!</b></p>","","null","","","","","","","","","","","","","","","","","","","","","","","","","","","","","","","",""
"audio-keyboard-response","45","445880","0.0-4.0-1.0-0.8","2","0","eotlxm5tho6ybfs","","null","","sounds/induction/left_rev/ti_SWS.wav","","null","","","","","","","","","","","","","","","","","","","","","","","","","","","","","","","",""
"html-button-response","46","447286","0.0-4.0-1.0-1.8","2","0","eotlxm5tho6ybfs","","1405.1000000238419","","Was the sound coming from the left or the right?","0","","","1","INDUCTION-JUDGMENT","left","0","","","","","","","","","","","","","","","","","","","","","","","","","","",""
"html-keyboard-response","47","448293","0.0-4.0-1.0-2.8","2","0","eotlxm5tho6ybfs","","null","","<p style=""color:#054d00;""><b>Correct!</b></p>","","null","","","","","","","","","","","","","","","","","","","","","","","","","","","","","","","",""
"audio-keyboard-response","48","449110","0.0-4.0-1.0-0.9","2","0","eotlxm5tho6ybfs","","null","","sounds/induction/left_rev/ni_SWS.wav","","null","","","","","","","","","","","","","","","","","","","","","","","","","","","","","","","",""
"html-button-response","49","450134","0.0-4.0-1.0-1.9","2","0","eotlxm5tho6ybfs","","1022.2000000476837","","Was the sound coming from the left or the right?","0","","","1","INDUCTION-JUDGMENT","left","0","","","","","","","","","","","","","","","","","","","","","","","","","","",""
"html-keyboard-response","50","451139","0.0-4.0-1.0-2.9","2","0","eotlxm5tho6ybfs","","null","","<p style=""color:#054d00;""><b>Correct!</b></p>","","null","","","","","","","","","","","","","","","","","","","","","","","","","","","","","","","",""
"audio-keyboard-response","51","451951","0.0-4.0-1.0-0.10","2","0","eotlxm5tho6ybfs","","null","","sounds/induction/left_rev/pu_SWS.wav","","null","","","","","","","","","","","","","","","","","","","","","","","","","","","","","","","",""
"html-button-response","52","453278","0.0-4.0-1.0-1.10","2","0","eotlxm5tho6ybfs","","1326.0999999046326","","Was the sound coming from the left or the right?","0","","","1","INDUCTION-JUDGMENT","left","0","","","","","","","","","","","","","","","","","","","","","","","","","","",""
"html-keyboard-response","53","454286","0.0-4.0-1.0-2.10","2","0","eotlxm5tho6ybfs","","null","","<p style=""color:#054d00;""><b>Correct!</b></p>","","null","","","","","","","","","","","","","","","","","","","","","","","","","","","","","","","",""
"audio-keyboard-response","54","455100","0.0-4.0-1.0-0.11","2","0","eotlxm5tho6ybfs","","null","","sounds/induction/left_rev/su_SWS.wav","","null","","","","","","","","","","","","","","","","","","","","","","","","","","","","","","","",""
"html-button-response","55","456675","0.0-4.0-1.0-1.11","2","0","eotlxm5tho6ybfs","","1573.3999999761581","","Was the sound coming from the left or the right?","0","","","1","INDUCTION-JUDGMENT","left","0","","","","","","","","","","","","","","","","","","","","","","","","","","",""
"html-keyboard-response","56","457677","0.0-4.0-1.0-2.11","2","0","eotlxm5tho6ybfs","","null","","<p style=""color:#054d00;""><b>Correct!</b></p>","","null","","","","","","","","","","","","","","","","","","","","","","","","","","","","","","","",""
"audio-keyboard-response","57","458500","0.0-4.0-1.0-0.12","2","0","eotlxm5tho6ybfs","","null","","sounds/induction/right_rev/ti_SWS.wav","","null","","","","","","","","","","","","","","","","","","","","","","","","","","","","","","","",""
"html-button-response","58","459351","0.0-4.0-1.0-1.12","2","0","eotlxm5tho6ybfs","","850.1000000238419","","Was the sound coming from the left or the right?","1","","","1","INDUCTION-JUDGMENT","right","1","","","","","","","","","","","","","","","","","","","","","","","","","","",""
"html-keyboard-response","59","460356","0.0-4.0-1.0-2.12","2","0","eotlxm5tho6ybfs","","null","","<p style=""color:#054d00;""><b>Correct!</b></p>","","null","","","","","","","","","","","","","","","","","","","","","","","","","","","","","","","",""
"audio-keyboard-response","60","461181","0.0-4.0-1.0-0.13","2","0","eotlxm5tho6ybfs","","null","","sounds/induction/right_rev/fe_SWS.wav","","null","","","","","","","","","","","","","","","","","","","","","","","","","","","","","","","",""
"html-button-response","61","462702","0.0-4.0-1.0-1.13","2","0","eotlxm5tho6ybfs","","1520.8000000715256","","Was the sound coming from the left or the right?","1","","","1","INDUCTION-JUDGMENT","right","1","","","","","","","","","","","","","","","","","","","","","","","","","","",""
"html-keyboard-response","62","463711","0.0-4.0-1.0-2.13","2","0","eotlxm5tho6ybfs","","null","","<p style=""color:#054d00;""><b>Correct!</b></p>","","null","","","","","","","","","","","","","","","","","","","","","","","","","","","","","","","",""
"audio-keyboard-response","63","464521","0.0-4.0-1.0-0.14","2","0","eotlxm5tho6ybfs","","null","","sounds/induction/left_rev/fu_SWS.wav","","null","","","","","","","","","","","","","","","","","","","","","","","","","","","","","","","",""
"html-button-response","64","465483","0.0-4.0-1.0-1.14","2","0","eotlxm5tho6ybfs","","961.9000000953674","","Was the sound coming from the left or the right?","0","","","1","INDUCTION-JUDGMENT","left","0","","","","","","","","","","","","","","","","","","","","","","","","","","",""
"html-keyboard-response","65","466488","0.0-4.0-1.0-2.14","2","0","eotlxm5tho6ybfs","","null","","<p style=""color:#054d00;""><b>Correct!</b></p>","","null","","","","","","","","","","","","","","","","","","","","","","","","","","","","","","","",""
"audio-keyboard-response","66","467310","0.0-4.0-1.0-0.15","2","0","eotlxm5tho6ybfs","","null","","sounds/induction/left_rev/ni_SWS.wav","","null","","","","","","","","","","","","","","","","","","","","","","","","","","","","","","","",""
"html-button-response","67","468623","0.0-4.0-1.0-1.15","2","0","eotlxm5tho6ybfs","","1312.3999999761581","","Was the sound coming from the left or the right?","0","","","1","INDUCTION-JUDGMENT","left","0","","","","","","","","","","","","","","","","","","","","","","","","","","",""
"html-keyboard-response","68","469633","0.0-4.0-1.0-2.15","2","0","eotlxm5tho6ybfs","","null","","<p style=""color:#054d00;""><b>Correct!</b></p>","","null","","","","","","","","","","","","","","","","","","","","","","","","","","","","","","","",""
"audio-keyboard-response","69","470440","0.0-4.0-1.0-0.16","2","0","eotlxm5tho6ybfs","","null","","sounds/induction/right_rev/ru_SWS.wav","","null","","","","","","","","","","","","","","","","","","","","","","","","","","","","","","","",""
"html-button-response","70","471433","0.0-4.0-1.0-1.16","2","0","eotlxm5tho6ybfs","","991.7000000476837","","Was the sound coming from the left or the right?","1","","","1","INDUCTION-JUDGMENT","right","1","","","","","","","","","","","","","","","","","","","","","","","","","","",""
"html-keyboard-response","71","472446","0.0-4.0-1.0-2.16","2","0","eotlxm5tho6ybfs","","null","","<p style=""color:#054d00;""><b>Correct!</b></p>","","null","","","","","","","","","","","","","","","","","","","","","","","","","","","","","","","",""
"audio-keyboard-response","72","473241","0.0-4.0-1.0-0.17","2","0","eotlxm5tho6ybfs","","null","","sounds/induction/right_rev/su_SWS.wav","","null","","","","","","","","","","","","","","","","","","","","","","","","","","","","","","","",""
"html-button-response","73","474534","0.0-4.0-1.0-1.17","2","0","eotlxm5tho6ybfs","","1291.0999999046326","","Was the sound coming from the left or the right?","1","","","1","INDUCTION-JUDGMENT","right","1","","","","","","","","","","","","","","","","","","","","","","","","","","",""
"html-keyboard-response","74","475540","0.0-4.0-1.0-2.17","2","0","eotlxm5tho6ybfs","","null","","<p style=""color:#054d00;""><b>Correct!</b></p>","","null","","","","","","","","","","","","","","","","","","","","","","","","","","","","","","","",""
"audio-keyboard-response","75","476350","0.0-4.0-1.0-0.18","2","0","eotlxm5tho6ybfs","","null","","sounds/induction/left_rev/me_SWS.wav","","null","","","","","","","","","","","","","","","","","","","","","","","","","","","","","","","",""
"html-button-response","76","477611","0.0-4.0-1.0-1.18","2","0","eotlxm5tho6ybfs","","1260.5","","Was the sound coming from the left or the right?","0","","","1","INDUCTION-JUDGMENT","left","0","","","","","","","","","","","","","","","","","","","","","","","","","","",""
"html-keyboard-response","77","478617","0.0-4.0-1.0-2.18","2","0","eotlxm5tho6ybfs","","null","","<p style=""color:#054d00;""><b>Correct!</b></p>","","null","","","","","","","","","","","","","","","","","","","","","","","","","","","","","","","",""
"audio-keyboard-response","78","479420","0.0-4.0-1.0-0.19","2","0","eotlxm5tho6ybfs","","null","","sounds/induction/left_rev/fe_SWS.wav","","null","","","","","","","","","","","","","","","","","","","","","","","","","","","","","","","",""
"html-button-response","79","480348","0.0-4.0-1.0-1.19","2","0","eotlxm5tho6ybfs","","926.6999999284744","","Was the sound coming from the left or the right?","0","","","1","INDUCTION-JUDGMENT","left","0","","","","","","","","","","","","","","","","","","","","","","","","","","",""
"html-keyboard-response","80","481361","0.0-4.0-1.0-2.19","2","0","eotlxm5tho6ybfs","","null","","<p style=""color:#054d00;""><b>Correct!</b></p>","","null","","","","","","","","","","","","","","","","","","","","","","","","","","","","","","","",""
"audio-keyboard-response","81","482180","0.0-4.0-1.0-0.20","2","0","eotlxm5tho6ybfs","","null","","sounds/induction/left_rev/ko_SWS.wav","","null","","","","","","","","","","","","","","","","","","","","","","","","","","","","","","","",""
"html-button-response","82","484501","0.0-4.0-1.0-1.20","2","0","eotlxm5tho6ybfs","","2319.600000023842","","Was the sound coming from the left or the right?","0","","","1","INDUCTION-JUDGMENT","left","0","","","","","","","","","","","","","","","","","","","","","","","","","","",""
"html-keyboard-response","83","485518","0.0-4.0-1.0-2.20","2","0","eotlxm5tho6ybfs","","null","","<p style=""color:#054d00;""><b>Correct!</b></p>","","null","","","","","","","","","","","","","","","","","","","","","","","","","","","","","","","",""
"audio-keyboard-response","84","486341","0.0-4.0-1.0-0.21","2","0","eotlxm5tho6ybfs","","null","","sounds/induction/left_rev/ta_SWS.wav","","null","","","","","","","","","","","","","","","","","","","","","","","","","","","","","","","",""
"html-button-response","85","487912","0.0-4.0-1.0-1.21","2","0","eotlxm5tho6ybfs","","1570.5","","Was the sound coming from the left or the right?","0","","","1","INDUCTION-JUDGMENT","left","0","","","","","","","","","","","","","","","","","","","","","","","","","","",""
"html-keyboard-response","86","488921","0.0-4.0-1.0-2.21","2","0","eotlxm5tho6ybfs","","null","","<p style=""color:#054d00;""><b>Correct!</b></p>","","null","","","","","","","","","","","","","","","","","","","","","","","","","","","","","","","",""
"audio-keyboard-response","87","489740","0.0-4.0-1.0-0.22","2","0","eotlxm5tho6ybfs","","null","","sounds/induction/right_rev/ru_SWS.wav","","null","","","","","","","","","","","","","","","","","","","","","","","","","","","","","","","",""
"html-button-response","88","490568","0.0-4.0-1.0-1.22","2","0","eotlxm5tho6ybfs","","826.5","","Was the sound coming from the left or the right?","1","","","1","INDUCTION-JUDGMENT","right","1","","","","","","","","","","","","","","","","","","","","","","","","","","",""
"html-keyboard-response","89","491571","0.0-4.0-1.0-2.22","2","0","eotlxm5tho6ybfs","","null","","<p style=""color:#054d00;""><b>Correct!</b></p>","","null","","","","","","","","","","","","","","","","","","","","","","","","","","","","","","","",""
"audio-keyboard-response","90","492390","0.0-4.0-1.0-0.23","2","0","eotlxm5tho6ybfs","","null","","sounds/induction/left_rev/re_SWS.wav","","null","","","","","","","","","","","","","","","","","","","","","","","","","","","","","","","",""
"html-button-response","91","493200","0.0-4.0-1.0-1.23","2","0","eotlxm5tho6ybfs","","808.7000000476837","","Was the sound coming from the left or the right?","0","","","1","INDUCTION-JUDGMENT","left","0","","","","","","","","","","","","","","","","","","","","","","","","","","",""
"html-keyboard-response","92","494203","0.0-4.0-1.0-2.23","2","0","eotlxm5tho6ybfs","","null","","<p style=""color:#054d00;""><b>Correct!</b></p>","","null","","","","","","","","","","","","","","","","","","","","","","","","","","","","","","","",""
"audio-keyboard-response","93","494999","0.0-4.0-1.0-0.24","2","0","eotlxm5tho6ybfs","","null","","sounds/induction/left_rev/ru_SWS.wav","","null","","","","","","","","","","","","","","","","","","","","","","","","","","","","","","","",""
"html-button-response","94","495847","0.0-4.0-1.0-1.24","2","0","eotlxm5tho6ybfs","","846.8999999761581","","Was the sound coming from the left or the right?","0","","","1","INDUCTION-JUDGMENT","left","0","","","","","","","","","","","","","","","","","","","","","","","","","","",""
"html-keyboard-response","95","496853","0.0-4.0-1.0-2.24","2","0","eotlxm5tho6ybfs","","null","","<p style=""color:#054d00;""><b>Correct!</b></p>","","null","","","","","","","","","","","","","","","","","","","","","","","","","","","","","","","",""
"audio-keyboard-response","96","497671","0.0-4.0-1.0-0.25","2","0","eotlxm5tho6ybfs","","null","","sounds/induction/right_rev/me_SWS.wav","","null","","","","","","","","","","","","","","","","","","","","","","","","","","","","","","","",""
"html-button-response","97","498384","0.0-4.0-1.0-1.25","2","0","eotlxm5tho6ybfs","","711.6000000238419","","Was the sound coming from the left or the right?","1","","","1","INDUCTION-JUDGMENT","right","1","","","","","","","","","","","","","","","","","","","","","","","","","","",""
"html-keyboard-response","98","499394","0.0-4.0-1.0-2.25","2","0","eotlxm5tho6ybfs","","null","","<p style=""color:#054d00;""><b>Correct!</b></p>","","null","","","","","","","","","","","","","","","","","","","","","","","","","","","","","","","",""
"audio-keyboard-response","99","500190","0.0-4.0-1.0-0.26","2","0","eotlxm5tho6ybfs","","null","","sounds/induction/right_rev/su_SWS.wav","","null","","","","","","","","","","","","","","","","","","","","","","","","","","","","","","","",""
"html-button-response","100","501061","0.0-4.0-1.0-1.26","2","0","eotlxm5tho6ybfs","","869.6000000238419","","Was the sound coming from the left or the right?","1","","","1","INDUCTION-JUDGMENT","right","1","","","","","","","","","","","","","","","","","","","","","","","","","","",""
"html-keyboard-response","101","502065","0.0-4.0-1.0-2.26","2","0","eotlxm5tho6ybfs","","null","","<p style=""color:#054d00;""><b>Correct!</b></p>","","null","","","","","","","","","","","","","","","","","","","","","","","","","","","","","","","",""
"audio-keyboard-response","102","502871","0.0-4.0-1.0-0.27","2","0","eotlxm5tho6ybfs","","null","","sounds/induction/left_rev/fu_SWS.wav","","null","","","","","","","","","","","","","","","","","","","","","","","","","","","","","","","",""
"html-button-response","103","503538","0.0-4.0-1.0-1.27","2","0","eotlxm5tho6ybfs","","665.8000000715256","","Was the sound coming from the left or the right?","0","","","1","INDUCTION-JUDGMENT","left","0","","","","","","","","","","","","","","","","","","","","","","","","","","",""
"html-keyboard-response","104","504546","0.0-4.0-1.0-2.27","2","0","eotlxm5tho6ybfs","","null","","<p style=""color:#054d00;""><b>Correct!</b></p>","","null","","","","","","","","","","","","","","","","","","","","","","","","","","","","","","","",""
"audio-keyboard-response","105","505350","0.0-4.0-1.0-0.28","2","0","eotlxm5tho6ybfs","","null","","sounds/induction/right_rev/ko_SWS.wav","","null","","","","","","","","","","","","","","","","","","","","","","","","","","","","","","","",""
"html-button-response","106","506007","0.0-4.0-1.0-1.28","2","0","eotlxm5tho6ybfs","","655.7999999523163","","Was the sound coming from the left or the right?","1","","","1","INDUCTION-JUDGMENT","right","1","","","","","","","","","","","","","","","","","","","","","","","","","","",""
"html-keyboard-response","107","507014","0.0-4.0-1.0-2.28","2","0","eotlxm5tho6ybfs","","null","","<p style=""color:#054d00;""><b>Correct!</b></p>","","null","","","","","","","","","","","","","","","","","","","","","","","","","","","","","","","",""
"audio-keyboard-response","108","507820","0.0-4.0-1.0-0.29","2","0","eotlxm5tho6ybfs","","null","","sounds/induction/right_rev/ti_SWS.wav","","null","","","","","","","","","","","","","","","","","","","","","","","","","","","","","","","",""
"html-button-response","109","508915","0.0-4.0-1.0-1.29","2","0","eotlxm5tho6ybfs","","1092.8999999761581","","Was the sound coming from the left or the right?","1","","","1","INDUCTION-JUDGMENT","right","1","","","","","","","","","","","","","","","","","","","","","","","","","","",""
"html-keyboard-response","110","509923","0.0-4.0-1.0-2.29","2","0","eotlxm5tho6ybfs","","null","","<p style=""color:#054d00;""><b>Correct!</b></p>","","null","","","","","","","","","","","","","","","","","","","","","","","","","","","","","","","",""
"audio-keyboard-response","111","510720","0.0-4.0-1.0-0.30","2","0","eotlxm5tho6ybfs","","null","","sounds/induction/left_rev/ge_SWS.wav","","null","","","","","","","","","","","","","","","","","","","","","","","","","","","","","","","",""
"html-button-response","112","511584","0.0-4.0-1.0-1.30","2","0","eotlxm5tho6ybfs","","862.8999999761581","","Was the sound coming from the left or the right?","0","","","1","INDUCTION-JUDGMENT","left","0","","","","","","","","","","","","","","","","","","","","","","","","","","",""
"html-keyboard-response","113","512594","0.0-4.0-1.0-2.30","2","0","eotlxm5tho6ybfs","","null","","<p style=""color:#054d00;""><b>Correct!</b></p>","","null","","","","","","","","","","","","","","","","","","","","","","","","","","","","","","","",""
"audio-keyboard-response","114","513400","0.0-4.0-1.0-0.31","2","0","eotlxm5tho6ybfs","","null","","sounds/induction/right_rev/ni_SWS.wav","","null","","","","","","","","","","","","","","","","","","","","","","","","","","","","","","","",""
"html-button-response","115","514092","0.0-4.0-1.0-1.31","2","0","eotlxm5tho6ybfs","","689.8000000715256","","Was the sound coming from the left or the right?","1","","","1","INDUCTION-JUDGMENT","right","1","","","","","","","","","","","","","","","","","","","","","","","","","","",""
"html-keyboard-response","116","515103","0.0-4.0-1.0-2.31","2","0","eotlxm5tho6ybfs","","null","","<p style=""color:#054d00;""><b>Correct!</b></p>","","null","","","","","","","","","","","","","","","","","","","","","","","","","","","","","","","",""
"audio-keyboard-response","117","515910","0.0-4.0-1.0-0.32","2","0","eotlxm5tho6ybfs","","null","","sounds/induction/left_rev/me_SWS.wav","","null","","","","","","","","","","","","","","","","","","","","","","","","","","","","","","","",""
"html-button-response","118","517221","0.0-4.0-1.0-1.32","2","0","eotlxm5tho6ybfs","","1309.7000000476837","","Was the sound coming from the left or the right?","0","","","1","INDUCTION-JUDGMENT","left","0","","","","","","","","","","","","","","","","","","","","","","","","","","",""
"html-keyboard-response","119","518228","0.0-4.0-1.0-2.32","2","0","eotlxm5tho6ybfs","","null","","<p style=""color:#054d00;""><b>Correct!</b></p>","","null","","","","","","","","","","","","","","","","","","","","","","","","","","","","","","","",""
"audio-keyboard-response","120","519030","0.0-4.0-1.0-0.33","2","0","eotlxm5tho6ybfs","","null","","sounds/induction/left_rev/ko_SWS.wav","","null","","","","","","","","","","","","","","","","","","","","","","","","","","","","","","","",""
"html-button-response","121","519847","0.0-4.0-1.0-1.33","2","0","eotlxm5tho6ybfs","","815.8999999761581","","Was the sound coming from the left or the right?","0","","","1","INDUCTION-JUDGMENT","left","0","","","","","","","","","","","","","","","","","","","","","","","","","","",""
"html-keyboard-response","122","520852","0.0-4.0-1.0-2.33","2","0","eotlxm5tho6ybfs","","null","","<p style=""color:#054d00;""><b>Correct!</b></p>","","null","","","","","","","","","","","","","","","","","","","","","","","","","","","","","","","",""
"audio-keyboard-response","123","521660","0.0-4.0-1.0-0.34","2","0","eotlxm5tho6ybfs","","null","","sounds/induction/right_rev/me_SWS.wav","","null","","","","","","","","","","","","","","","","","","","","","","","","","","","","","","","",""
"html-button-response","124","522360","0.0-4.0-1.0-1.34","2","0","eotlxm5tho6ybfs","","699.3999999761581","","Was the sound coming from the left or the right?","1","","","1","INDUCTION-JUDGMENT","right","1","","","","","","","","","","","","","","","","","","","","","","","","","","",""
"html-keyboard-response","125","523361","0.0-4.0-1.0-2.34","2","0","eotlxm5tho6ybfs","","null","","<p style=""color:#054d00;""><b>Correct!</b></p>","","null","","","","","","","","","","","","","","","","","","","","","","","","","","","","","","","",""
"audio-keyboard-response","126","524161","0.0-4.0-1.0-0.35","2","0","eotlxm5tho6ybfs","","null","","sounds/induction/right_rev/fe_SWS.wav","","null","","","","","","","","","","","","","","","","","","","","","","","","","","","","","","","",""
"html-button-response","127","524905","0.0-4.0-1.0-1.35","2","0","eotlxm5tho6ybfs","","742.5","","Was the sound coming from the left or the right?","1","","","1","INDUCTION-JUDGMENT","right","1","","","","","","","","","","","","","","","","","","","","","","","","","","",""
"html-keyboard-response","128","525907","0.0-4.0-1.0-2.35","2","0","eotlxm5tho6ybfs","","null","","<p style=""color:#054d00;""><b>Correct!</b></p>","","null","","","","","","","","","","","","","","","","","","","","","","","","","","","","","","","",""
"audio-keyboard-response","129","526721","0.0-4.0-1.0-0.36","2","0","eotlxm5tho6ybfs","","null","","sounds/induction/left_rev/ta_SWS.wav","","null","","","","","","","","","","","","","","","","","","","","","","","","","","","","","","","",""
"html-button-response","130","527329","0.0-4.0-1.0-1.36","2","0","eotlxm5tho6ybfs","","607.6000000238419","","Was the sound coming from the left or the right?","0","","","1","INDUCTION-JUDGMENT","left","0","","","","","","","","","","","","","","","","","","","","","","","","","","",""
"html-keyboard-response","131","528341","0.0-4.0-1.0-2.36","2","0","eotlxm5tho6ybfs","","null","","<p style=""color:#054d00;""><b>Correct!</b></p>","","null","","","","","","","","","","","","","","","","","","","","","","","","","","","","","","","",""
"audio-keyboard-response","132","529151","0.0-4.0-1.0-0.37","2","0","eotlxm5tho6ybfs","","null","","sounds/induction/right_rev/re_SWS.wav","","null","","","","","","","","","","","","","","","","","","","","","","","","","","","","","","","",""
"html-button-response","133","530312","0.0-4.0-1.0-1.37","2","0","eotlxm5tho6ybfs","","1159.3000000715256","","Was the sound coming from the left or the right?","1","","","1","INDUCTION-JUDGMENT","right","1","","","","","","","","","","","","","","","","","","","","","","","","","","",""
"html-keyboard-response","134","531314","0.0-4.0-1.0-2.37","2","0","eotlxm5tho6ybfs","","null","","<p style=""color:#054d00;""><b>Correct!</b></p>","","null","","","","","","","","","","","","","","","","","","","","","","","","","","","","","","","",""
"audio-keyboard-response","135","532110","0.0-4.0-1.0-0.38","2","0","eotlxm5tho6ybfs","","null","","sounds/induction/left_rev/ru_SWS.wav","","null","","","","","","","","","","","","","","","","","","","","","","","","","","","","","","","",""
"html-button-response","136","532722","0.0-4.0-1.0-1.38","2","0","eotlxm5tho6ybfs","","611.2000000476837","","Was the sound coming from the left or the right?","0","","","1","INDUCTION-JUDGMENT","left","0","","","","","","","","","","","","","","","","","","","","","","","","","","",""
"html-keyboard-response","137","533723","0.0-4.0-1.0-2.38","2","0","eotlxm5tho6ybfs","","null","","<p style=""color:#054d00;""><b>Correct!</b></p>","","null","","","","","","","","","","","","","","","","","","","","","","","","","","","","","","","",""
"audio-keyboard-response","138","534541","0.0-4.0-1.0-0.39","2","0","eotlxm5tho6ybfs","","null","","sounds/induction/right_rev/re_SWS.wav","","null","","","","","","","","","","","","","","","","","","","","","","","","","","","","","","","",""
"html-button-response","139","535213","0.0-4.0-1.0-1.39","2","0","eotlxm5tho6ybfs","","671.1999999284744","","Was the sound coming from the left or the right?","1","","","1","INDUCTION-JUDGMENT","right","1","","","","","","","","","","","","","","","","","","","","","","","","","","",""
"html-keyboard-response","140","536222","0.0-4.0-1.0-2.39","2","0","eotlxm5tho6ybfs","","null","","<p style=""color:#054d00;""><b>Correct!</b></p>","","null","","","","","","","","","","","","","","","","","","","","","","","","","","","","","","","",""
"audio-keyboard-response","141","537030","0.0-4.0-1.0-0.40","2","0","eotlxm5tho6ybfs","","null","","sounds/induction/right_rev/ge_SWS.wav","","null","","","","","","","","","","","","","","","","","","","","","","","","","","","","","","","",""
"html-button-response","142","538239","0.0-4.0-1.0-1.40","2","0","eotlxm5tho6ybfs","","1207.7000000476837","","Was the sound coming from the left or the right?","1","","","1","INDUCTION-JUDGMENT","right","1","","","","","","","","","","","","","","","","","","","","","","","","","","",""
"html-keyboard-response","143","539251","0.0-4.0-1.0-2.40","2","0","eotlxm5tho6ybfs","","null","","<p style=""color:#054d00;""><b>Correct!</b></p>","","null","","","","","","","","","","","","","","","","","","","","","","","","","","","","","","","",""
"audio-keyboard-response","144","540070","0.0-4.0-1.0-0.41","2","0","eotlxm5tho6ybfs","","null","","sounds/induction/right_rev/fu_SWS.wav","","null","","","","","","","","","","","","","","","","","","","","","","","","","","","","","","","",""
"html-button-response","145","542126","0.0-4.0-1.0-1.41","2","0","eotlxm5tho6ybfs","","2054.9000000953674","","Was the sound coming from the left or the right?","1","","","1","INDUCTION-JUDGMENT","right","1","","","","","","","","","","","","","","","","","","","","","","","","","","",""
"html-keyboard-response","146","543136","0.0-4.0-1.0-2.41","2","0","eotlxm5tho6ybfs","","null","","<p style=""color:#054d00;""><b>Correct!</b></p>","","null","","","","","","","","","","","","","","","","","","","","","","","","","","","","","","","",""
"audio-keyboard-response","147","543950","0.0-4.0-1.0-0.42","2","0","eotlxm5tho6ybfs","","null","","sounds/induction/right_rev/ni_SWS.wav","","null","","","","","","","","","","","","","","","","","","","","","","","","","","","","","","","",""
"html-button-response","148","545545","0.0-4.0-1.0-1.42","2","0","eotlxm5tho6ybfs","","1593.3999999761581","","Was the sound coming from the left or the right?","1","","","1","INDUCTION-JUDGMENT","right","1","","","","","","","","","","","","","","","","","","","","","","","","","","",""
"html-keyboard-response","149","546561","0.0-4.0-1.0-2.42","2","0","eotlxm5tho6ybfs","","null","","<p style=""color:#054d00;""><b>Correct!</b></p>","","null","","","","","","","","","","","","","","","","","","","","","","","","","","","","","","","",""
"audio-keyboard-response","150","547380","0.0-4.0-1.0-0.43","2","0","eotlxm5tho6ybfs","","null","","sounds/induction/right_rev/ko_SWS.wav","","null","","","","","","","","","","","","","","","","","","","","","","","","","","","","","","","",""
"html-button-response","151","548757","0.0-4.0-1.0-1.43","2","0","eotlxm5tho6ybfs","","1375.7000000476837","","Was the sound coming from the left or the right?","1","","","1","INDUCTION-JUDGMENT","right","1","","","","","","","","","","","","","","","","","","","","","","","","","","",""
"html-keyboard-response","152","549768","0.0-4.0-1.0-2.43","2","0","eotlxm5tho6ybfs","","null","","<p style=""color:#054d00;""><b>Correct!</b></p>","","null","","","","","","","","","","","","","","","","","","","","","","","","","","","","","","","",""
"audio-keyboard-response","153","550590","0.0-4.0-1.0-0.44","2","0","eotlxm5tho6ybfs","","null","","sounds/induction/left_rev/ge_SWS.wav","","null","","","","","","","","","","","","","","","","","","","","","","","","","","","","","","","",""
"html-button-response","154","551639","0.0-4.0-1.0-1.44","2","0","eotlxm5tho6ybfs","","1048.6999999284744","","Was the sound coming from the left or the right?","0","","","1","INDUCTION-JUDGMENT","left","0","","","","","","","","","","","","","","","","","","","","","","","","","","",""
"html-keyboard-response","155","552641","0.0-4.0-1.0-2.44","2","0","eotlxm5tho6ybfs","","null","","<p style=""color:#054d00;""><b>Correct!</b></p>","","null","","","","","","","","","","","","","","","","","","","","","","","","","","","","","","","",""
"audio-keyboard-response","156","553460","0.0-4.0-1.0-0.45","2","0","eotlxm5tho6ybfs","","null","","sounds/induction/left_rev/ti_SWS.wav","","null","","","","","","","","","","","","","","","","","","","","","","","","","","","","","","","",""
"html-button-response","157","554170","0.0-4.0-1.0-1.45","2","0","eotlxm5tho6ybfs","","709.8999999761581","","Was the sound coming from the left or the right?","0","","","1","INDUCTION-JUDGMENT","left","0","","","","","","","","","","","","","","","","","","","","","","","","","","",""
"html-keyboard-response","158","555179","0.0-4.0-1.0-2.45","2","0","eotlxm5tho6ybfs","","null","","<p style=""color:#054d00;""><b>Correct!</b></p>","","null","","","","","","","","","","","","","","","","","","","","","","","","","","","","","","","",""
"audio-keyboard-response","159","555991","0.0-4.0-1.0-0.46","2","0","eotlxm5tho6ybfs","","null","","sounds/induction/left_rev/su_SWS.wav","","null","","","","","","","","","","","","","","","","","","","","","","","","","","","","","","","",""
"html-button-response","160","557175","0.0-4.0-1.0-1.46","2","0","eotlxm5tho6ybfs","","1182.2000000476837","","Was the sound coming from the left or the right?","0","","","1","INDUCTION-JUDGMENT","left","0","","","","","","","","","","","","","","","","","","","","","","","","","","",""
"html-keyboard-response","161","558188","0.0-4.0-1.0-2.46","2","0","eotlxm5tho6ybfs","","null","","<p style=""color:#054d00;""><b>Correct!</b></p>","","null","","","","","","","","","","","","","","","","","","","","","","","","","","","","","","","",""
"audio-keyboard-response","162","558990","0.0-4.0-1.0-0.47","2","0","eotlxm5tho6ybfs","","null","","sounds/induction/right_rev/fu_SWS.wav","","null","","","","","","","","","","","","","","","","","","","","","","","","","","","","","","","",""
"html-button-response","163","559748","0.0-4.0-1.0-1.47","2","0","eotlxm5tho6ybfs","","757.5999999046326","","Was the sound coming from the left or the right?","1","","","1","INDUCTION-JUDGMENT","right","1","","","","","","","","","","","","","","","","","","","","","","","","","","",""
"html-keyboard-response","164","560756","0.0-4.0-1.0-2.47","2","0","eotlxm5tho6ybfs","","null","","<p style=""color:#054d00;""><b>Correct!</b></p>","","null","","","","","","","","","","","","","","","","","","","","","","","","","","","","","","","",""
"html-button-response","165","574538","0.0-5.0-0.0","2","0","eotlxm5tho6ybfs","","13266.600000023842","","<p>Thank you for your answers.</p><p>You will now listen to similar sounds. The main difference is that the sounds will be longer.</p><p>Just as before, you will be asked to judge whether the sound was coming from the left or the right.</p><p>There are 10 of these longer sounds in total.","0","","","","","","","","","","","","","","","","","","","","","","","","","","","","","","","","",""
"audio-keyboard-response","166","577670","0.0-5.0-1.0-0.0","2","0","eotlxm5tho6ybfs","","null","","sounds/sentences/left_rev/14_01_cfSWS.wav","","null","","","","","","","","","","","","","","","","","","","","","","","","","","","","","","","",""
"html-button-response","167","581198","0.0-5.0-1.0-1.0","2","0","eotlxm5tho6ybfs","","3526.7000000476837","","Was the sound coming from the left or the right?","0","","","1","INDUCTION-JUDGMENT","left","0","","","","","","","","","","","","","","","","","","","","","","","","","","",""
"html-keyboard-response","168","582204","0.0-5.0-1.0-2.0","2","0","eotlxm5tho6ybfs","","null","","<p style=""color:#054d00;""><b>Correct!</b></p>","","null","","","","","","","","","","","","","","","","","","","","","","","","","","","","","","","",""
"html-button-response","169","584581","0.0-5.0-1.0-3.0","2","0","eotlxm5tho6ybfs","","1860.3000000715256","","<p>Press the button below when you are ready to continue.</p>","0","","","","","","","","","","","","","","","","","","","","","","","","","","","","","","","","",""
"audio-keyboard-response","170","587321","0.0-5.0-1.0-0.1","2","0","eotlxm5tho6ybfs","","null","","sounds/sentences/right_rev/14_09_cfSWS.wav","","null","","","","","","","","","","","","","","","","","","","","","","","","","","","","","","","",""
"html-button-response","171","588252","0.0-5.0-1.0-1.1","2","0","eotlxm5tho6ybfs","","929.7999999523163","","Was the sound coming from the left or the right?","1","","","1","INDUCTION-JUDGMENT","right","1","","","","","","","","","","","","","","","","","","","","","","","","","","",""
"html-keyboard-response","172","589266","0.0-5.0-1.0-2.1","2","0","eotlxm5tho6ybfs","","null","","<p style=""color:#054d00;""><b>Correct!</b></p>","","null","","","","","","","","","","","","","","","","","","","","","","","","","","","","","","","",""
"html-button-response","173","591628","0.0-5.0-1.0-3.1","2","0","eotlxm5tho6ybfs","","1849.8999999761581","","<p>Press the button below when you are ready to continue.</p>","0","","","","","","","","","","","","","","","","","","","","","","","","","","","","","","","","",""
"audio-keyboard-response","174","594380","0.0-5.0-1.0-0.2","2","0","eotlxm5tho6ybfs","","null","","sounds/sentences/right_rev/14_06_cfSWS.wav","","null","","","","","","","","","","","","","","","","","","","","","","","","","","","","","","","",""
"html-button-response","175","595321","0.0-5.0-1.0-1.2","2","0","eotlxm5tho6ybfs","","939.1000000238419","","Was the sound coming from the left or the right?","1","","","1","INDUCTION-JUDGMENT","right","1","","","","","","","","","","","","","","","","","","","","","","","","","","",""
"html-keyboard-response","176","596334","0.0-5.0-1.0-2.2","2","0","eotlxm5tho6ybfs","","null","","<p style=""color:#054d00;""><b>Correct!</b></p>","","null","","","","","","","","","","","","","","","","","","","","","","","","","","","","","","","",""
"html-button-response","177","597761","0.0-5.0-1.0-3.2","2","0","eotlxm5tho6ybfs","","912.7000000476837","","<p>Press the button below when you are ready to continue.</p>","0","","","","","","","","","","","","","","","","","","","","","","","","","","","","","","","","",""
"audio-keyboard-response","178","600520","0.0-5.0-1.0-0.3","2","0","eotlxm5tho6ybfs","","null","","sounds/sentences/right_rev/14_08_cfSWS.wav","","null","","","","","","","","","","","","","","","","","","","","","","","","","","","","","","","",""
"html-button-response","179","601603","0.0-5.0-1.0-1.3","2","0","eotlxm5tho6ybfs","","1082.1999999284744","","Was the sound coming from the left or the right?","1","","","1","INDUCTION-JUDGMENT","right","1","","","","","","","","","","","","","","","","","","","","","","","","","","",""
"html-keyboard-response","180","602608","0.0-5.0-1.0-2.3","2","0","eotlxm5tho6ybfs","","null","","<p style=""color:#054d00;""><b>Correct!</b></p>","","null","","","","","","","","","","","","","","","","","","","","","","","","","","","","","","","",""
"html-button-response","181","604237","0.0-5.0-1.0-3.3","2","0","eotlxm5tho6ybfs","","1111.8999999761581","","<p>Press the button below when you are ready to continue.</p>","0","","","","","","","","","","","","","","","","","","","","","","","","","","","","","","","","",""
"audio-keyboard-response","182","607130","0.0-5.0-1.0-0.4","2","0","eotlxm5tho6ybfs","","null","","sounds/sentences/right_rev/14_07_cfSWS.wav","","null","","","","","","","","","","","","","","","","","","","","","","","","","","","","","","","",""
"html-button-response","183","609036","0.0-5.0-1.0-1.4","2","0","eotlxm5tho6ybfs","","1904.9000000953674","","Was the sound coming from the left or the right?","1","","","1","INDUCTION-JUDGMENT","right","1","","","","","","","","","","","","","","","","","","","","","","","","","","",""
"html-keyboard-response","184","610045","0.0-5.0-1.0-2.4","2","0","eotlxm5tho6ybfs","","null","","<p style=""color:#054d00;""><b>Correct!</b></p>","","null","","","","","","","","","","","","","","","","","","","","","","","","","","","","","","","",""
"html-button-response","185","612916","0.0-5.0-1.0-3.4","2","0","eotlxm5tho6ybfs","","2356.600000023842","","<p>Press the button below when you are ready to continue.</p>","0","","","","","","","","","","","","","","","","","","","","","","","","","","","","","","","","",""
"audio-keyboard-response","186","615750","0.0-5.0-1.0-0.5","2","0","eotlxm5tho6ybfs","","null","","sounds/sentences/left_rev/14_02_cfSWS.wav","","null","","","","","","","","","","","","","","","","","","","","","","","","","","","","","","","",""
"html-button-response","187","618011","0.0-5.0-1.0-1.5","2","0","eotlxm5tho6ybfs","","2260.2000000476837","","Was the sound coming from the left or the right?","0","","","1","INDUCTION-JUDGMENT","left","0","","","","","","","","","","","","","","","","","","","","","","","","","","",""
"html-keyboard-response","188","619024","0.0-5.0-1.0-2.5","2","0","eotlxm5tho6ybfs","","null","","<p style=""color:#054d00;""><b>Correct!</b></p>","","null","","","","","","","","","","","","","","","","","","","","","","","","","","","","","","","",""
"html-button-response","189","620452","0.0-5.0-1.0-3.5","2","0","eotlxm5tho6ybfs","","912.7000000476837","","<p>Press the button below when you are ready to continue.</p>","0","","","","","","","","","","","","","","","","","","","","","","","","","","","","","","","","",""
"audio-keyboard-response","190","623441","0.0-5.0-1.0-0.6","2","0","eotlxm5tho6ybfs","","null","","sounds/sentences/left_rev/14_05_cfSWS.wav","","null","","","","","","","","","","","","","","","","","","","","","","","","","","","","","","","",""
"html-button-response","191","624257","0.0-5.0-1.0-1.6","2","0","eotlxm5tho6ybfs","","813.8999999761581","","Was the sound coming from the left or the right?","0","","","1","INDUCTION-JUDGMENT","left","0","","","","","","","","","","","","","","","","","","","","","","","","","","",""
"html-keyboard-response","192","625264","0.0-5.0-1.0-2.6","2","0","eotlxm5tho6ybfs","","null","","<p style=""color:#054d00;""><b>Correct!</b></p>","","null","","","","","","","","","","","","","","","","","","","","","","","","","","","","","","","",""
"html-button-response","193","626674","0.0-5.0-1.0-3.6","2","0","eotlxm5tho6ybfs","","897.3999999761581","","<p>Press the button below when you are ready to continue.</p>","0","","","","","","","","","","","","","","","","","","","","","","","","","","","","","","","","",""
"audio-keyboard-response","194","629230","0.0-5.0-1.0-0.7","2","0","eotlxm5tho6ybfs","","null","","sounds/sentences/left_rev/14_04_cfSWS.wav","","null","","","","","","","","","","","","","","","","","","","","","","","","","","","","","","","",""
"html-button-response","195","630473","0.0-5.0-1.0-1.7","2","0","eotlxm5tho6ybfs","","1240.2999999523163","","Was the sound coming from the left or the right?","0","","","1","INDUCTION-JUDGMENT","left","0","","","","","","","","","","","","","","","","","","","","","","","","","","",""
"html-keyboard-response","196","631490","0.0-5.0-1.0-2.7","2","0","eotlxm5tho6ybfs","","null","","<p style=""color:#054d00;""><b>Correct!</b></p>","","null","","","","","","","","","","","","","","","","","","","","","","","","","","","","","","","",""
"html-button-response","197","632958","0.0-5.0-1.0-3.7","2","0","eotlxm5tho6ybfs","","954.6999999284744","","<p>Press the button below when you are ready to continue.</p>","0","","","","","","","","","","","","","","","","","","","","","","","","","","","","","","","","",""
"audio-keyboard-response","198","635981","0.0-5.0-1.0-0.8","2","0","eotlxm5tho6ybfs","","null","","sounds/sentences/right_rev/14_10_cfSWS.wav","","null","","","","","","","","","","","","","","","","","","","","","","","","","","","","","","","",""
"html-button-response","199","637000","0.0-5.0-1.0-1.8","2","0","eotlxm5tho6ybfs","","1017.2000000476837","","Was the sound coming from the left or the right?","1","","","1","INDUCTION-JUDGMENT","right","1","","","","","","","","","","","","","","","","","","","","","","","","","","",""
"html-keyboard-response","200","638004","0.0-5.0-1.0-2.8","2","0","eotlxm5tho6ybfs","","null","","<p style=""color:#054d00;""><b>Correct!</b></p>","","null","","","","","","","","","","","","","","","","","","","","","","","","","","","","","","","",""
"html-button-response","201","639358","0.0-5.0-1.0-3.8","2","0","eotlxm5tho6ybfs","","840.6000000238419","","<p>Press the button below when you are ready to continue.</p>","0","","","","","","","","","","","","","","","","","","","","","","","","","","","","","","","","",""
"audio-keyboard-response","202","641950","0.0-5.0-1.0-0.9","2","0","eotlxm5tho6ybfs","","null","","sounds/sentences/left_rev/14_03_cfSWS.wav","","null","","","","","","","","","","","","","","","","","","","","","","","","","","","","","","","",""
"html-button-response","203","643520","0.0-5.0-1.0-1.9","2","0","eotlxm5tho6ybfs","","1566.0999999046326","","Was the sound coming from the left or the right?","0","","","1","INDUCTION-JUDGMENT","left","0","","","","","","","","","","","","","","","","","","","","","","","","","","",""
"html-keyboard-response","204","644521","0.0-5.0-1.0-2.9","2","0","eotlxm5tho6ybfs","","null","","<p style=""color:#054d00;""><b>Correct!</b></p>","","null","","","","","","","","","","","","","","","","","","","","","","","","","","","","","","","",""
"html-button-response","205","645842","0.0-5.0-1.0-3.9","2","0","eotlxm5tho6ybfs","","811.7000000476837","","<p>Press the button below when you are ready to continue.</p>","0","","","","","","","","","","","","","","","","","","","","","","","","","","","","","","","","",""
"html-keyboard-response","206","683537","0.0-6.0-0.0","2","0","eotlxm5tho6ybfs","","37179.59999990463","","<p>In this part of the study, you will hear sounds similar to those you just heard.</p><p>Please focus on these sounds, as you may be asked questions about them later.</p><p>Occasionally, the sounds will pause for up to two seconds. When this happens, please press SPACEBAR as quickly as you can.</br>This helps ensure that you are paying attention to the sounds.</p><p>This part of the study will take about 12 minutes to complete, and you will be given the opportunity to take a couple of short breaks every few minutes.</p><p><strong>Press SPACEBAR to begin</strong></p>","","32","","","","","","","","","","","","","","","","","","","","","","","","","","","","","","","",""
"html-keyboard-response","207","684539","0.0-6.0-1.0-0.0","2","0","eotlxm5tho6ybfs","","null","","<p style=""font-size: 40px;"">+</p>","","null","","","","","","","","","","","","","","","","","","","","","","","","","","","","","","","",""
"html-keyboard-response","208","869545","0.0-6.0-1.0-1.0","2","0","eotlxm5tho6ybfs","","null","","","","null","","","SL-TRAIN","","","0","790.2999999523163","740","sounds/B/TRAIN/SEQ__07.mp3","2","","","","","","","","","","","","","","","","","","","","","",""
"html-button-response","209","872371","0.0-6.0-1.0-2.0","2","0","eotlxm5tho6ybfs","","2823.8000000715256","","<p>You may take a short break if you wish.</p>","0","","","","","","","","","","","","","","","","","","","","","","","","","","","","","","","","",""
"html-keyboard-response","210","873372","0.0-6.0-1.0-3.0","2","0","eotlxm5tho6ybfs","","null","","<p style=""font-size: 40px;"">+</p>","","null","","","","","","","","","","","","","","","","","","","","","","","","","","","","","","","",""
"html-keyboard-response","211","1058375","0.0-6.0-1.0-4.0","2","0","eotlxm5tho6ybfs","","null","","","","null","","","SL-TRAIN","","","0","1013.5","761.3000000715256","sounds/B/TRAIN/SEQ__04.mp3","4","","","","","","","","","","","","","","","","","","","","","",""
"html-button-response","212","1084572","0.0-6.0-1.0-5.0","2","0","eotlxm5tho6ybfs","","26195.100000023842","","<p>You may take a short break if you wish.</p>","0","","","","","","","","","","","","","","","","","","","","","","","","","","","","","","","","",""
"html-keyboard-response","213","1085575","0.0-6.0-1.0-6.0","2","0","eotlxm5tho6ybfs","","null","","<p style=""font-size: 40px;"">+</p>","","null","","","","","","","","","","","","","","","","","","","","","","","","","","","","","","","",""
"html-keyboard-response","214","1270578","0.0-6.0-1.0-7.0","2","0","eotlxm5tho6ybfs","","null","","","","null","","","SL-TRAIN","","","0","1979.7999999523163","1660.8999999761581","sounds/B/TRAIN/SEQ__02.mp3","6","","","","","","","","","","","","","","","","","","","","","",""
"html-button-response","215","1274756","0.0-6.0-1.0-8.0","2","0","eotlxm5tho6ybfs","","4175.299999952316","","<p>You may take a short break if you wish.</p>","0","","","","","","","","","","","","","","","","","","","","","","","","","","","","","","","","",""
"html-keyboard-response","216","1275758","0.0-6.0-1.0-9.0","2","0","eotlxm5tho6ybfs","","null","","<p style=""font-size: 40px;"">+</p>","","null","","","","","","","","","","","","","","","","","","","","","","","","","","","","","","","",""
"html-keyboard-response","217","1460761","0.0-6.0-1.0-10.0","2","0","eotlxm5tho6ybfs","","null","","","","null","","","SL-TRAIN","","","0","1865.2999999523163","1859.1000000238419","sounds/B/TRAIN/SEQ__12.mp3","11","","","","","","","","","","","","","","","","","","","","","",""
"html-button-response","218","1464142","0.0-6.0-1.0-11.0","2","0","eotlxm5tho6ybfs","","3379.3000000715256","","<p>You may take a short break if you wish.</p>","0","","","","","","","","","","","","","","","","","","","","","","","","","","","","","","","","",""
"html-button-response","219","1475463","0.0-7.0-0.0","2","0","eotlxm5tho6ybfs","","11320.100000023842","","<p>Welcome to the second part of the study. This is a <u>familiarity task</u>.</p><p>You will now hear short sounds and will be asked to rate how familiar they sound to you <b>based on what you heard in the previous part of the study</b>.</p><p>You will rate 12 sounds in total.</p>","0","","","","","","","","","","","","","","","","","","","","","","","","","","","","","","","","",""
"html-keyboard-response","220","1476466","0.0-7.0-1.0-0.0","2","0","eotlxm5tho6ybfs","","null","","","","null","","","","","","","","","","","","","","","","","","","","","","","","","","","","","","","",""
"audio-keyboard-response","221","1477414","0.0-7.0-1.0-1.0","2","0","eotlxm5tho6ybfs","","null","","sounds/B/FAM/W002.mp3","","null","","","","","","","","","","","","","","","","","","","","","","","","","","","","","","","",""
"html-keyboard-response","222","1483304","0.0-7.0-1.0-2.0","2","0","eotlxm5tho6ybfs","","5382.300000071526","","<p>How familiar did this sound to you?</p><p>1&nbsp;&nbsp;&nbsp;&nbsp;&nbsp;&nbsp;&nbsp;&nbsp;&nbsp;&nbsp;&nbsp;&nbsp;&nbsp;&nbsp;&nbsp;&nbsp;&nbsp;&nbsp;&nbsp;2&nbsp;&nbsp;&nbsp;&nbsp;&nbsp;&nbsp;&nbsp;&nbsp;&nbsp;&nbsp;&nbsp;&nbsp;&nbsp;&nbsp;&nbsp;&nbsp;&nbsp;&nbsp;&nbsp;3&nbsp;&nbsp;&nbsp;&nbsp;&nbsp;&nbsp;&nbsp;&nbsp;&nbsp;&nbsp;&nbsp;&nbsp;&nbsp;&nbsp;&nbsp;&nbsp;&nbsp;&nbsp;&nbsp;4</p><p style=""font-size:14px"">Not at all familiar&nbsp;&nbsp;&nbsp;&nbsp;A little familiar&nbsp;&nbsp;&nbsp;Moderately familiar&nbsp;&nbsp;&nbsp;Extremely familiar</p><p>(press the corresponding number on your keyboard)</p>","","52","","","FAM-RESPONSE","","","","","","","","sounds/B/FAM/W002.mp3","word","","","","","","","","","","","","","","","","","","","",""
"html-keyboard-response","223","1485329","0.0-7.0-1.0-0.1","2","0","eotlxm5tho6ybfs","","null","","","","null","","","","","","","","","","","","","","","","","","","","","","","","","","","","","","","",""
"audio-keyboard-response","224","1486264","0.0-7.0-1.0-1.1","2","0","eotlxm5tho6ybfs","","null","","sounds/B/FAM/P002.mp3","","null","","","","","","","","","","","","","","","","","","","","","","","","","","","","","","","",""
"html-keyboard-response","225","1487907","0.0-7.0-1.0-2.1","2","0","eotlxm5tho6ybfs","","1130.1000000238419","","<p>How familiar did this sound to you?</p><p>1&nbsp;&nbsp;&nbsp;&nbsp;&nbsp;&nbsp;&nbsp;&nbsp;&nbsp;&nbsp;&nbsp;&nbsp;&nbsp;&nbsp;&nbsp;&nbsp;&nbsp;&nbsp;&nbsp;2&nbsp;&nbsp;&nbsp;&nbsp;&nbsp;&nbsp;&nbsp;&nbsp;&nbsp;&nbsp;&nbsp;&nbsp;&nbsp;&nbsp;&nbsp;&nbsp;&nbsp;&nbsp;&nbsp;3&nbsp;&nbsp;&nbsp;&nbsp;&nbsp;&nbsp;&nbsp;&nbsp;&nbsp;&nbsp;&nbsp;&nbsp;&nbsp;&nbsp;&nbsp;&nbsp;&nbsp;&nbsp;&nbsp;4</p><p style=""font-size:14px"">Not at all familiar&nbsp;&nbsp;&nbsp;&nbsp;A little familiar&nbsp;&nbsp;&nbsp;Moderately familiar&nbsp;&nbsp;&nbsp;Extremely familiar</p><p>(press the corresponding number on your keyboard)</p>","","52","","","FAM-RESPONSE","","","","","","","","sounds/B/FAM/P002.mp3","partword","","","","","","","","","","","","","","","","","","","",""
"html-keyboard-response","226","1489917","0.0-7.0-1.0-0.2","2","0","eotlxm5tho6ybfs","","null","","","","null","","","","","","","","","","","","","","","","","","","","","","","","","","","","","","","",""
"audio-keyboard-response","227","1490865","0.0-7.0-1.0-1.2","2","0","eotlxm5tho6ybfs","","null","","sounds/B/FAM/N004.mp3","","null","","","","","","","","","","","","","","","","","","","","","","","","","","","","","","","",""
"html-keyboard-response","228","1495375","0.0-7.0-1.0-2.2","2","0","eotlxm5tho6ybfs","","4001.8000000715256","","<p>How familiar did this sound to you?</p><p>1&nbsp;&nbsp;&nbsp;&nbsp;&nbsp;&nbsp;&nbsp;&nbsp;&nbsp;&nbsp;&nbsp;&nbsp;&nbsp;&nbsp;&nbsp;&nbsp;&nbsp;&nbsp;&nbsp;2&nbsp;&nbsp;&nbsp;&nbsp;&nbsp;&nbsp;&nbsp;&nbsp;&nbsp;&nbsp;&nbsp;&nbsp;&nbsp;&nbsp;&nbsp;&nbsp;&nbsp;&nbsp;&nbsp;3&nbsp;&nbsp;&nbsp;&nbsp;&nbsp;&nbsp;&nbsp;&nbsp;&nbsp;&nbsp;&nbsp;&nbsp;&nbsp;&nbsp;&nbsp;&nbsp;&nbsp;&nbsp;&nbsp;4</p><p style=""font-size:14px"">Not at all familiar&nbsp;&nbsp;&nbsp;&nbsp;A little familiar&nbsp;&nbsp;&nbsp;Moderately familiar&nbsp;&nbsp;&nbsp;Extremely familiar</p><p>(press the corresponding number on your keyboard)</p>","","50","","","FAM-RESPONSE","","","","","","","","sounds/B/FAM/N004.mp3","nonword","","","","","","","","","","","","","","","","","","","",""
"html-keyboard-response","229","1497388","0.0-7.0-1.0-0.3","2","0","eotlxm5tho6ybfs","","null","","","","null","","","","","","","","","","","","","","","","","","","","","","","","","","","","","","","",""
"audio-keyboard-response","230","1498334","0.0-7.0-1.0-1.3","2","0","eotlxm5tho6ybfs","","null","","sounds/B/FAM/W004.mp3","","null","","","","","","","","","","","","","","","","","","","","","","","","","","","","","","","",""
"html-keyboard-response","231","1503370","0.0-7.0-1.0-2.3","2","0","eotlxm5tho6ybfs","","4534.399999976158","","<p>How familiar did this sound to you?</p><p>1&nbsp;&nbsp;&nbsp;&nbsp;&nbsp;&nbsp;&nbsp;&nbsp;&nbsp;&nbsp;&nbsp;&nbsp;&nbsp;&nbsp;&nbsp;&nbsp;&nbsp;&nbsp;&nbsp;2&nbsp;&nbsp;&nbsp;&nbsp;&nbsp;&nbsp;&nbsp;&nbsp;&nbsp;&nbsp;&nbsp;&nbsp;&nbsp;&nbsp;&nbsp;&nbsp;&nbsp;&nbsp;&nbsp;3&nbsp;&nbsp;&nbsp;&nbsp;&nbsp;&nbsp;&nbsp;&nbsp;&nbsp;&nbsp;&nbsp;&nbsp;&nbsp;&nbsp;&nbsp;&nbsp;&nbsp;&nbsp;&nbsp;4</p><p style=""font-size:14px"">Not at all familiar&nbsp;&nbsp;&nbsp;&nbsp;A little familiar&nbsp;&nbsp;&nbsp;Moderately familiar&nbsp;&nbsp;&nbsp;Extremely familiar</p><p>(press the corresponding number on your keyboard)</p>","","50","","","FAM-RESPONSE","","","","","","","","sounds/B/FAM/W004.mp3","word","","","","","","","","","","","","","","","","","","","",""
"html-keyboard-response","232","1505382","0.0-7.0-1.0-0.4","2","0","eotlxm5tho6ybfs","","null","","","","null","","","","","","","","","","","","","","","","","","","","","","","","","","","","","","","",""
"audio-keyboard-response","233","1506335","0.0-7.0-1.0-1.4","2","0","eotlxm5tho6ybfs","","null","","sounds/B/FAM/N001.mp3","","null","","","","","","","","","","","","","","","","","","","","","","","","","","","","","","","",""
"html-keyboard-response","234","1509854","0.0-7.0-1.0-2.4","2","0","eotlxm5tho6ybfs","","3008.2999999523163","","<p>How familiar did this sound to you?</p><p>1&nbsp;&nbsp;&nbsp;&nbsp;&nbsp;&nbsp;&nbsp;&nbsp;&nbsp;&nbsp;&nbsp;&nbsp;&nbsp;&nbsp;&nbsp;&nbsp;&nbsp;&nbsp;&nbsp;2&nbsp;&nbsp;&nbsp;&nbsp;&nbsp;&nbsp;&nbsp;&nbsp;&nbsp;&nbsp;&nbsp;&nbsp;&nbsp;&nbsp;&nbsp;&nbsp;&nbsp;&nbsp;&nbsp;3&nbsp;&nbsp;&nbsp;&nbsp;&nbsp;&nbsp;&nbsp;&nbsp;&nbsp;&nbsp;&nbsp;&nbsp;&nbsp;&nbsp;&nbsp;&nbsp;&nbsp;&nbsp;&nbsp;4</p><p style=""font-size:14px"">Not at all familiar&nbsp;&nbsp;&nbsp;&nbsp;A little familiar&nbsp;&nbsp;&nbsp;Moderately familiar&nbsp;&nbsp;&nbsp;Extremely familiar</p><p>(press the corresponding number on your keyboard)</p>","","51","","","FAM-RESPONSE","","","","","","","","sounds/B/FAM/N001.mp3","nonword","","","","","","","","","","","","","","","","","","","",""
"html-keyboard-response","235","1511867","0.0-7.0-1.0-0.5","2","0","eotlxm5tho6ybfs","","null","","","","null","","","","","","","","","","","","","","","","","","","","","","","","","","","","","","","",""
"audio-keyboard-response","236","1512815","0.0-7.0-1.0-1.5","2","0","eotlxm5tho6ybfs","","null","","sounds/B/FAM/P003.mp3","","null","","","","","","","","","","","","","","","","","","","","","","","","","","","","","","","",""
"html-keyboard-response","237","1514448","0.0-7.0-1.0-2.5","2","0","eotlxm5tho6ybfs","","1129.2999999523163","","<p>How familiar did this sound to you?</p><p>1&nbsp;&nbsp;&nbsp;&nbsp;&nbsp;&nbsp;&nbsp;&nbsp;&nbsp;&nbsp;&nbsp;&nbsp;&nbsp;&nbsp;&nbsp;&nbsp;&nbsp;&nbsp;&nbsp;2&nbsp;&nbsp;&nbsp;&nbsp;&nbsp;&nbsp;&nbsp;&nbsp;&nbsp;&nbsp;&nbsp;&nbsp;&nbsp;&nbsp;&nbsp;&nbsp;&nbsp;&nbsp;&nbsp;3&nbsp;&nbsp;&nbsp;&nbsp;&nbsp;&nbsp;&nbsp;&nbsp;&nbsp;&nbsp;&nbsp;&nbsp;&nbsp;&nbsp;&nbsp;&nbsp;&nbsp;&nbsp;&nbsp;4</p><p style=""font-size:14px"">Not at all familiar&nbsp;&nbsp;&nbsp;&nbsp;A little familiar&nbsp;&nbsp;&nbsp;Moderately familiar&nbsp;&nbsp;&nbsp;Extremely familiar</p><p>(press the corresponding number on your keyboard)</p>","","52","","","FAM-RESPONSE","","","","","","","","sounds/B/FAM/P003.mp3","partword","","","","","","","","","","","","","","","","","","","",""
"html-keyboard-response","238","1516471","0.0-7.0-1.0-0.6","2","0","eotlxm5tho6ybfs","","null","","","","null","","","","","","","","","","","","","","","","","","","","","","","","","","","","","","","",""
"audio-keyboard-response","239","1517414","0.0-7.0-1.0-1.6","2","0","eotlxm5tho6ybfs","","null","","sounds/B/FAM/N002.mp3","","null","","","","","","","","","","","","","","","","","","","","","","","","","","","","","","","",""
"html-keyboard-response","240","1519814","0.0-7.0-1.0-2.6","2","0","eotlxm5tho6ybfs","","1882.6000000238419","","<p>How familiar did this sound to you?</p><p>1&nbsp;&nbsp;&nbsp;&nbsp;&nbsp;&nbsp;&nbsp;&nbsp;&nbsp;&nbsp;&nbsp;&nbsp;&nbsp;&nbsp;&nbsp;&nbsp;&nbsp;&nbsp;&nbsp;2&nbsp;&nbsp;&nbsp;&nbsp;&nbsp;&nbsp;&nbsp;&nbsp;&nbsp;&nbsp;&nbsp;&nbsp;&nbsp;&nbsp;&nbsp;&nbsp;&nbsp;&nbsp;&nbsp;3&nbsp;&nbsp;&nbsp;&nbsp;&nbsp;&nbsp;&nbsp;&nbsp;&nbsp;&nbsp;&nbsp;&nbsp;&nbsp;&nbsp;&nbsp;&nbsp;&nbsp;&nbsp;&nbsp;4</p><p style=""font-size:14px"">Not at all familiar&nbsp;&nbsp;&nbsp;&nbsp;A little familiar&nbsp;&nbsp;&nbsp;Moderately familiar&nbsp;&nbsp;&nbsp;Extremely familiar</p><p>(press the corresponding number on your keyboard)</p>","","51","","","FAM-RESPONSE","","","","","","","","sounds/B/FAM/N002.mp3","nonword","","","","","","","","","","","","","","","","","","","",""
"html-keyboard-response","241","1521841","0.0-7.0-1.0-0.7","2","0","eotlxm5tho6ybfs","","null","","","","null","","","","","","","","","","","","","","","","","","","","","","","","","","","","","","","",""
"audio-keyboard-response","242","1522786","0.0-7.0-1.0-1.7","2","0","eotlxm5tho6ybfs","","null","","sounds/B/FAM/N003.mp3","","null","","","","","","","","","","","","","","","","","","","","","","","","","","","","","","","",""
"html-keyboard-response","243","1524351","0.0-7.0-1.0-2.7","2","0","eotlxm5tho6ybfs","","1057.2999999523163","","<p>How familiar did this sound to you?</p><p>1&nbsp;&nbsp;&nbsp;&nbsp;&nbsp;&nbsp;&nbsp;&nbsp;&nbsp;&nbsp;&nbsp;&nbsp;&nbsp;&nbsp;&nbsp;&nbsp;&nbsp;&nbsp;&nbsp;2&nbsp;&nbsp;&nbsp;&nbsp;&nbsp;&nbsp;&nbsp;&nbsp;&nbsp;&nbsp;&nbsp;&nbsp;&nbsp;&nbsp;&nbsp;&nbsp;&nbsp;&nbsp;&nbsp;3&nbsp;&nbsp;&nbsp;&nbsp;&nbsp;&nbsp;&nbsp;&nbsp;&nbsp;&nbsp;&nbsp;&nbsp;&nbsp;&nbsp;&nbsp;&nbsp;&nbsp;&nbsp;&nbsp;4</p><p style=""font-size:14px"">Not at all familiar&nbsp;&nbsp;&nbsp;&nbsp;A little familiar&nbsp;&nbsp;&nbsp;Moderately familiar&nbsp;&nbsp;&nbsp;Extremely familiar</p><p>(press the corresponding number on your keyboard)</p>","","50","","","FAM-RESPONSE","","","","","","","","sounds/B/FAM/N003.mp3","nonword","","","","","","","","","","","","","","","","","","","",""
"html-keyboard-response","244","1526379","0.0-7.0-1.0-0.8","2","0","eotlxm5tho6ybfs","","null","","","","null","","","","","","","","","","","","","","","","","","","","","","","","","","","","","","","",""
"audio-keyboard-response","245","1527314","0.0-7.0-1.0-1.8","2","0","eotlxm5tho6ybfs","","null","","sounds/B/FAM/W003.mp3","","null","","","","","","","","","","","","","","","","","","","","","","","","","","","","","","","",""
"html-keyboard-response","246","1532078","0.0-7.0-1.0-2.8","2","0","eotlxm5tho6ybfs","","4258.5","","<p>How familiar did this sound to you?</p><p>1&nbsp;&nbsp;&nbsp;&nbsp;&nbsp;&nbsp;&nbsp;&nbsp;&nbsp;&nbsp;&nbsp;&nbsp;&nbsp;&nbsp;&nbsp;&nbsp;&nbsp;&nbsp;&nbsp;2&nbsp;&nbsp;&nbsp;&nbsp;&nbsp;&nbsp;&nbsp;&nbsp;&nbsp;&nbsp;&nbsp;&nbsp;&nbsp;&nbsp;&nbsp;&nbsp;&nbsp;&nbsp;&nbsp;3&nbsp;&nbsp;&nbsp;&nbsp;&nbsp;&nbsp;&nbsp;&nbsp;&nbsp;&nbsp;&nbsp;&nbsp;&nbsp;&nbsp;&nbsp;&nbsp;&nbsp;&nbsp;&nbsp;4</p><p style=""font-size:14px"">Not at all familiar&nbsp;&nbsp;&nbsp;&nbsp;A little familiar&nbsp;&nbsp;&nbsp;Moderately familiar&nbsp;&nbsp;&nbsp;Extremely familiar</p><p>(press the corresponding number on your keyboard)</p>","","51","","","FAM-RESPONSE","","","","","","","","sounds/B/FAM/W003.mp3","word","","","","","","","","","","","","","","","","","","","",""
"html-keyboard-response","247","1534089","0.0-7.0-1.0-0.9","2","0","eotlxm5tho6ybfs","","null","","","","null","","","","","","","","","","","","","","","","","","","","","","","","","","","","","","","",""
"audio-keyboard-response","248","1535025","0.0-7.0-1.0-1.9","2","0","eotlxm5tho6ybfs","","null","","sounds/B/FAM/W001.mp3","","null","","","","","","","","","","","","","","","","","","","","","","","","","","","","","","","",""
"html-keyboard-response","249","1536342","0.0-7.0-1.0-2.9","2","0","eotlxm5tho6ybfs","","810.1999999284744","","<p>How familiar did this sound to you?</p><p>1&nbsp;&nbsp;&nbsp;&nbsp;&nbsp;&nbsp;&nbsp;&nbsp;&nbsp;&nbsp;&nbsp;&nbsp;&nbsp;&nbsp;&nbsp;&nbsp;&nbsp;&nbsp;&nbsp;2&nbsp;&nbsp;&nbsp;&nbsp;&nbsp;&nbsp;&nbsp;&nbsp;&nbsp;&nbsp;&nbsp;&nbsp;&nbsp;&nbsp;&nbsp;&nbsp;&nbsp;&nbsp;&nbsp;3&nbsp;&nbsp;&nbsp;&nbsp;&nbsp;&nbsp;&nbsp;&nbsp;&nbsp;&nbsp;&nbsp;&nbsp;&nbsp;&nbsp;&nbsp;&nbsp;&nbsp;&nbsp;&nbsp;4</p><p style=""font-size:14px"">Not at all familiar&nbsp;&nbsp;&nbsp;&nbsp;A little familiar&nbsp;&nbsp;&nbsp;Moderately familiar&nbsp;&nbsp;&nbsp;Extremely familiar</p><p>(press the corresponding number on your keyboard)</p>","","52","","","FAM-RESPONSE","","","","","","","","sounds/B/FAM/W001.mp3","word","","","","","","","","","","","","","","","","","","","",""
"html-keyboard-response","250","1538358","0.0-7.0-1.0-0.10","2","0","eotlxm5tho6ybfs","","null","","","","null","","","","","","","","","","","","","","","","","","","","","","","","","","","","","","","",""
"audio-keyboard-response","251","1539305","0.0-7.0-1.0-1.10","2","0","eotlxm5tho6ybfs","","null","","sounds/B/FAM/P004.mp3","","null","","","","","","","","","","","","","","","","","","","","","","","","","","","","","","","",""
"html-keyboard-response","252","1542866","0.0-7.0-1.0-2.10","2","0","eotlxm5tho6ybfs","","3050.3000000715256","","<p>How familiar did this sound to you?</p><p>1&nbsp;&nbsp;&nbsp;&nbsp;&nbsp;&nbsp;&nbsp;&nbsp;&nbsp;&nbsp;&nbsp;&nbsp;&nbsp;&nbsp;&nbsp;&nbsp;&nbsp;&nbsp;&nbsp;2&nbsp;&nbsp;&nbsp;&nbsp;&nbsp;&nbsp;&nbsp;&nbsp;&nbsp;&nbsp;&nbsp;&nbsp;&nbsp;&nbsp;&nbsp;&nbsp;&nbsp;&nbsp;&nbsp;3&nbsp;&nbsp;&nbsp;&nbsp;&nbsp;&nbsp;&nbsp;&nbsp;&nbsp;&nbsp;&nbsp;&nbsp;&nbsp;&nbsp;&nbsp;&nbsp;&nbsp;&nbsp;&nbsp;4</p><p style=""font-size:14px"">Not at all familiar&nbsp;&nbsp;&nbsp;&nbsp;A little familiar&nbsp;&nbsp;&nbsp;Moderately familiar&nbsp;&nbsp;&nbsp;Extremely familiar</p><p>(press the corresponding number on your keyboard)</p>","","51","","","FAM-RESPONSE","","","","","","","","sounds/B/FAM/P004.mp3","partword","","","","","","","","","","","","","","","","","","","",""
"html-keyboard-response","253","1544891","0.0-7.0-1.0-0.11","2","0","eotlxm5tho6ybfs","","null","","","","null","","","","","","","","","","","","","","","","","","","","","","","","","","","","","","","",""
"audio-keyboard-response","254","1545826","0.0-7.0-1.0-1.11","2","0","eotlxm5tho6ybfs","","null","","sounds/B/FAM/P001.mp3","","null","","","","","","","","","","","","","","","","","","","","","","","","","","","","","","","",""
"html-keyboard-response","255","1548853","0.0-7.0-1.0-2.11","2","0","eotlxm5tho6ybfs","","2519.8000000715256","","<p>How familiar did this sound to you?</p><p>1&nbsp;&nbsp;&nbsp;&nbsp;&nbsp;&nbsp;&nbsp;&nbsp;&nbsp;&nbsp;&nbsp;&nbsp;&nbsp;&nbsp;&nbsp;&nbsp;&nbsp;&nbsp;&nbsp;2&nbsp;&nbsp;&nbsp;&nbsp;&nbsp;&nbsp;&nbsp;&nbsp;&nbsp;&nbsp;&nbsp;&nbsp;&nbsp;&nbsp;&nbsp;&nbsp;&nbsp;&nbsp;&nbsp;3&nbsp;&nbsp;&nbsp;&nbsp;&nbsp;&nbsp;&nbsp;&nbsp;&nbsp;&nbsp;&nbsp;&nbsp;&nbsp;&nbsp;&nbsp;&nbsp;&nbsp;&nbsp;&nbsp;4</p><p style=""font-size:14px"">Not at all familiar&nbsp;&nbsp;&nbsp;&nbsp;A little familiar&nbsp;&nbsp;&nbsp;Moderately familiar&nbsp;&nbsp;&nbsp;Extremely familiar</p><p>(press the corresponding number on your keyboard)</p>","","50","","","FAM-RESPONSE","","","","","","","","sounds/B/FAM/P001.mp3","partword","","","","","","","","","","","","","","","","","","","",""
"html-button-response","256","1581507","0.0-8.0-0.0","2","0","eotlxm5tho6ybfs","","31643.600000023842","","<p>You will now listen to longer sound sequences.</p><p>Each sound sequence will last about 16 seconds.</p><p>On each trial, you will be given a <u>TARGET SOUND</u>. Your task is to listen very carefully for this sound.</p><p>Every time you hear the <u>TARGET SOUND</u>, you will press the <b>SPACEBAR</b> as quickly and accurately as you can.</p>","0","","","","","","","","","","","","","","","","","","","","","","","","","","","","","","","","",""
"html-button-response","257","1594097","0.0-8.0-1.0","2","0","eotlxm5tho6ybfs","","12336.200000047684","","<p>It is very important that you make your responses as quickly and accurately as possible.</p><p>To help you make your responses, you will be able to listen to the <u>TARGET SOUND</u> at the beginning of each trial.</p><p>There will be 36 total trials.</p><p><b>Note: This is meant to be a difficult task. We simply want you to try your best.</p>","0","","","","","","","","","","","","","","","","","","","","","","","","","","","","","","","","",""
"html-button-response","258","1597438","0.0-8.0-2.0-0.0","2","0","eotlxm5tho6ybfs","","3085.2000000476837","","<p>Trial 1 of 36</p>","0","","","","","","","","","","","","","","TI","sounds/syllables/ti_SWS.wav","900,2700,5400,10800","1","","","","","","","","","","","","","","","",""
"html-keyboard-response","259","1602438","0.0-8.0-2.0-1.0","2","0","eotlxm5tho6ybfs","","4998.399999976158","","","","80","","","","","","","","","","","","","TI","","900,2700,5400,10800","1","","","","","","","","","","","","","","","",""
"audio-keyboard-response","260","1603118","0.0-8.0-2.0-2.0-0.0","2","0","eotlxm5tho6ybfs","","null","","sounds/syllables/ti_SWS.wav","","null","","","","","","","","","","","","","","","","","","","","","","","","","","","","","","","",""
"html-keyboard-response","261","1607116","0.0-8.0-2.0-2.0-1.0","2","0","eotlxm5tho6ybfs","","3997.1999999284744","","<p>To replay the <u>TARGET SOUND</u>, press P.</p> When you are ready to begin, press SPACEBAR.","","32","","","","","","","","","","","","","","","","","","","","","","","","","","","","","","","",""
"audio-keyboard-response","262","1622068","0.0-8.0-2.0-3.0","2","0","eotlxm5tho6ybfs","","1400","","sounds/B/TD/TI_05_TD.mp3","","32","","","TD_SUMMARY","","","","","","","","","","TI","","900,2700,5400,10800","1","900","2700","5400","10800","501.89999997615814","571.7999999523163","null","270.89999997615814","1401.8999999761581_3271.7999999523163_5407.199999928474_11070.899999976158_12546.299999952316_14190","1","","","","","",""
"html-button-response","263","1625629","0.0-8.0-2.0-0.1","2","0","eotlxm5tho6ybfs","","3557.899999976158","","<p>Trial 2 of 36</p>","0","","","","","","","","","","","","","","GE","sounds/syllables/ge_SWS.wav","2700,6300,8100,10800","1","","","","","","","","","","","","","","","",""
"html-keyboard-response","264","1627056","0.0-8.0-2.0-1.1","2","0","eotlxm5tho6ybfs","","1425.7000000476837","","","","80","","","","","","","","","","","","","GE","","2700,6300,8100,10800","1","","","","","","","","","","","","","","","",""
"audio-keyboard-response","265","1627358","0.0-8.0-2.0-2.1-0.1","2","0","eotlxm5tho6ybfs","","null","","sounds/syllables/ge_SWS.wav","","null","","","","","","","","","","","","","","","","","","","","","","","","","","","","","","","",""
"html-keyboard-response","266","1630037","0.0-8.0-2.0-2.1-1.1","2","0","eotlxm5tho6ybfs","","2678.7000000476837","","<p>To replay the <u>TARGET SOUND</u>, press P.</p> When you are ready to begin, press SPACEBAR.","","32","","","","","","","","","","","","","","","","","","","","","","","","","","","","","","","",""
"audio-keyboard-response","267","1644999","0.0-8.0-2.0-3.1","2","0","eotlxm5tho6ybfs","","2221","","sounds/B/TD/GE_03_TD.mp3","","32","","","TD_SUMMARY","","","","","","","","","","GE","","2700,6300,8100,10800","1","2700","6300","8100","10800","1144.8999999761581","581","1176.6000000238419","990.6000000238419","______2214.2000000476837_3357.5_3844.899999976158_6881_9276.600000023842_9514.899999976158_11382.600000023842_11790.600000023842","1","","","","","",""
"html-button-response","268","1646250","0.0-8.0-2.0-0.2","2","0","eotlxm5tho6ybfs","","1248.3999999761581","","<p>Trial 3 of 36</p>","0","","","","","","","","","","","","","","RE","sounds/syllables/re_SWS.wav","3300,5100,7800,9600","3","","","","","","","","","","","","","","","",""
"html-keyboard-response","269","1647505","0.0-8.0-2.0-1.2","2","0","eotlxm5tho6ybfs","","1252.9000000953674","","","","80","","","","","","","","","","","","","RE","","3300,5100,7800,9600","3","","","","","","","","","","","","","","","",""
"audio-keyboard-response","270","1647798","0.0-8.0-2.0-2.2-0.2","2","0","eotlxm5tho6ybfs","","null","","sounds/syllables/re_SWS.wav","","null","","","","","","","","","","","","","","","","","","","","","","","","","","","","","","","",""
"html-keyboard-response","271","1650736","0.0-8.0-2.0-2.2-1.2","2","0","eotlxm5tho6ybfs","","2937.5","","<p>To replay the <u>TARGET SOUND</u>, press P.</p> When you are ready to begin, press SPACEBAR.","","32","","","","","","","","","","","","","","","","","","","","","","","","","","","","","","","",""
"audio-keyboard-response","272","1665688","0.0-8.0-2.0-3.2","2","0","eotlxm5tho6ybfs","","2019","","sounds/B/TD/RE_05_TD.mp3","","32","","","TD_SUMMARY","","","","","","","","","","RE","","3300,5100,7800,9600","3","3300","5100","7800","9600","593.8999999761581","558.5999999046326","897.5","null","______________2021.1999999284744_3183.5999999046326_3893.899999976158_5418.399999976158_5658.599999904633_6876_8697.5_9009.099999904633_13187.899999976158_13428.299999952316","1","","","","","",""
"html-button-response","273","1666662","0.0-8.0-2.0-0.3","2","0","eotlxm5tho6ybfs","","971.1000000238419","","<p>Trial 4 of 36</p>","0","","","","","","","","","","","","","","KO","sounds/syllables/ko_SWS.wav","2100,3900,5700,12000","2","","","","","","","","","","","","","","","",""
"html-keyboard-response","274","1668546","0.0-8.0-2.0-1.3","2","0","eotlxm5tho6ybfs","","1882.7999999523163","","","","80","","","","","","","","","","","","","KO","","2100,3900,5700,12000","2","","","","","","","","","","","","","","","",""
"audio-keyboard-response","275","1668837","0.0-8.0-2.0-2.3-0.3","2","0","eotlxm5tho6ybfs","","null","","sounds/syllables/ko_SWS.wav","","null","","","","","","","","","","","","","","","","","","","","","","","","","","","","","","","",""
"html-keyboard-response","276","1671339","0.0-8.0-2.0-2.3-1.3","2","0","eotlxm5tho6ybfs","","2501","","<p>To replay the <u>TARGET SOUND</u>, press P.</p> When you are ready to begin, press SPACEBAR.","","32","","","","","","","","","","","","","","","","","","","","","","","","","","","","","","","",""
"audio-keyboard-response","277","1686288","0.0-8.0-2.0-3.3","2","0","eotlxm5tho6ybfs","","1339","","sounds/B/TD/KO_07_TD.mp3","","32","","","TD_SUMMARY","","","","","","","","","","KO","","2100,3900,5700,12000","2","2100","3900","5700","12000","884.2999999523163","null","1022.0999999046326","null","________________________1333.5_2811.7999999523163_2984.2999999523163_3801.899999976158_5233.699999928474_6418.899999976158_6722.099999904633_7288.5_7597.599999904633_8801.599999904633_9074.299999952316_11344_13699.299999952316_14006.699999928474","1","","","","","",""
"html-button-response","278","1687572","0.0-8.0-2.0-0.4","2","0","eotlxm5tho6ybfs","","1280.6000000238419","","<p>Trial 5 of 36</p>","0","","","","","","","","","","","","","","FU","sounds/syllables/fu_SWS.wav","900,4500,7200,11700","1","","","","","","","","","","","","","","","",""
"html-keyboard-response","279","1689914","0.0-8.0-2.0-1.4","2","0","eotlxm5tho6ybfs","","2341","","","","80","","","","","","","","","","","","","FU","","900,4500,7200,11700","1","","","","","","","","","","","","","","","",""
"audio-keyboard-response","280","1690207","0.0-8.0-2.0-2.4-0.4","2","0","eotlxm5tho6ybfs","","null","","sounds/syllables/fu_SWS.wav","","null","","","","","","","","","","","","","","","","","","","","","","","","","","","","","","","",""
"html-keyboard-response","281","1691968","0.0-8.0-2.0-2.4-1.4","2","0","eotlxm5tho6ybfs","","1760.8000000715256","","<p>To replay the <u>TARGET SOUND</u>, press P.</p> When you are ready to begin, press SPACEBAR.","","32","","","","","","","","","","","","","","","","","","","","","","","","","","","","","","","",""
"audio-keyboard-response","282","1706918","0.0-8.0-2.0-3.4","2","0","eotlxm5tho6ybfs","","1731","","sounds/B/TD/FU_06_TD.mp3","","32","","","TD_SUMMARY","","","","","","","","","","FU","","900,4500,7200,11700","1","900","4500","7200","11700","833.1999999284744","547.6999999284744","null","null","______________________________________1733.1999999284744_3544.5_5047.699999928474_6716.5_6931.399999976158_8783.599999904633_9030.299999952316_11215_13112.599999904633_14259.299999952316","1","","","","","",""
"html-button-response","283","1708464","0.0-8.0-2.0-0.5","2","0","eotlxm5tho6ybfs","","1543.3999999761581","","<p>Trial 6 of 36</p>","0","","","","","","","","","","","","","","RU","sounds/syllables/ru_SWS.wav","1500,4200,6900,12300","3","","","","","","","","","","","","","","","",""
"html-keyboard-response","284","1711338","0.0-8.0-2.0-1.5","2","0","eotlxm5tho6ybfs","","2873.100000023842","","","","80","","","","","","","","","","","","","RU","","1500,4200,6900,12300","3","","","","","","","","","","","","","","","",""
"audio-keyboard-response","285","1711639","0.0-8.0-2.0-2.5-0.5","2","0","eotlxm5tho6ybfs","","null","","sounds/syllables/ru_SWS.wav","","null","","","","","","","","","","","","","","","","","","","","","","","","","","","","","","","",""
"html-keyboard-response","286","1712630","0.0-8.0-2.0-2.5-1.5","2","0","eotlxm5tho6ybfs","","989.5","","<p>To replay the <u>TARGET SOUND</u>, press P.</p> When you are ready to begin, press SPACEBAR.","","32","","","","","","","","","","","","","","","","","","","","","","","","","","","","","","","",""
"audio-keyboard-response","287","1727589","0.0-8.0-2.0-3.5","2","0","eotlxm5tho6ybfs","","1581","","sounds/B/TD/RU_02_TD.mp3","","32","","","TD_SUMMARY","","","","","","","","","","RU","","1500,4200,6900,12300","3","1500","4200","6900","12300","280.90000009536743","null","null","205.30000007152557","________________________________________________1580.8000000715256_1780.9000000953674_3000.5_4233.700000047684_5429.5_6959.400000095367_8390.800000071526_10006.5_12505.300000071526_13639.700000047684","1","","","","","",""
"html-button-response","288","1730181","0.0-8.0-2.0-0.6","2","0","eotlxm5tho6ybfs","","2589.7000000476837","","<p>Trial 7 of 36</p>","0","","","","","","","","","","","","","","ME","sounds/syllables/me_SWS.wav","2100,3900,8400,12000","2","","","","","","","","","","","","","","","",""
"html-keyboard-response","289","1734573","0.0-8.0-2.0-1.6","2","0","eotlxm5tho6ybfs","","4390.299999952316","","","","80","","","","","","","","","","","","","ME","","2100,3900,8400,12000","2","","","","","","","","","","","","","","","",""
"audio-keyboard-response","290","1734878","0.0-8.0-2.0-2.6-0.6","2","0","eotlxm5tho6ybfs","","null","","sounds/syllables/me_SWS.wav","","null","","","","","","","","","","","","","","","","","","","","","","","","","","","","","","","",""
"html-keyboard-response","291","1737096","0.0-8.0-2.0-2.6-1.6","2","0","eotlxm5tho6ybfs","","2217.2999999523163","","<p>To replay the <u>TARGET SOUND</u>, press P.</p> When you are ready to begin, press SPACEBAR.","","32","","","","","","","","","","","","","","","","","","","","","","","","","","","","","","","",""
"audio-keyboard-response","292","1752047","0.0-8.0-2.0-3.6","2","0","eotlxm5tho6ybfs","","2320","","sounds/B/TD/ME_06_TD.mp3","","32","","","TD_SUMMARY","","","","","","","","","","ME","","2100,3900,8400,12000","2","2100","3900","8400","12000","562.7999999523163","1126.2999999523163","815.6000000238419","null","__________________________________________________________2327.399999976158_2662.7999999523163_4767.100000023842_5026.299999952316_8248.100000023842_9215.600000023842_11356.199999928474_14299.600000023842","1","","","","","",""
"html-button-response","293","1753213","0.0-8.0-2.0-0.7","2","0","eotlxm5tho6ybfs","","1162.6999999284744","","<p>Trial 8 of 36</p>","0","","","","","","","","","","","","","","NI","sounds/syllables/ni_SWS.wav","4800,6600,8400,11100","2","","","","","","","","","","","","","","","",""
"html-keyboard-response","294","1757529","0.0-8.0-2.0-1.7","2","0","eotlxm5tho6ybfs","","4314","","","","80","","","","","","","","","","","","","NI","","4800,6600,8400,11100","2","","","","","","","","","","","","","","","",""
"audio-keyboard-response","295","1757838","0.0-8.0-2.0-2.7-0.7","2","0","eotlxm5tho6ybfs","","null","","sounds/syllables/ni_SWS.wav","","null","","","","","","","","","","","","","","","","","","","","","","","","","","","","","","","",""
"html-keyboard-response","296","1760305","0.0-8.0-2.0-2.7-1.7","2","0","eotlxm5tho6ybfs","","2466.2999999523163","","<p>To replay the <u>TARGET SOUND</u>, press P.</p> When you are ready to begin, press SPACEBAR.","","32","","","","","","","","","","","","","","","","","","","","","","","","","","","","","","","",""
"audio-keyboard-response","297","1775268","0.0-8.0-2.0-3.7","2","0","eotlxm5tho6ybfs","","632","","sounds/B/TD/NI_03_TD.mp3","","32","","","TD_SUMMARY","","","","","","","","","","NI","","4800,6600,8400,11100","2","4800","6600","8400","11100","636.3999999761581","940.6000000238419","772.2000000476837","955.6000000238419","__________________________________________________________________639_2272.100000023842_5436.399999976158_6027.399999976158_6982_7540.600000023842_8772.700000047684_9172.200000047684_10508.399999976158_11586.100000023842_12055.600000023842","1","","","","","",""
"html-button-response","298","1776549","0.0-8.0-2.0-0.8","2","0","eotlxm5tho6ybfs","","1277.5999999046326","","<p>Trial 9 of 36</p>","0","","","","","","","","","","","","","","NI","sounds/syllables/ni_SWS.wav","1200,3900,6600,11100","2","","","","","","","","","","","","","","","",""
"html-keyboard-response","299","1778158","0.0-8.0-2.0-1.8","2","0","eotlxm5tho6ybfs","","1608.2999999523163","","","","80","","","","","","","","","","","","","NI","","1200,3900,6600,11100","2","","","","","","","","","","","","","","","",""
"audio-keyboard-response","300","1778468","0.0-8.0-2.0-2.8-0.8","2","0","eotlxm5tho6ybfs","","null","","sounds/syllables/ni_SWS.wav","","null","","","","","","","","","","","","","","","","","","","","","","","","","","","","","","","",""
"html-keyboard-response","301","1779882","0.0-8.0-2.0-2.8-1.8","2","0","eotlxm5tho6ybfs","","1413.1000000238419","","<p>To replay the <u>TARGET SOUND</u>, press P.</p> When you are ready to begin, press SPACEBAR.","","32","","","","","","","","","","","","","","","","","","","","","","","","","","","","","","","",""
"audio-keyboard-response","302","1794838","0.0-8.0-2.0-3.8","2","0","eotlxm5tho6ybfs","","600","","sounds/B/TD/NI_01_TD.mp3","","32","","","TD_SUMMARY","","","","","","","","","","NI","","1200,3900,6600,11100","2","1200","3900","6600","11100","481.6999999284744","356.39999997615814","454.6999999284744","768.2999999523163","_____________________________________________________________________________601.7999999523163_1681.6999999284744_4256.399999976158_7054.699999928474_7880.199999928474_10561.199999928474_11868.299999952316_13185.5_14099.100000023842","1","","","","","",""
"html-button-response","303","1797989","0.0-8.0-2.0-0.9","2","0","eotlxm5tho6ybfs","","3148.100000023842","","<p>Trial 10 of 36</p>","0","","","","","","","","","","","","","","TA","sounds/syllables/ta_SWS.wav","2400,4200,6000,10500","3","","","","","","","","","","","","","","","",""
"html-keyboard-response","304","1860398","0.0-8.0-2.0-1.9","2","0","eotlxm5tho6ybfs","","62408.89999997616","","","","80","","","","","","","","","","","","","TA","","2400,4200,6000,10500","3","","","","","","","","","","","","","","","",""
"audio-keyboard-response","305","1861102","0.0-8.0-2.0-2.9-0.9","2","0","eotlxm5tho6ybfs","","null","","sounds/syllables/ta_SWS.wav","","null","","","","","","","","","","","","","","","","","","","","","","","","","","","","","","","",""
"html-keyboard-response","306","1862073","0.0-8.0-2.0-2.9-1.9","2","0","eotlxm5tho6ybfs","","969.9000000953674","","<p>To replay the <u>TARGET SOUND</u>, press P.</p> When you are ready to begin, press SPACEBAR.","","32","","","","","","","","","","","","","","","","","","","","","","","","","","","","","","","",""
"audio-keyboard-response","307","1877022","0.0-8.0-2.0-3.9","2","0","eotlxm5tho6ybfs","","1920","","sounds/B/TD/TA_06_TD.mp3","","32","","","TD_SUMMARY","","","","","","","","","","TA","","2400,4200,6000,10500","3","2400","4200","6000","10500","594","null","979.3000000715256","null","______________________________________________________________________________________1913.8000000715256_2994_6979.300000071526_7442.700000047684_8230.300000071526_8866.300000071526_9647.600000023842_10659.800000071526_11714.5_12923.700000047684","1","","","","","",""
"html-button-response","308","1885465","0.0-8.0-2.0-0.10","2","0","eotlxm5tho6ybfs","","8439.700000047684","","<p>Trial 11 of 36</p>","0","","","","","","","","","","","","","","RE","sounds/syllables/re_SWS.wav","1500,3300,7800,13200","3","","","","","","","","","","","","","","","",""
"html-keyboard-response","309","1886432","0.0-8.0-2.0-1.10","2","0","eotlxm5tho6ybfs","","964.2999999523163","","","","80","","","","","","","","","","","","","RE","","1500,3300,7800,13200","3","","","","","","","","","","","","","","","",""
"audio-keyboard-response","310","1886741","0.0-8.0-2.0-2.10-0.10","2","0","eotlxm5tho6ybfs","","null","","sounds/syllables/re_SWS.wav","","null","","","","","","","","","","","","","","","","","","","","","","","","","","","","","","","",""
"html-keyboard-response","311","1905971","0.0-8.0-2.0-2.10-1.10","2","0","eotlxm5tho6ybfs","","19229.800000071526","","<p>To replay the <u>TARGET SOUND</u>, press P.</p> When you are ready to begin, press SPACEBAR.","","80","","","","","","","","","","","","","","","","","","","","","","","","","","","","","","","",""
"audio-keyboard-response","312","1906782","0.0-8.0-2.0-2.11-0.11","2","0","eotlxm5tho6ybfs","","null","","sounds/syllables/re_SWS.wav","","null","","","","","","","","","","","","","","","","","","","","","","","","","","","","","","","",""
"html-keyboard-response","313","1909919","0.0-8.0-2.0-2.11-1.11","2","0","eotlxm5tho6ybfs","","3136.399999976158","","<p>To replay the <u>TARGET SOUND</u>, press P.</p> When you are ready to begin, press SPACEBAR.","","32","","","","","","","","","","","","","","","","","","","","","","","","","","","","","","","",""
"audio-keyboard-response","314","1924873","0.0-8.0-2.0-3.10","2","0","eotlxm5tho6ybfs","","1360","","sounds/B/TD/RE_08_TD.mp3","","32","","","TD_SUMMARY","","","","","","","","","","RE","","1500,3300,7800,13200","3","1500","3300","7800","13200","735.8999999761581","260.5","308","273.1999999284744","________________________________________________________________________________________________1356.7999999523163_2235.899999976158_3310.1999999284744_3560.5_6188.299999952316_7921.599999904633_8108_13315.299999952316_13473.199999928474","2","","","","","",""
"html-button-response","315","1926139","0.0-8.0-2.0-0.11","2","0","eotlxm5tho6ybfs","","1262.3000000715256","","<p>Trial 12 of 36</p>","0","","","","","","","","","","","","","","GE","sounds/syllables/ge_SWS.wav","1800,5400,8100,12600","1","","","","","","","","","","","","","","","",""
"html-keyboard-response","316","1927361","0.0-8.0-2.0-1.11","2","0","eotlxm5tho6ybfs","","1221","","","","80","","","","","","","","","","","","","GE","","1800,5400,8100,12600","1","","","","","","","","","","","","","","","",""
"audio-keyboard-response","317","1927663","0.0-8.0-2.0-2.12-0.12","2","0","eotlxm5tho6ybfs","","null","","sounds/syllables/ge_SWS.wav","","null","","","","","","","","","","","","","","","","","","","","","","","","","","","","","","","",""
"html-keyboard-response","318","1928945","0.0-8.0-2.0-2.12-1.12","2","0","eotlxm5tho6ybfs","","1280.8999999761581","","<p>To replay the <u>TARGET SOUND</u>, press P.</p> When you are ready to begin, press SPACEBAR.","","32","","","","","","","","","","","","","","","","","","","","","","","","","","","","","","","",""
"audio-keyboard-response","319","1943892","0.0-8.0-2.0-3.11","2","0","eotlxm5tho6ybfs","","1992","","sounds/B/TD/GE_06_TD.mp3","","32","","","TD_SUMMARY","","","","","","","","","","GE","","1800,5400,8100,12600","1","1800","5400","8100","12600","851","700.3999999761581","536.7999999523163","969.5","_________________________________________________________________________________________________________1982.0999999046326_2651_5752.399999976158_5899.5_6100.399999976158_8452.5_8636.799999952316_11501.699999928474_11666.399999976158_12072.5_13381.5_13569.5","1","","","","","",""
"html-button-response","320","1946852","0.0-8.0-2.0-0.12","2","0","eotlxm5tho6ybfs","","2956.7999999523163","","<p>Trial 13 of 36</p>","0","","","","","","","","","","","","","","FE","sounds/syllables/fe_SWS.wav","2400,4200,8700,10500","3","","","","","","","","","","","","","","","",""
"html-keyboard-response","321","1950208","0.0-8.0-2.0-1.12","2","0","eotlxm5tho6ybfs","","3354.1999999284744","","","","80","","","","","","","","","","","","","FE","","2400,4200,8700,10500","3","","","","","","","","","","","","","","","",""
"audio-keyboard-response","322","1950501","0.0-8.0-2.0-2.13-0.13","2","0","eotlxm5tho6ybfs","","null","","sounds/syllables/fe_SWS.wav","","null","","","","","","","","","","","","","","","","","","","","","","","","","","","","","","","",""
"html-keyboard-response","323","1952336","0.0-8.0-2.0-2.13-1.13","2","0","eotlxm5tho6ybfs","","1833.2000000476837","","<p>To replay the <u>TARGET SOUND</u>, press P.</p> When you are ready to begin, press SPACEBAR.","","32","","","","","","","","","","","","","","","","","","","","","","","","","","","","","","","",""
"audio-keyboard-response","324","1967283","0.0-8.0-2.0-3.12","2","0","eotlxm5tho6ybfs","","1320","","sounds/B/TD/FE_04_TD.mp3","","32","","","TD_SUMMARY","","","","","","","","","","FE","","2400,4200,8700,10500","3","2400","4200","8700","10500","null","null","737.2999999523163","533.7999999523163","_____________________________________________________________________________________________________________________1318.2999999523163_1577.5_1774.5_4246.799999952316_5904.199999928474_7252.399999976158_8822.5_9437.299999952316_10733_11033.799999952316_13026.5_13340.599999904633","1","","","","","",""
"html-button-response","325","1968567","0.0-8.0-2.0-0.13","2","0","eotlxm5tho6ybfs","","1281.0999999046326","","<p>Trial 14 of 36</p>","0","","","","","","","","","","","","","","FU","sounds/syllables/fu_SWS.wav","900,6300,8100,12600","1","","","","","","","","","","","","","","","",""
"html-keyboard-response","326","1970024","0.0-8.0-2.0-1.13","2","0","eotlxm5tho6ybfs","","1456.2999999523163","","","","80","","","","","","","","","","","","","FU","","900,6300,8100,12600","1","","","","","","","","","","","","","","","",""
"audio-keyboard-response","327","1970332","0.0-8.0-2.0-2.14-0.14","2","0","eotlxm5tho6ybfs","","null","","sounds/syllables/fu_SWS.wav","","null","","","","","","","","","","","","","","","","","","","","","","","","","","","","","","","",""
"html-keyboard-response","328","1971933","0.0-8.0-2.0-2.14-1.14","2","0","eotlxm5tho6ybfs","","1599.5","","<p>To replay the <u>TARGET SOUND</u>, press P.</p> When you are ready to begin, press SPACEBAR.","","32","","","","","","","","","","","","","","","","","","","","","","","","","","","","","","","",""
"audio-keyboard-response","329","1986883","0.0-8.0-2.0-3.13","2","0","eotlxm5tho6ybfs","","1168","","sounds/B/TD/FU_04_TD.mp3","","32","","","TD_SUMMARY","","","","","","","","","","FU","","900,6300,8100,12600","1","900","6300","8100","12600","819.7000000476837","601.6000000238419","778.7999999523163","null","_________________________________________________________________________________________________________________________________1167_1719.7000000476837_2507_3146.399999976158_4126.399999976158_4481.899999976158_5884.899999976158_6901.600000023842_7518.5_8878.799999952316_9701.799999952316_10397.200000047684_12224.200000047684_12609.100000023842","1","","","","","",""
"html-button-response","330","1987941","0.0-8.0-2.0-0.14","2","0","eotlxm5tho6ybfs","","1054.6000000238419","","<p>Trial 15 of 36</p>","0","","","","","","","","","","","","","","SU","sounds/syllables/su_SWS.wav","2100,4800,9300,12900","2","","","","","","","","","","","","","","","",""
