"trial_type","trial_index","time_elapsed","internal_node_id","counterbalance","lang_instruct","ParticipantID","view_history","rt","url","stimulus","button_pressed","key_press","correctRESP","correct","designation","location","correctanswer","timeouts","pause_rt01","pause_rt02","train_file","numKeyPress","sound","fam_type","SYLLABLE","EXEMPLAR","TD_LOCS","TD_TYPE","TDLOC_01","TDLOC_02","TDLOC_03","TDLOC_04","TD_RT_01","TD_RT_02","TD_RT_03","TD_RT_04","TD_SUBJ_RTs","number_of_plays","responses","slider_start","response","question_order","syllable","syllable_type"
"pavlovia","0","3","0.0-0.0","3","0","n6snaq4jc4j5x5g","","","","","","","","","","","","","","","","","","","","","","","","","","","","","","","","","","","","","",""
"instructions","1","174114","0.0-1.0","3","0","n6snaq4jc4j5x5g","[{""page_index"":0,""viewing_time"":61741.699999928474},{""page_index"":1,""viewing_time"":112366}]","174113.29999995232","","","","","","","","","","","","","","","","","","","","","","","","","","","","","","","","","","","",""
"external-html","2","327393","0.0-2.0","3","0","n6snaq4jc4j5x5g","","153066.30000007153","consent/consent.html","","","","","","","","","","","","","","","","","","","","","","","","","","","","","","","","","","",""
"html-button-response","3","401934","0.0-3.0-0.0-0.0","3","0","n6snaq4jc4j5x5g","","74503","","<p>Welcome to the study. You will first complete a short volume calibration and headphone check.</p><p>Please make sure you are in a quiet listening environment, that you are wearing headphones, and that your computer's volume is turned on.<p></p>","0","","","","","","","","","","","","","","","","","","","","","","","","","","","","","","","","",""
"html-button-response","4","406476","0.0-3.0-0.0-1.0","3","0","n6snaq4jc4j5x5g","","4283.399999976158","","<p>The volume calibration will be first.</p><p>You will hear a thirty-second noise. Please adjust your computer's volume so that this noise is being presented at a comfortable level.<p></p>","0","","","","","","","","","","","","","","","","","","","","","","","","","","","","","","","","",""
"audio-button-response","5","436739","0.0-3.0-0.0-2.0","3","0","n6snaq4jc4j5x5g","","null","","audCalib/volumetest.mp3","null","","","","","","","","","","","","","","","","","","","","","","","","","","","","","","","","",""
"html-button-response","6","454323","0.0-3.0-1.0-0.0","3","0","n6snaq4jc4j5x5g","","17582.799999952316","","<p>You will now complete a short headphone check.</p><p>On each trial, you will hear three tones. One of these tones will be quieter than the others. Your task is to identify whether the quiet tone occured first, second, or third.</p><p>There are six trials in total.<p></p>","0","","","","","","","","","","","","","","","","","","","","","","","","","","","","","","","","",""
"html-keyboard-response","7","455081","0.0-3.0-1.0-1.0-0.0","3","0","n6snaq4jc4j5x5g","","null","","<div style=""font-size:60px;"">+</div>","","null","","","","","","","","","","","","","","","","","","","","","","","","","","","","","","","",""
"audio-button-response","8","462454","0.0-3.0-1.0-1.0-1.0","3","0","n6snaq4jc4j5x5g","","7365","","audCalib/t3_1.mp3","2","","2","1","headphone-test","","","","","","","","","","","","","","","","","","","","","","","","","","","","",""
"html-keyboard-response","9","463210","0.0-3.0-1.0-1.0-0.1","3","0","n6snaq4jc4j5x5g","","null","","<div style=""font-size:60px;"">+</div>","","null","","","","","","","","","","","","","","","","","","","","","","","","","","","","","","","",""
"audio-button-response","10","469597","0.0-3.0-1.0-1.0-1.1","3","0","n6snaq4jc4j5x5g","","6389","","audCalib/t2_2.mp3","1","","1","1","headphone-test","","","","","","","","","","","","","","","","","","","","","","","","","","","","",""
"html-keyboard-response","11","470353","0.0-3.0-1.0-1.0-0.2","3","0","n6snaq4jc4j5x5g","","null","","<div style=""font-size:60px;"">+</div>","","null","","","","","","","","","","","","","","","","","","","","","","","","","","","","","","","",""
"audio-button-response","12","476587","0.0-3.0-1.0-1.0-1.2","3","0","n6snaq4jc4j5x5g","","6229","","audCalib/t2_1.mp3","1","","1","1","headphone-test","","","","","","","","","","","","","","","","","","","","","","","","","","","","",""
"html-keyboard-response","13","477340","0.0-3.0-1.0-1.0-0.3","3","0","n6snaq4jc4j5x5g","","null","","<div style=""font-size:60px;"">+</div>","","null","","","","","","","","","","","","","","","","","","","","","","","","","","","","","","","",""
"audio-button-response","14","483138","0.0-3.0-1.0-1.0-1.3","3","0","n6snaq4jc4j5x5g","","5797","","audCalib/t1_2.mp3","0","","0","1","headphone-test","","","","","","","","","","","","","","","","","","","","","","","","","","","","",""
"html-keyboard-response","15","483894","0.0-3.0-1.0-1.0-0.4","3","0","n6snaq4jc4j5x5g","","null","","<div style=""font-size:60px;"">+</div>","","null","","","","","","","","","","","","","","","","","","","","","","","","","","","","","","","",""
"audio-button-response","16","489864","0.0-3.0-1.0-1.0-1.4","3","0","n6snaq4jc4j5x5g","","5968","","audCalib/t3_2.mp3","2","","2","1","headphone-test","","","","","","","","","","","","","","","","","","","","","","","","","","","","",""
"html-keyboard-response","17","490620","0.0-3.0-1.0-1.0-0.5","3","0","n6snaq4jc4j5x5g","","null","","<div style=""font-size:60px;"">+</div>","","null","","","","","","","","","","","","","","","","","","","","","","","","","","","","","","","",""
"audio-button-response","18","497332","0.0-3.0-1.0-1.0-1.5","3","0","n6snaq4jc4j5x5g","","6709","","audCalib/t1_1.mp3","0","","0","1","headphone-test","","","","","","","","","","","","","","","","","","","","","","","","","","","","",""
"html-button-response","19","507598","0.0-3.0-2.0","3","0","n6snaq4jc4j5x5g","","10013.200000047684","","<p>The volume calibration and headphone check are now complete.</p>","0","","","","","","","","","","","","","","","","","","","","","","","","","","","","","","","","",""
"instructions","20","528965","0.0-4.0-0.0","3","0","n6snaq4jc4j5x5g","[{""page_index"":0,""viewing_time"":1624},{""page_index"":1,""viewing_time"":17313},{""page_index"":2,""viewing_time"":2429}]","21366.5","","","","","","","","","","","","","","","","","","","","","","","","","","","","","","","","","","","",""
"audio-keyboard-response","21","529312","0.0-4.0-1.0-0.0","3","0","n6snaq4jc4j5x5g","","null","","sounds/induction/left_rev/ru_SWS.wav","","null","","","","","","","","","","","","","","","","","","","","","","","","","","","","","","","",""
"html-button-response","22","530840","0.0-4.0-1.0-1.0","3","0","n6snaq4jc4j5x5g","","1526.1999999284744","","Was the sound coming from the left or the right?","0","","","1","INDUCTION-JUDGMENT","left","0","","","","","","","","","","","","","","","","","","","","","","","","","","",""
"html-keyboard-response","23","531843","0.0-4.0-1.0-2.0","3","0","n6snaq4jc4j5x5g","","null","","<p style=""color:#054d00;""><b>Correct!</b></p>","","null","","","","","","","","","","","","","","","","","","","","","","","","","","","","","","","",""
"audio-keyboard-response","24","532645","0.0-4.0-1.0-0.1","3","0","n6snaq4jc4j5x5g","","null","","sounds/induction/right_rev/ta_SWS.wav","","null","","","","","","","","","","","","","","","","","","","","","","","","","","","","","","","",""
"html-button-response","25","533480","0.0-4.0-1.0-1.1","3","0","n6snaq4jc4j5x5g","","833.5999999046326","","Was the sound coming from the left or the right?","1","","","1","INDUCTION-JUDGMENT","right","1","","","","","","","","","","","","","","","","","","","","","","","","","","",""
"html-keyboard-response","26","534482","0.0-4.0-1.0-2.1","3","0","n6snaq4jc4j5x5g","","null","","<p style=""color:#054d00;""><b>Correct!</b></p>","","null","","","","","","","","","","","","","","","","","","","","","","","","","","","","","","","",""
"audio-keyboard-response","27","535284","0.0-4.0-1.0-0.2","3","0","n6snaq4jc4j5x5g","","null","","sounds/induction/right_rev/fe_SWS.wav","","null","","","","","","","","","","","","","","","","","","","","","","","","","","","","","","","",""
"html-button-response","28","536055","0.0-4.0-1.0-1.2","3","0","n6snaq4jc4j5x5g","","769.1999999284744","","Was the sound coming from the left or the right?","1","","","1","INDUCTION-JUDGMENT","right","1","","","","","","","","","","","","","","","","","","","","","","","","","","",""
"html-keyboard-response","29","537058","0.0-4.0-1.0-2.2","3","0","n6snaq4jc4j5x5g","","null","","<p style=""color:#054d00;""><b>Correct!</b></p>","","null","","","","","","","","","","","","","","","","","","","","","","","","","","","","","","","",""
"audio-keyboard-response","30","537866","0.0-4.0-1.0-0.3","3","0","n6snaq4jc4j5x5g","","null","","sounds/induction/right_rev/re_SWS.wav","","null","","","","","","","","","","","","","","","","","","","","","","","","","","","","","","","",""
"html-button-response","31","538421","0.0-4.0-1.0-1.3","3","0","n6snaq4jc4j5x5g","","553.2000000476837","","Was the sound coming from the left or the right?","1","","","1","INDUCTION-JUDGMENT","right","1","","","","","","","","","","","","","","","","","","","","","","","","","","",""
"html-keyboard-response","32","539423","0.0-4.0-1.0-2.3","3","0","n6snaq4jc4j5x5g","","null","","<p style=""color:#054d00;""><b>Correct!</b></p>","","null","","","","","","","","","","","","","","","","","","","","","","","","","","","","","","","",""
"audio-keyboard-response","33","540228","0.0-4.0-1.0-0.4","3","0","n6snaq4jc4j5x5g","","null","","sounds/induction/right_rev/su_SWS.wav","","null","","","","","","","","","","","","","","","","","","","","","","","","","","","","","","","",""
"html-button-response","34","540810","0.0-4.0-1.0-1.4","3","0","n6snaq4jc4j5x5g","","579.1999999284744","","Was the sound coming from the left or the right?","1","","","1","INDUCTION-JUDGMENT","right","1","","","","","","","","","","","","","","","","","","","","","","","","","","",""
"html-keyboard-response","35","541813","0.0-4.0-1.0-2.4","3","0","n6snaq4jc4j5x5g","","null","","<p style=""color:#054d00;""><b>Correct!</b></p>","","null","","","","","","","","","","","","","","","","","","","","","","","","","","","","","","","",""
"audio-keyboard-response","36","542617","0.0-4.0-1.0-0.5","3","0","n6snaq4jc4j5x5g","","null","","sounds/induction/left_rev/pu_SWS.wav","","null","","","","","","","","","","","","","","","","","","","","","","","","","","","","","","","",""
"html-button-response","37","543368","0.0-4.0-1.0-1.5","3","0","n6snaq4jc4j5x5g","","748.6000000238419","","Was the sound coming from the left or the right?","0","","","1","INDUCTION-JUDGMENT","left","0","","","","","","","","","","","","","","","","","","","","","","","","","","",""
"html-keyboard-response","38","544369","0.0-4.0-1.0-2.5","3","0","n6snaq4jc4j5x5g","","null","","<p style=""color:#054d00;""><b>Correct!</b></p>","","null","","","","","","","","","","","","","","","","","","","","","","","","","","","","","","","",""
"audio-keyboard-response","39","545172","0.0-4.0-1.0-0.6","3","0","n6snaq4jc4j5x5g","","null","","sounds/induction/left_rev/fu_SWS.wav","","null","","","","","","","","","","","","","","","","","","","","","","","","","","","","","","","",""
"html-button-response","40","545894","0.0-4.0-1.0-1.6","3","0","n6snaq4jc4j5x5g","","720.2000000476837","","Was the sound coming from the left or the right?","0","","","1","INDUCTION-JUDGMENT","left","0","","","","","","","","","","","","","","","","","","","","","","","","","","",""
"html-keyboard-response","41","546896","0.0-4.0-1.0-2.6","3","0","n6snaq4jc4j5x5g","","null","","<p style=""color:#054d00;""><b>Correct!</b></p>","","null","","","","","","","","","","","","","","","","","","","","","","","","","","","","","","","",""
"audio-keyboard-response","42","547705","0.0-4.0-1.0-0.7","3","0","n6snaq4jc4j5x5g","","null","","sounds/induction/left_rev/ko_SWS.wav","","null","","","","","","","","","","","","","","","","","","","","","","","","","","","","","","","",""
"html-button-response","43","552461","0.0-4.0-1.0-1.7","3","0","n6snaq4jc4j5x5g","","4753.900000095367","","Was the sound coming from the left or the right?","0","","","1","INDUCTION-JUDGMENT","left","0","","","","","","","","","","","","","","","","","","","","","","","","","","",""
"html-keyboard-response","44","553464","0.0-4.0-1.0-2.7","3","0","n6snaq4jc4j5x5g","","null","","<p style=""color:#054d00;""><b>Correct!</b></p>","","null","","","","","","","","","","","","","","","","","","","","","","","","","","","","","","","",""
"audio-keyboard-response","45","554270","0.0-4.0-1.0-0.8","3","0","n6snaq4jc4j5x5g","","null","","sounds/induction/left_rev/ta_SWS.wav","","null","","","","","","","","","","","","","","","","","","","","","","","","","","","","","","","",""
"html-button-response","46","554802","0.0-4.0-1.0-1.8","3","0","n6snaq4jc4j5x5g","","530.4000000953674","","Was the sound coming from the left or the right?","0","","","1","INDUCTION-JUDGMENT","left","0","","","","","","","","","","","","","","","","","","","","","","","","","","",""
"html-keyboard-response","47","555803","0.0-4.0-1.0-2.8","3","0","n6snaq4jc4j5x5g","","null","","<p style=""color:#054d00;""><b>Correct!</b></p>","","null","","","","","","","","","","","","","","","","","","","","","","","","","","","","","","","",""
"audio-keyboard-response","48","556606","0.0-4.0-1.0-0.9","3","0","n6snaq4jc4j5x5g","","null","","sounds/induction/left_rev/fe_SWS.wav","","null","","","","","","","","","","","","","","","","","","","","","","","","","","","","","","","",""
"html-button-response","49","557152","0.0-4.0-1.0-1.9","3","0","n6snaq4jc4j5x5g","","544.5","","Was the sound coming from the left or the right?","0","","","1","INDUCTION-JUDGMENT","left","0","","","","","","","","","","","","","","","","","","","","","","","","","","",""
"html-keyboard-response","50","558155","0.0-4.0-1.0-2.9","3","0","n6snaq4jc4j5x5g","","null","","<p style=""color:#054d00;""><b>Correct!</b></p>","","null","","","","","","","","","","","","","","","","","","","","","","","","","","","","","","","",""
"audio-keyboard-response","51","558958","0.0-4.0-1.0-0.10","3","0","n6snaq4jc4j5x5g","","null","","sounds/induction/left_rev/me_SWS.wav","","null","","","","","","","","","","","","","","","","","","","","","","","","","","","","","","","",""
"html-button-response","52","559645","0.0-4.0-1.0-1.10","3","0","n6snaq4jc4j5x5g","","685","","Was the sound coming from the left or the right?","0","","","1","INDUCTION-JUDGMENT","left","0","","","","","","","","","","","","","","","","","","","","","","","","","","",""
"html-keyboard-response","53","560647","0.0-4.0-1.0-2.10","3","0","n6snaq4jc4j5x5g","","null","","<p style=""color:#054d00;""><b>Correct!</b></p>","","null","","","","","","","","","","","","","","","","","","","","","","","","","","","","","","","",""
"audio-keyboard-response","54","561454","0.0-4.0-1.0-0.11","3","0","n6snaq4jc4j5x5g","","null","","sounds/induction/right_rev/ge_SWS.wav","","null","","","","","","","","","","","","","","","","","","","","","","","","","","","","","","","",""
"html-button-response","55","562170","0.0-4.0-1.0-1.11","3","0","n6snaq4jc4j5x5g","","714.6999999284744","","Was the sound coming from the left or the right?","1","","","1","INDUCTION-JUDGMENT","right","1","","","","","","","","","","","","","","","","","","","","","","","","","","",""
"html-keyboard-response","56","563172","0.0-4.0-1.0-2.11","3","0","n6snaq4jc4j5x5g","","null","","<p style=""color:#054d00;""><b>Correct!</b></p>","","null","","","","","","","","","","","","","","","","","","","","","","","","","","","","","","","",""
"audio-keyboard-response","57","563977","0.0-4.0-1.0-0.12","3","0","n6snaq4jc4j5x5g","","null","","sounds/induction/left_rev/ru_SWS.wav","","null","","","","","","","","","","","","","","","","","","","","","","","","","","","","","","","",""
"html-button-response","58","565002","0.0-4.0-1.0-1.12","3","0","n6snaq4jc4j5x5g","","1024.3000000715256","","Was the sound coming from the left or the right?","0","","","1","INDUCTION-JUDGMENT","left","0","","","","","","","","","","","","","","","","","","","","","","","","","","",""
"html-keyboard-response","59","566004","0.0-4.0-1.0-2.12","3","0","n6snaq4jc4j5x5g","","null","","<p style=""color:#054d00;""><b>Correct!</b></p>","","null","","","","","","","","","","","","","","","","","","","","","","","","","","","","","","","",""
"audio-keyboard-response","60","566808","0.0-4.0-1.0-0.13","3","0","n6snaq4jc4j5x5g","","null","","sounds/induction/left_rev/su_SWS.wav","","null","","","","","","","","","","","","","","","","","","","","","","","","","","","","","","","",""
"html-button-response","61","567320","0.0-4.0-1.0-1.13","3","0","n6snaq4jc4j5x5g","","509.89999997615814","","Was the sound coming from the left or the right?","0","","","1","INDUCTION-JUDGMENT","left","0","","","","","","","","","","","","","","","","","","","","","","","","","","",""
"html-keyboard-response","62","568322","0.0-4.0-1.0-2.13","3","0","n6snaq4jc4j5x5g","","null","","<p style=""color:#054d00;""><b>Correct!</b></p>","","null","","","","","","","","","","","","","","","","","","","","","","","","","","","","","","","",""
"audio-keyboard-response","63","569123","0.0-4.0-1.0-0.14","3","0","n6snaq4jc4j5x5g","","null","","sounds/induction/right_rev/ti_SWS.wav","","null","","","","","","","","","","","","","","","","","","","","","","","","","","","","","","","",""
"html-button-response","64","569724","0.0-4.0-1.0-1.14","3","0","n6snaq4jc4j5x5g","","599.3999999761581","","Was the sound coming from the left or the right?","1","","","1","INDUCTION-JUDGMENT","right","1","","","","","","","","","","","","","","","","","","","","","","","","","","",""
"html-keyboard-response","65","570726","0.0-4.0-1.0-2.14","3","0","n6snaq4jc4j5x5g","","null","","<p style=""color:#054d00;""><b>Correct!</b></p>","","null","","","","","","","","","","","","","","","","","","","","","","","","","","","","","","","",""
"audio-keyboard-response","66","571533","0.0-4.0-1.0-0.15","3","0","n6snaq4jc4j5x5g","","null","","sounds/induction/right_rev/fe_SWS.wav","","null","","","","","","","","","","","","","","","","","","","","","","","","","","","","","","","",""
"html-button-response","67","572459","0.0-4.0-1.0-1.15","3","0","n6snaq4jc4j5x5g","","923.6000000238419","","Was the sound coming from the left or the right?","1","","","1","INDUCTION-JUDGMENT","right","1","","","","","","","","","","","","","","","","","","","","","","","","","","",""
"html-keyboard-response","68","573462","0.0-4.0-1.0-2.15","3","0","n6snaq4jc4j5x5g","","null","","<p style=""color:#054d00;""><b>Correct!</b></p>","","null","","","","","","","","","","","","","","","","","","","","","","","","","","","","","","","",""
"audio-keyboard-response","69","574269","0.0-4.0-1.0-0.16","3","0","n6snaq4jc4j5x5g","","null","","sounds/induction/right_rev/ta_SWS.wav","","null","","","","","","","","","","","","","","","","","","","","","","","","","","","","","","","",""
"html-button-response","70","574857","0.0-4.0-1.0-1.16","3","0","n6snaq4jc4j5x5g","","583.7000000476837","","Was the sound coming from the left or the right?","1","","","1","INDUCTION-JUDGMENT","right","1","","","","","","","","","","","","","","","","","","","","","","","","","","",""
"html-keyboard-response","71","575859","0.0-4.0-1.0-2.16","3","0","n6snaq4jc4j5x5g","","null","","<p style=""color:#054d00;""><b>Correct!</b></p>","","null","","","","","","","","","","","","","","","","","","","","","","","","","","","","","","","",""
"audio-keyboard-response","72","576664","0.0-4.0-1.0-0.17","3","0","n6snaq4jc4j5x5g","","null","","sounds/induction/right_rev/ge_SWS.wav","","null","","","","","","","","","","","","","","","","","","","","","","","","","","","","","","","",""
"html-button-response","73","577165","0.0-4.0-1.0-1.17","3","0","n6snaq4jc4j5x5g","","499.8000000715256","","Was the sound coming from the left or the right?","1","","","1","INDUCTION-JUDGMENT","right","1","","","","","","","","","","","","","","","","","","","","","","","","","","",""
"html-keyboard-response","74","578168","0.0-4.0-1.0-2.17","3","0","n6snaq4jc4j5x5g","","null","","<p style=""color:#054d00;""><b>Correct!</b></p>","","null","","","","","","","","","","","","","","","","","","","","","","","","","","","","","","","",""
"audio-keyboard-response","75","578973","0.0-4.0-1.0-0.18","3","0","n6snaq4jc4j5x5g","","null","","sounds/induction/left_rev/ta_SWS.wav","","null","","","","","","","","","","","","","","","","","","","","","","","","","","","","","","","",""
"html-button-response","76","579691","0.0-4.0-1.0-1.18","3","0","n6snaq4jc4j5x5g","","716","","Was the sound coming from the left or the right?","0","","","1","INDUCTION-JUDGMENT","left","0","","","","","","","","","","","","","","","","","","","","","","","","","","",""
"html-keyboard-response","77","580693","0.0-4.0-1.0-2.18","3","0","n6snaq4jc4j5x5g","","null","","<p style=""color:#054d00;""><b>Correct!</b></p>","","null","","","","","","","","","","","","","","","","","","","","","","","","","","","","","","","",""
"audio-keyboard-response","78","581496","0.0-4.0-1.0-0.19","3","0","n6snaq4jc4j5x5g","","null","","sounds/induction/right_rev/re_SWS.wav","","null","","","","","","","","","","","","","","","","","","","","","","","","","","","","","","","",""
"html-button-response","79","582176","0.0-4.0-1.0-1.19","3","0","n6snaq4jc4j5x5g","","679.8999999761581","","Was the sound coming from the left or the right?","1","","","1","INDUCTION-JUDGMENT","right","1","","","","","","","","","","","","","","","","","","","","","","","","","","",""
"html-keyboard-response","80","583179","0.0-4.0-1.0-2.19","3","0","n6snaq4jc4j5x5g","","null","","<p style=""color:#054d00;""><b>Correct!</b></p>","","null","","","","","","","","","","","","","","","","","","","","","","","","","","","","","","","",""
"audio-keyboard-response","81","583981","0.0-4.0-1.0-0.20","3","0","n6snaq4jc4j5x5g","","null","","sounds/induction/left_rev/ni_SWS.wav","","null","","","","","","","","","","","","","","","","","","","","","","","","","","","","","","","",""
"html-button-response","82","584807","0.0-4.0-1.0-1.20","3","0","n6snaq4jc4j5x5g","","825.7000000476837","","Was the sound coming from the left or the right?","0","","","1","INDUCTION-JUDGMENT","left","0","","","","","","","","","","","","","","","","","","","","","","","","","","",""
"html-keyboard-response","83","585809","0.0-4.0-1.0-2.20","3","0","n6snaq4jc4j5x5g","","null","","<p style=""color:#054d00;""><b>Correct!</b></p>","","null","","","","","","","","","","","","","","","","","","","","","","","","","","","","","","","",""
"audio-keyboard-response","84","586615","0.0-4.0-1.0-0.21","3","0","n6snaq4jc4j5x5g","","null","","sounds/induction/right_rev/ni_SWS.wav","","null","","","","","","","","","","","","","","","","","","","","","","","","","","","","","","","",""
"html-button-response","85","587180","0.0-4.0-1.0-1.21","3","0","n6snaq4jc4j5x5g","","564","","Was the sound coming from the left or the right?","1","","","1","INDUCTION-JUDGMENT","right","1","","","","","","","","","","","","","","","","","","","","","","","","","","",""
"html-keyboard-response","86","588182","0.0-4.0-1.0-2.21","3","0","n6snaq4jc4j5x5g","","null","","<p style=""color:#054d00;""><b>Correct!</b></p>","","null","","","","","","","","","","","","","","","","","","","","","","","","","","","","","","","",""
"audio-keyboard-response","87","588983","0.0-4.0-1.0-0.22","3","0","n6snaq4jc4j5x5g","","null","","sounds/induction/right_rev/ru_SWS.wav","","null","","","","","","","","","","","","","","","","","","","","","","","","","","","","","","","",""
"html-button-response","88","591143","0.0-4.0-1.0-1.22","3","0","n6snaq4jc4j5x5g","","2158.9000000953674","","Was the sound coming from the left or the right?","0","","","0","INDUCTION-JUDGMENT","right","1","","","","","","","","","","","","","","","","","","","","","","","","","","",""
"html-keyboard-response","89","592146","0.0-4.0-1.0-2.22","3","0","n6snaq4jc4j5x5g","","null","","<p style=""color:#690000;""><b>Incorrect!</b></p>","","null","","","","","","","","","","","","","","","","","","","","","","","","","","","","","","","",""
"audio-keyboard-response","90","592946","0.0-4.0-1.0-0.23","3","0","n6snaq4jc4j5x5g","","null","","sounds/induction/left_rev/ge_SWS.wav","","null","","","","","","","","","","","","","","","","","","","","","","","","","","","","","","","",""
"html-button-response","91","593410","0.0-4.0-1.0-1.23","3","0","n6snaq4jc4j5x5g","","463.39999997615814","","Was the sound coming from the left or the right?","0","","","1","INDUCTION-JUDGMENT","left","0","","","","","","","","","","","","","","","","","","","","","","","","","","",""
"html-keyboard-response","92","594412","0.0-4.0-1.0-2.23","3","0","n6snaq4jc4j5x5g","","null","","<p style=""color:#054d00;""><b>Correct!</b></p>","","null","","","","","","","","","","","","","","","","","","","","","","","","","","","","","","","",""
"audio-keyboard-response","93","595212","0.0-4.0-1.0-0.24","3","0","n6snaq4jc4j5x5g","","null","","sounds/induction/left_rev/fu_SWS.wav","","null","","","","","","","","","","","","","","","","","","","","","","","","","","","","","","","",""
"html-button-response","94","595852","0.0-4.0-1.0-1.24","3","0","n6snaq4jc4j5x5g","","639.3999999761581","","Was the sound coming from the left or the right?","0","","","1","INDUCTION-JUDGMENT","left","0","","","","","","","","","","","","","","","","","","","","","","","","","","",""
"html-keyboard-response","95","596854","0.0-4.0-1.0-2.24","3","0","n6snaq4jc4j5x5g","","null","","<p style=""color:#054d00;""><b>Correct!</b></p>","","null","","","","","","","","","","","","","","","","","","","","","","","","","","","","","","","",""
"audio-keyboard-response","96","597660","0.0-4.0-1.0-0.25","3","0","n6snaq4jc4j5x5g","","null","","sounds/induction/right_rev/me_SWS.wav","","null","","","","","","","","","","","","","","","","","","","","","","","","","","","","","","","",""
"html-button-response","97","598295","0.0-4.0-1.0-1.25","3","0","n6snaq4jc4j5x5g","","633.9000000953674","","Was the sound coming from the left or the right?","1","","","1","INDUCTION-JUDGMENT","right","1","","","","","","","","","","","","","","","","","","","","","","","","","","",""
"html-keyboard-response","98","599298","0.0-4.0-1.0-2.25","3","0","n6snaq4jc4j5x5g","","null","","<p style=""color:#054d00;""><b>Correct!</b></p>","","null","","","","","","","","","","","","","","","","","","","","","","","","","","","","","","","",""
"audio-keyboard-response","99","600103","0.0-4.0-1.0-0.26","3","0","n6snaq4jc4j5x5g","","null","","sounds/induction/right_rev/me_SWS.wav","","null","","","","","","","","","","","","","","","","","","","","","","","","","","","","","","","",""
"html-button-response","100","600624","0.0-4.0-1.0-1.26","3","0","n6snaq4jc4j5x5g","","520.3999999761581","","Was the sound coming from the left or the right?","1","","","1","INDUCTION-JUDGMENT","right","1","","","","","","","","","","","","","","","","","","","","","","","","","","",""
"html-keyboard-response","101","601626","0.0-4.0-1.0-2.26","3","0","n6snaq4jc4j5x5g","","null","","<p style=""color:#054d00;""><b>Correct!</b></p>","","null","","","","","","","","","","","","","","","","","","","","","","","","","","","","","","","",""
"audio-keyboard-response","102","602433","0.0-4.0-1.0-0.27","3","0","n6snaq4jc4j5x5g","","null","","sounds/induction/right_rev/ti_SWS.wav","","null","","","","","","","","","","","","","","","","","","","","","","","","","","","","","","","",""
"html-button-response","103","602935","0.0-4.0-1.0-1.27","3","0","n6snaq4jc4j5x5g","","500.3000000715256","","Was the sound coming from the left or the right?","1","","","1","INDUCTION-JUDGMENT","right","1","","","","","","","","","","","","","","","","","","","","","","","","","","",""
"html-keyboard-response","104","603937","0.0-4.0-1.0-2.27","3","0","n6snaq4jc4j5x5g","","null","","<p style=""color:#054d00;""><b>Correct!</b></p>","","null","","","","","","","","","","","","","","","","","","","","","","","","","","","","","","","",""
"audio-keyboard-response","105","604737","0.0-4.0-1.0-0.28","3","0","n6snaq4jc4j5x5g","","null","","sounds/induction/right_rev/pu_SWS.wav","","null","","","","","","","","","","","","","","","","","","","","","","","","","","","","","","","",""
"html-button-response","106","605299","0.0-4.0-1.0-1.28","3","0","n6snaq4jc4j5x5g","","560.6999999284744","","Was the sound coming from the left or the right?","1","","","1","INDUCTION-JUDGMENT","right","1","","","","","","","","","","","","","","","","","","","","","","","","","","",""
"html-keyboard-response","107","606300","0.0-4.0-1.0-2.28","3","0","n6snaq4jc4j5x5g","","null","","<p style=""color:#054d00;""><b>Correct!</b></p>","","null","","","","","","","","","","","","","","","","","","","","","","","","","","","","","","","",""
"audio-keyboard-response","108","607105","0.0-4.0-1.0-0.29","3","0","n6snaq4jc4j5x5g","","null","","sounds/induction/right_rev/ru_SWS.wav","","null","","","","","","","","","","","","","","","","","","","","","","","","","","","","","","","",""
"html-button-response","109","607435","0.0-4.0-1.0-1.29","3","0","n6snaq4jc4j5x5g","","328.60000002384186","","Was the sound coming from the left or the right?","1","","","1","INDUCTION-JUDGMENT","right","1","","","","","","","","","","","","","","","","","","","","","","","","","","",""
"html-keyboard-response","110","608438","0.0-4.0-1.0-2.29","3","0","n6snaq4jc4j5x5g","","null","","<p style=""color:#054d00;""><b>Correct!</b></p>","","null","","","","","","","","","","","","","","","","","","","","","","","","","","","","","","","",""
"audio-keyboard-response","111","609244","0.0-4.0-1.0-0.30","3","0","n6snaq4jc4j5x5g","","null","","sounds/induction/left_rev/pu_SWS.wav","","null","","","","","","","","","","","","","","","","","","","","","","","","","","","","","","","",""
"html-button-response","112","610453","0.0-4.0-1.0-1.30","3","0","n6snaq4jc4j5x5g","","1208.1000000238419","","Was the sound coming from the left or the right?","0","","","1","INDUCTION-JUDGMENT","left","0","","","","","","","","","","","","","","","","","","","","","","","","","","",""
"html-keyboard-response","113","611455","0.0-4.0-1.0-2.30","3","0","n6snaq4jc4j5x5g","","null","","<p style=""color:#054d00;""><b>Correct!</b></p>","","null","","","","","","","","","","","","","","","","","","","","","","","","","","","","","","","",""
"audio-keyboard-response","114","612262","0.0-4.0-1.0-0.31","3","0","n6snaq4jc4j5x5g","","null","","sounds/induction/left_rev/fe_SWS.wav","","null","","","","","","","","","","","","","","","","","","","","","","","","","","","","","","","",""
"html-button-response","115","612890","0.0-4.0-1.0-1.31","3","0","n6snaq4jc4j5x5g","","627.2999999523163","","Was the sound coming from the left or the right?","0","","","1","INDUCTION-JUDGMENT","left","0","","","","","","","","","","","","","","","","","","","","","","","","","","",""
"html-keyboard-response","116","613893","0.0-4.0-1.0-2.31","3","0","n6snaq4jc4j5x5g","","null","","<p style=""color:#054d00;""><b>Correct!</b></p>","","null","","","","","","","","","","","","","","","","","","","","","","","","","","","","","","","",""
"audio-keyboard-response","117","614699","0.0-4.0-1.0-0.32","3","0","n6snaq4jc4j5x5g","","null","","sounds/induction/right_rev/su_SWS.wav","","null","","","","","","","","","","","","","","","","","","","","","","","","","","","","","","","",""
"html-button-response","118","615979","0.0-4.0-1.0-1.32","3","0","n6snaq4jc4j5x5g","","1278.2000000476837","","Was the sound coming from the left or the right?","1","","","1","INDUCTION-JUDGMENT","right","1","","","","","","","","","","","","","","","","","","","","","","","","","","",""
"html-keyboard-response","119","616979","0.0-4.0-1.0-2.32","3","0","n6snaq4jc4j5x5g","","null","","<p style=""color:#054d00;""><b>Correct!</b></p>","","null","","","","","","","","","","","","","","","","","","","","","","","","","","","","","","","",""
"audio-keyboard-response","120","617787","0.0-4.0-1.0-0.33","3","0","n6snaq4jc4j5x5g","","null","","sounds/induction/right_rev/ko_SWS.wav","","null","","","","","","","","","","","","","","","","","","","","","","","","","","","","","","","",""
"html-button-response","121","618469","0.0-4.0-1.0-1.33","3","0","n6snaq4jc4j5x5g","","681","","Was the sound coming from the left or the right?","1","","","1","INDUCTION-JUDGMENT","right","1","","","","","","","","","","","","","","","","","","","","","","","","","","",""
"html-keyboard-response","122","619471","0.0-4.0-1.0-2.33","3","0","n6snaq4jc4j5x5g","","null","","<p style=""color:#054d00;""><b>Correct!</b></p>","","null","","","","","","","","","","","","","","","","","","","","","","","","","","","","","","","",""
"audio-keyboard-response","123","620278","0.0-4.0-1.0-0.34","3","0","n6snaq4jc4j5x5g","","null","","sounds/induction/left_rev/ge_SWS.wav","","null","","","","","","","","","","","","","","","","","","","","","","","","","","","","","","","",""
"html-button-response","124","621022","0.0-4.0-1.0-1.34","3","0","n6snaq4jc4j5x5g","","744","","Was the sound coming from the left or the right?","0","","","1","INDUCTION-JUDGMENT","left","0","","","","","","","","","","","","","","","","","","","","","","","","","","",""
"html-keyboard-response","125","622023","0.0-4.0-1.0-2.34","3","0","n6snaq4jc4j5x5g","","null","","<p style=""color:#054d00;""><b>Correct!</b></p>","","null","","","","","","","","","","","","","","","","","","","","","","","","","","","","","","","",""
"audio-keyboard-response","126","622827","0.0-4.0-1.0-0.35","3","0","n6snaq4jc4j5x5g","","null","","sounds/induction/right_rev/fu_SWS.wav","","null","","","","","","","","","","","","","","","","","","","","","","","","","","","","","","","",""
"html-button-response","127","623572","0.0-4.0-1.0-1.35","3","0","n6snaq4jc4j5x5g","","745.0999999046326","","Was the sound coming from the left or the right?","1","","","1","INDUCTION-JUDGMENT","right","1","","","","","","","","","","","","","","","","","","","","","","","","","","",""
"html-keyboard-response","128","624574","0.0-4.0-1.0-2.35","3","0","n6snaq4jc4j5x5g","","null","","<p style=""color:#054d00;""><b>Correct!</b></p>","","null","","","","","","","","","","","","","","","","","","","","","","","","","","","","","","","",""
"audio-keyboard-response","129","625376","0.0-4.0-1.0-0.36","3","0","n6snaq4jc4j5x5g","","null","","sounds/induction/left_rev/re_SWS.wav","","null","","","","","","","","","","","","","","","","","","","","","","","","","","","","","","","",""
"html-button-response","130","626147","0.0-4.0-1.0-1.36","3","0","n6snaq4jc4j5x5g","","770.2000000476837","","Was the sound coming from the left or the right?","0","","","1","INDUCTION-JUDGMENT","left","0","","","","","","","","","","","","","","","","","","","","","","","","","","",""
"html-keyboard-response","131","627149","0.0-4.0-1.0-2.36","3","0","n6snaq4jc4j5x5g","","null","","<p style=""color:#054d00;""><b>Correct!</b></p>","","null","","","","","","","","","","","","","","","","","","","","","","","","","","","","","","","",""
"audio-keyboard-response","132","627952","0.0-4.0-1.0-0.37","3","0","n6snaq4jc4j5x5g","","null","","sounds/induction/left_rev/ko_SWS.wav","","null","","","","","","","","","","","","","","","","","","","","","","","","","","","","","","","",""
"html-button-response","133","628699","0.0-4.0-1.0-1.37","3","0","n6snaq4jc4j5x5g","","746","","Was the sound coming from the left or the right?","0","","","1","INDUCTION-JUDGMENT","left","0","","","","","","","","","","","","","","","","","","","","","","","","","","",""
"html-keyboard-response","134","629701","0.0-4.0-1.0-2.37","3","0","n6snaq4jc4j5x5g","","null","","<p style=""color:#054d00;""><b>Correct!</b></p>","","null","","","","","","","","","","","","","","","","","","","","","","","","","","","","","","","",""
"audio-keyboard-response","135","630507","0.0-4.0-1.0-0.38","3","0","n6snaq4jc4j5x5g","","null","","sounds/induction/right_rev/fu_SWS.wav","","null","","","","","","","","","","","","","","","","","","","","","","","","","","","","","","","",""
"html-button-response","136","631290","0.0-4.0-1.0-1.38","3","0","n6snaq4jc4j5x5g","","782.2999999523163","","Was the sound coming from the left or the right?","1","","","1","INDUCTION-JUDGMENT","right","1","","","","","","","","","","","","","","","","","","","","","","","","","","",""
"html-keyboard-response","137","632291","0.0-4.0-1.0-2.38","3","0","n6snaq4jc4j5x5g","","null","","<p style=""color:#054d00;""><b>Correct!</b></p>","","null","","","","","","","","","","","","","","","","","","","","","","","","","","","","","","","",""
"audio-keyboard-response","138","633099","0.0-4.0-1.0-0.39","3","0","n6snaq4jc4j5x5g","","null","","sounds/induction/left_rev/me_SWS.wav","","null","","","","","","","","","","","","","","","","","","","","","","","","","","","","","","","",""
"html-button-response","139","633768","0.0-4.0-1.0-1.39","3","0","n6snaq4jc4j5x5g","","667.8999999761581","","Was the sound coming from the left or the right?","0","","","1","INDUCTION-JUDGMENT","left","0","","","","","","","","","","","","","","","","","","","","","","","","","","",""
"html-keyboard-response","140","634770","0.0-4.0-1.0-2.39","3","0","n6snaq4jc4j5x5g","","null","","<p style=""color:#054d00;""><b>Correct!</b></p>","","null","","","","","","","","","","","","","","","","","","","","","","","","","","","","","","","",""
"audio-keyboard-response","141","635573","0.0-4.0-1.0-0.40","3","0","n6snaq4jc4j5x5g","","null","","sounds/induction/right_rev/pu_SWS.wav","","null","","","","","","","","","","","","","","","","","","","","","","","","","","","","","","","",""
"html-button-response","142","636317","0.0-4.0-1.0-1.40","3","0","n6snaq4jc4j5x5g","","742.5","","Was the sound coming from the left or the right?","1","","","1","INDUCTION-JUDGMENT","right","1","","","","","","","","","","","","","","","","","","","","","","","","","","",""
"html-keyboard-response","143","637318","0.0-4.0-1.0-2.40","3","0","n6snaq4jc4j5x5g","","null","","<p style=""color:#054d00;""><b>Correct!</b></p>","","null","","","","","","","","","","","","","","","","","","","","","","","","","","","","","","","",""
"audio-keyboard-response","144","638123","0.0-4.0-1.0-0.41","3","0","n6snaq4jc4j5x5g","","null","","sounds/induction/right_rev/ni_SWS.wav","","null","","","","","","","","","","","","","","","","","","","","","","","","","","","","","","","",""
"html-button-response","145","638610","0.0-4.0-1.0-1.41","3","0","n6snaq4jc4j5x5g","","486.2999999523163","","Was the sound coming from the left or the right?","1","","","1","INDUCTION-JUDGMENT","right","1","","","","","","","","","","","","","","","","","","","","","","","","","","",""
"html-keyboard-response","146","639611","0.0-4.0-1.0-2.41","3","0","n6snaq4jc4j5x5g","","null","","<p style=""color:#054d00;""><b>Correct!</b></p>","","null","","","","","","","","","","","","","","","","","","","","","","","","","","","","","","","",""
"audio-keyboard-response","147","640416","0.0-4.0-1.0-0.42","3","0","n6snaq4jc4j5x5g","","null","","sounds/induction/left_rev/re_SWS.wav","","null","","","","","","","","","","","","","","","","","","","","","","","","","","","","","","","",""
"html-button-response","148","641104","0.0-4.0-1.0-1.42","3","0","n6snaq4jc4j5x5g","","687.6999999284744","","Was the sound coming from the left or the right?","0","","","1","INDUCTION-JUDGMENT","left","0","","","","","","","","","","","","","","","","","","","","","","","","","","",""
"html-keyboard-response","149","642106","0.0-4.0-1.0-2.42","3","0","n6snaq4jc4j5x5g","","null","","<p style=""color:#054d00;""><b>Correct!</b></p>","","null","","","","","","","","","","","","","","","","","","","","","","","","","","","","","","","",""
"audio-keyboard-response","150","642912","0.0-4.0-1.0-0.43","3","0","n6snaq4jc4j5x5g","","null","","sounds/induction/left_rev/su_SWS.wav","","null","","","","","","","","","","","","","","","","","","","","","","","","","","","","","","","",""
"html-button-response","151","643614","0.0-4.0-1.0-1.43","3","0","n6snaq4jc4j5x5g","","700.8000000715256","","Was the sound coming from the left or the right?","0","","","1","INDUCTION-JUDGMENT","left","0","","","","","","","","","","","","","","","","","","","","","","","","","","",""
"html-keyboard-response","152","644615","0.0-4.0-1.0-2.43","3","0","n6snaq4jc4j5x5g","","null","","<p style=""color:#054d00;""><b>Correct!</b></p>","","null","","","","","","","","","","","","","","","","","","","","","","","","","","","","","","","",""
"audio-keyboard-response","153","645418","0.0-4.0-1.0-0.44","3","0","n6snaq4jc4j5x5g","","null","","sounds/induction/left_rev/ti_SWS.wav","","null","","","","","","","","","","","","","","","","","","","","","","","","","","","","","","","",""
"html-button-response","154","646114","0.0-4.0-1.0-1.44","3","0","n6snaq4jc4j5x5g","","695.1000000238419","","Was the sound coming from the left or the right?","0","","","1","INDUCTION-JUDGMENT","left","0","","","","","","","","","","","","","","","","","","","","","","","","","","",""
"html-keyboard-response","155","647117","0.0-4.0-1.0-2.44","3","0","n6snaq4jc4j5x5g","","null","","<p style=""color:#054d00;""><b>Correct!</b></p>","","null","","","","","","","","","","","","","","","","","","","","","","","","","","","","","","","",""
"audio-keyboard-response","156","647925","0.0-4.0-1.0-0.45","3","0","n6snaq4jc4j5x5g","","null","","sounds/induction/right_rev/ko_SWS.wav","","null","","","","","","","","","","","","","","","","","","","","","","","","","","","","","","","",""
"html-button-response","157","648521","0.0-4.0-1.0-1.45","3","0","n6snaq4jc4j5x5g","","594.8999999761581","","Was the sound coming from the left or the right?","1","","","1","INDUCTION-JUDGMENT","right","1","","","","","","","","","","","","","","","","","","","","","","","","","","",""
"html-keyboard-response","158","649522","0.0-4.0-1.0-2.45","3","0","n6snaq4jc4j5x5g","","null","","<p style=""color:#054d00;""><b>Correct!</b></p>","","null","","","","","","","","","","","","","","","","","","","","","","","","","","","","","","","",""
"audio-keyboard-response","159","650330","0.0-4.0-1.0-0.46","3","0","n6snaq4jc4j5x5g","","null","","sounds/induction/left_rev/ti_SWS.wav","","null","","","","","","","","","","","","","","","","","","","","","","","","","","","","","","","",""
"html-button-response","160","650958","0.0-4.0-1.0-1.46","3","0","n6snaq4jc4j5x5g","","626.6000000238419","","Was the sound coming from the left or the right?","0","","","1","INDUCTION-JUDGMENT","left","0","","","","","","","","","","","","","","","","","","","","","","","","","","",""
"html-keyboard-response","161","651959","0.0-4.0-1.0-2.46","3","0","n6snaq4jc4j5x5g","","null","","<p style=""color:#054d00;""><b>Correct!</b></p>","","null","","","","","","","","","","","","","","","","","","","","","","","","","","","","","","","",""
"audio-keyboard-response","162","652767","0.0-4.0-1.0-0.47","3","0","n6snaq4jc4j5x5g","","null","","sounds/induction/left_rev/ni_SWS.wav","","null","","","","","","","","","","","","","","","","","","","","","","","","","","","","","","","",""
"html-button-response","163","654006","0.0-4.0-1.0-1.47","3","0","n6snaq4jc4j5x5g","","1237.3999999761581","","Was the sound coming from the left or the right?","0","","","1","INDUCTION-JUDGMENT","left","0","","","","","","","","","","","","","","","","","","","","","","","","","","",""
"html-keyboard-response","164","655007","0.0-4.0-1.0-2.47","3","0","n6snaq4jc4j5x5g","","null","","<p style=""color:#054d00;""><b>Correct!</b></p>","","null","","","","","","","","","","","","","","","","","","","","","","","","","","","","","","","",""
"html-button-response","165","676953","0.0-5.0-0.0","3","0","n6snaq4jc4j5x5g","","21443.300000071526","","<p>Thank you for your answers.</p><p>You will now listen to similar sounds. The main difference is that the sounds will be longer.</p><p>Just as before, you will be asked to judge whether the sound was coming from the left or the right.</p><p>There are 10 of these longer sounds in total.","0","","","","","","","","","","","","","","","","","","","","","","","","","","","","","","","","",""
"audio-keyboard-response","166","679539","0.0-5.0-1.0-0.0","3","0","n6snaq4jc4j5x5g","","null","","sounds/sentences/left_rev/14_03_cfSWS.wav","","null","","","","","","","","","","","","","","","","","","","","","","","","","","","","","","","",""
"html-button-response","167","680917","0.0-5.0-1.0-1.0","3","0","n6snaq4jc4j5x5g","","1374.6000000238419","","Was the sound coming from the left or the right?","0","","","1","INDUCTION-JUDGMENT","left","0","","","","","","","","","","","","","","","","","","","","","","","","","","",""
"html-keyboard-response","168","681920","0.0-5.0-1.0-2.0","3","0","n6snaq4jc4j5x5g","","null","","<p style=""color:#054d00;""><b>Correct!</b></p>","","null","","","","","","","","","","","","","","","","","","","","","","","","","","","","","","","",""
"html-button-response","169","687678","0.0-5.0-1.0-3.0","3","0","n6snaq4jc4j5x5g","","5256.100000023842","","<p>Press the button below when you are ready to continue.</p>","0","","","","","","","","","","","","","","","","","","","","","","","","","","","","","","","","",""
"audio-keyboard-response","170","690499","0.0-5.0-1.0-0.1","3","0","n6snaq4jc4j5x5g","","null","","sounds/sentences/left_rev/14_02_cfSWS.wav","","null","","","","","","","","","","","","","","","","","","","","","","","","","","","","","","","",""
"html-button-response","171","691520","0.0-5.0-1.0-1.1","3","0","n6snaq4jc4j5x5g","","1019.5","","Was the sound coming from the left or the right?","0","","","1","INDUCTION-JUDGMENT","left","0","","","","","","","","","","","","","","","","","","","","","","","","","","",""
"html-keyboard-response","172","692522","0.0-5.0-1.0-2.1","3","0","n6snaq4jc4j5x5g","","null","","<p style=""color:#054d00;""><b>Correct!</b></p>","","null","","","","","","","","","","","","","","","","","","","","","","","","","","","","","","","",""
"html-button-response","173","694399","0.0-5.0-1.0-3.1","3","0","n6snaq4jc4j5x5g","","1372.2000000476837","","<p>Press the button below when you are ready to continue.</p>","0","","","","","","","","","","","","","","","","","","","","","","","","","","","","","","","","",""
"audio-keyboard-response","174","697389","0.0-5.0-1.0-0.2","3","0","n6snaq4jc4j5x5g","","null","","sounds/sentences/left_rev/14_05_cfSWS.wav","","null","","","","","","","","","","","","","","","","","","","","","","","","","","","","","","","",""
"html-button-response","175","698851","0.0-5.0-1.0-1.2","3","0","n6snaq4jc4j5x5g","","1460.1999999284744","","Was the sound coming from the left or the right?","0","","","1","INDUCTION-JUDGMENT","left","0","","","","","","","","","","","","","","","","","","","","","","","","","","",""
"html-keyboard-response","176","699852","0.0-5.0-1.0-2.2","3","0","n6snaq4jc4j5x5g","","null","","<p style=""color:#054d00;""><b>Correct!</b></p>","","null","","","","","","","","","","","","","","","","","","","","","","","","","","","","","","","",""
"html-button-response","177","701521","0.0-5.0-1.0-3.2","3","0","n6snaq4jc4j5x5g","","1163.2000000476837","","<p>Press the button below when you are ready to continue.</p>","0","","","","","","","","","","","","","","","","","","","","","","","","","","","","","","","","",""
"audio-keyboard-response","178","704535","0.0-5.0-1.0-0.3","3","0","n6snaq4jc4j5x5g","","null","","sounds/sentences/right_rev/14_10_cfSWS.wav","","null","","","","","","","","","","","","","","","","","","","","","","","","","","","","","","","",""
"html-button-response","179","706352","0.0-5.0-1.0-1.3","3","0","n6snaq4jc4j5x5g","","1815.3999999761581","","Was the sound coming from the left or the right?","1","","","1","INDUCTION-JUDGMENT","right","1","","","","","","","","","","","","","","","","","","","","","","","","","","",""
"html-keyboard-response","180","707354","0.0-5.0-1.0-2.3","3","0","n6snaq4jc4j5x5g","","null","","<p style=""color:#054d00;""><b>Correct!</b></p>","","null","","","","","","","","","","","","","","","","","","","","","","","","","","","","","","","",""
"html-button-response","181","711340","0.0-5.0-1.0-3.3","3","0","n6snaq4jc4j5x5g","","3484.8000000715256","","<p>Press the button below when you are ready to continue.</p>","0","","","","","","","","","","","","","","","","","","","","","","","","","","","","","","","","",""
"audio-keyboard-response","182","714087","0.0-5.0-1.0-0.4","3","0","n6snaq4jc4j5x5g","","null","","sounds/sentences/right_rev/14_06_cfSWS.wav","","null","","","","","","","","","","","","","","","","","","","","","","","","","","","","","","","",""
"html-button-response","183","715321","0.0-5.0-1.0-1.4","3","0","n6snaq4jc4j5x5g","","1232.2000000476837","","Was the sound coming from the left or the right?","1","","","1","INDUCTION-JUDGMENT","right","1","","","","","","","","","","","","","","","","","","","","","","","","","","",""
"html-keyboard-response","184","716323","0.0-5.0-1.0-2.4","3","0","n6snaq4jc4j5x5g","","null","","<p style=""color:#054d00;""><b>Correct!</b></p>","","null","","","","","","","","","","","","","","","","","","","","","","","","","","","","","","","",""
"html-button-response","185","717782","0.0-5.0-1.0-3.4","3","0","n6snaq4jc4j5x5g","","956.3999999761581","","<p>Press the button below when you are ready to continue.</p>","0","","","","","","","","","","","","","","","","","","","","","","","","","","","","","","","","",""
"audio-keyboard-response","186","720668","0.0-5.0-1.0-0.5","3","0","n6snaq4jc4j5x5g","","null","","sounds/sentences/right_rev/14_07_cfSWS.wav","","null","","","","","","","","","","","","","","","","","","","","","","","","","","","","","","","",""
"html-button-response","187","721354","0.0-5.0-1.0-1.5","3","0","n6snaq4jc4j5x5g","","683.6999999284744","","Was the sound coming from the left or the right?","1","","","1","INDUCTION-JUDGMENT","right","1","","","","","","","","","","","","","","","","","","","","","","","","","","",""
"html-keyboard-response","188","722359","0.0-5.0-1.0-2.5","3","0","n6snaq4jc4j5x5g","","null","","<p style=""color:#054d00;""><b>Correct!</b></p>","","null","","","","","","","","","","","","","","","","","","","","","","","","","","","","","","","",""
"html-button-response","189","723598","0.0-5.0-1.0-3.5","3","0","n6snaq4jc4j5x5g","","736.6999999284744","","<p>Press the button below when you are ready to continue.</p>","0","","","","","","","","","","","","","","","","","","","","","","","","","","","","","","","","",""
"audio-keyboard-response","190","726353","0.0-5.0-1.0-0.6","3","0","n6snaq4jc4j5x5g","","null","","sounds/sentences/right_rev/14_08_cfSWS.wav","","null","","","","","","","","","","","","","","","","","","","","","","","","","","","","","","","",""
"html-button-response","191","727016","0.0-5.0-1.0-1.6","3","0","n6snaq4jc4j5x5g","","661.5","","Was the sound coming from the left or the right?","1","","","1","INDUCTION-JUDGMENT","right","1","","","","","","","","","","","","","","","","","","","","","","","","","","",""
"html-keyboard-response","192","728021","0.0-5.0-1.0-2.6","3","0","n6snaq4jc4j5x5g","","null","","<p style=""color:#054d00;""><b>Correct!</b></p>","","null","","","","","","","","","","","","","","","","","","","","","","","","","","","","","","","",""
"html-button-response","193","729235","0.0-5.0-1.0-3.6","3","0","n6snaq4jc4j5x5g","","710.4000000953674","","<p>Press the button below when you are ready to continue.</p>","0","","","","","","","","","","","","","","","","","","","","","","","","","","","","","","","","",""
"audio-keyboard-response","194","731964","0.0-5.0-1.0-0.7","3","0","n6snaq4jc4j5x5g","","null","","sounds/sentences/right_rev/14_09_cfSWS.wav","","null","","","","","","","","","","","","","","","","","","","","","","","","","","","","","","","",""
"html-button-response","195","732759","0.0-5.0-1.0-1.7","3","0","n6snaq4jc4j5x5g","","793.6000000238419","","Was the sound coming from the left or the right?","1","","","1","INDUCTION-JUDGMENT","right","1","","","","","","","","","","","","","","","","","","","","","","","","","","",""
"html-keyboard-response","196","733762","0.0-5.0-1.0-2.7","3","0","n6snaq4jc4j5x5g","","null","","<p style=""color:#054d00;""><b>Correct!</b></p>","","null","","","","","","","","","","","","","","","","","","","","","","","","","","","","","","","",""
"html-button-response","197","735107","0.0-5.0-1.0-3.7","3","0","n6snaq4jc4j5x5g","","841.8000000715256","","<p>Press the button below when you are ready to continue.</p>","0","","","","","","","","","","","","","","","","","","","","","","","","","","","","","","","","",""
"audio-keyboard-response","198","737659","0.0-5.0-1.0-0.8","3","0","n6snaq4jc4j5x5g","","null","","sounds/sentences/left_rev/14_04_cfSWS.wav","","null","","","","","","","","","","","","","","","","","","","","","","","","","","","","","","","",""
"html-button-response","199","738750","0.0-5.0-1.0-1.8","3","0","n6snaq4jc4j5x5g","","1089.1999999284744","","Was the sound coming from the left or the right?","0","","","1","INDUCTION-JUDGMENT","left","0","","","","","","","","","","","","","","","","","","","","","","","","","","",""
"html-keyboard-response","200","739752","0.0-5.0-1.0-2.8","3","0","n6snaq4jc4j5x5g","","null","","<p style=""color:#054d00;""><b>Correct!</b></p>","","null","","","","","","","","","","","","","","","","","","","","","","","","","","","","","","","",""
"html-button-response","201","741590","0.0-5.0-1.0-3.8","3","0","n6snaq4jc4j5x5g","","1333.2000000476837","","<p>Press the button below when you are ready to continue.</p>","0","","","","","","","","","","","","","","","","","","","","","","","","","","","","","","","","",""
"audio-keyboard-response","202","744710","0.0-5.0-1.0-0.9","3","0","n6snaq4jc4j5x5g","","null","","sounds/sentences/left_rev/14_01_cfSWS.wav","","null","","","","","","","","","","","","","","","","","","","","","","","","","","","","","","","",""
"html-button-response","203","745803","0.0-5.0-1.0-1.9","3","0","n6snaq4jc4j5x5g","","1091.1999999284744","","Was the sound coming from the left or the right?","0","","","1","INDUCTION-JUDGMENT","left","0","","","","","","","","","","","","","","","","","","","","","","","","","","",""
"html-keyboard-response","204","746805","0.0-5.0-1.0-2.9","3","0","n6snaq4jc4j5x5g","","null","","<p style=""color:#054d00;""><b>Correct!</b></p>","","null","","","","","","","","","","","","","","","","","","","","","","","","","","","","","","","",""
"html-button-response","205","748538","0.0-5.0-1.0-3.9","3","0","n6snaq4jc4j5x5g","","1227","","<p>Press the button below when you are ready to continue.</p>","0","","","","","","","","","","","","","","","","","","","","","","","","","","","","","","","","",""
"html-keyboard-response","206","774499","0.0-6.0-0.0","3","0","n6snaq4jc4j5x5g","","25459.399999976158","","<p>In this part of the study, you will hear sounds similar to those you just heard.</p><p>Please focus on these sounds, as you may be asked questions about them later.</p><p>Occasionally, the sounds will pause for up to two seconds. When this happens, please press SPACEBAR as quickly as you can.</br>This helps ensure that you are paying attention to the sounds.</p><p>This part of the study will take about 12 minutes to complete, and you will be given the opportunity to take a couple of short breaks every few minutes.</p><p><strong>Press SPACEBAR to begin</strong></p>","","32","","","","","","","","","","","","","","","","","","","","","","","","","","","","","","","",""
"html-keyboard-response","207","775501","0.0-6.0-1.0-0.0","3","0","n6snaq4jc4j5x5g","","null","","<p style=""font-size: 40px;"">+</p>","","null","","","","","","","","","","","","","","","","","","","","","","","","","","","","","","","",""
"html-keyboard-response","208","960510","0.0-6.0-1.0-1.0","3","0","n6snaq4jc4j5x5g","","null","","","","null","","","SL-TRAIN","","","0","1636","639.2999999523163","sounds/C/TRAIN/SEQ__07.mp3","7","","","","","","","","","","","","","","","","","","","","","",""
"html-button-response","209","1047394","0.0-6.0-1.0-2.0","3","0","n6snaq4jc4j5x5g","","86882.5","","<p>You may take a short break if you wish.</p>","0","","","","","","","","","","","","","","","","","","","","","","","","","","","","","","","","",""
"html-keyboard-response","210","1048397","0.0-6.0-1.0-3.0","3","0","n6snaq4jc4j5x5g","","null","","<p style=""font-size: 40px;"">+</p>","","null","","","","","","","","","","","","","","","","","","","","","","","","","","","","","","","",""
"html-keyboard-response","211","1233402","0.0-6.0-1.0-4.0","3","0","n6snaq4jc4j5x5g","","null","","","","null","","","SL-TRAIN","","","0","1165.7000000476837","1196.1000000238419","sounds/C/TRAIN/SEQ__10.mp3","6","","","","","","","","","","","","","","","","","","","","","",""
"html-button-response","212","1236904","0.0-6.0-1.0-5.0","3","0","n6snaq4jc4j5x5g","","3499.7999999523163","","<p>You may take a short break if you wish.</p>","0","","","","","","","","","","","","","","","","","","","","","","","","","","","","","","","","",""
"html-keyboard-response","213","1237906","0.0-6.0-1.0-6.0","3","0","n6snaq4jc4j5x5g","","null","","<p style=""font-size: 40px;"">+</p>","","null","","","","","","","","","","","","","","","","","","","","","","","","","","","","","","","",""
"html-keyboard-response","214","1422914","0.0-6.0-1.0-7.0","3","0","n6snaq4jc4j5x5g","","null","","","","null","","","SL-TRAIN","","","0","1765","1463.8000000715256","sounds/C/TRAIN/SEQ__02.mp3","8","","","","","","","","","","","","","","","","","","","","","",""
"html-button-response","215","1930720","0.0-6.0-1.0-8.0","3","0","n6snaq4jc4j5x5g","","221259.5","","<p>You may take a short break if you wish.</p>","0","","","","","","","","","","","","","","","","","","","","","","","","","","","","","","","","",""
"html-keyboard-response","216","1931725","0.0-6.0-1.0-9.0","3","0","n6snaq4jc4j5x5g","","null","","<p style=""font-size: 40px;"">+</p>","","null","","","","","","","","","","","","","","","","","","","","","","","","","","","","","","","",""
"html-keyboard-response","217","2116733","0.0-6.0-1.0-10.0","3","0","n6snaq4jc4j5x5g","","null","","","","null","","","SL-TRAIN","","","0","1688","1270.2999999523163","sounds/C/TRAIN/SEQ__11.mp3","8","","","","","","","","","","","","","","","","","","","","","",""
"html-button-response","218","2124057","0.0-6.0-1.0-11.0","3","0","n6snaq4jc4j5x5g","","7321.5","","<p>You may take a short break if you wish.</p>","0","","","","","","","","","","","","","","","","","","","","","","","","","","","","","","","","",""
"html-button-response","219","2140676","0.0-7.0-0.0","3","0","n6snaq4jc4j5x5g","","16616.700000047684","","<p>Welcome to the second part of the study. This is a <u>familiarity task</u>.</p><p>You will now hear short sounds and will be asked to rate how familiar they sound to you <b>based on what you heard in the previous part of the study</b>.</p><p>You will rate 12 sounds in total.</p>","0","","","","","","","","","","","","","","","","","","","","","","","","","","","","","","","","",""
"html-keyboard-response","220","2141682","0.0-7.0-1.0-0.0","3","0","n6snaq4jc4j5x5g","","null","","","","null","","","","","","","","","","","","","","","","","","","","","","","","","","","","","","","",""
"audio-keyboard-response","221","2142670","0.0-7.0-1.0-1.0","3","0","n6snaq4jc4j5x5g","","null","","sounds/C/FAM/P002.mp3","","null","","","","","","","","","","","","","","","","","","","","","","","","","","","","","","","",""
"html-keyboard-response","222","2148546","0.0-7.0-1.0-2.0","3","0","n6snaq4jc4j5x5g","","5374","","<p>How familiar did this sound to you?</p><p>1&nbsp;&nbsp;&nbsp;&nbsp;&nbsp;&nbsp;&nbsp;&nbsp;&nbsp;&nbsp;&nbsp;&nbsp;&nbsp;&nbsp;&nbsp;&nbsp;&nbsp;&nbsp;&nbsp;2&nbsp;&nbsp;&nbsp;&nbsp;&nbsp;&nbsp;&nbsp;&nbsp;&nbsp;&nbsp;&nbsp;&nbsp;&nbsp;&nbsp;&nbsp;&nbsp;&nbsp;&nbsp;&nbsp;3&nbsp;&nbsp;&nbsp;&nbsp;&nbsp;&nbsp;&nbsp;&nbsp;&nbsp;&nbsp;&nbsp;&nbsp;&nbsp;&nbsp;&nbsp;&nbsp;&nbsp;&nbsp;&nbsp;4</p><p style=""font-size:14px"">Not at all familiar&nbsp;&nbsp;&nbsp;&nbsp;A little familiar&nbsp;&nbsp;&nbsp;Moderately familiar&nbsp;&nbsp;&nbsp;Extremely familiar</p><p>(press the corresponding number on your keyboard)</p>","","52","","","FAM-RESPONSE","","","","","","","","sounds/C/FAM/P002.mp3","partword","","","","","","","","","","","","","","","","","","","",""
"html-keyboard-response","223","2150552","0.0-7.0-1.0-0.1","3","0","n6snaq4jc4j5x5g","","null","","","","null","","","","","","","","","","","","","","","","","","","","","","","","","","","","","","","",""
"audio-keyboard-response","224","2151496","0.0-7.0-1.0-1.1","3","0","n6snaq4jc4j5x5g","","null","","sounds/C/FAM/N004.mp3","","null","","","","","","","","","","","","","","","","","","","","","","","","","","","","","","","",""
"html-keyboard-response","225","2153135","0.0-7.0-1.0-2.1","3","0","n6snaq4jc4j5x5g","","1137.3999999761581","","<p>How familiar did this sound to you?</p><p>1&nbsp;&nbsp;&nbsp;&nbsp;&nbsp;&nbsp;&nbsp;&nbsp;&nbsp;&nbsp;&nbsp;&nbsp;&nbsp;&nbsp;&nbsp;&nbsp;&nbsp;&nbsp;&nbsp;2&nbsp;&nbsp;&nbsp;&nbsp;&nbsp;&nbsp;&nbsp;&nbsp;&nbsp;&nbsp;&nbsp;&nbsp;&nbsp;&nbsp;&nbsp;&nbsp;&nbsp;&nbsp;&nbsp;3&nbsp;&nbsp;&nbsp;&nbsp;&nbsp;&nbsp;&nbsp;&nbsp;&nbsp;&nbsp;&nbsp;&nbsp;&nbsp;&nbsp;&nbsp;&nbsp;&nbsp;&nbsp;&nbsp;4</p><p style=""font-size:14px"">Not at all familiar&nbsp;&nbsp;&nbsp;&nbsp;A little familiar&nbsp;&nbsp;&nbsp;Moderately familiar&nbsp;&nbsp;&nbsp;Extremely familiar</p><p>(press the corresponding number on your keyboard)</p>","","52","","","FAM-RESPONSE","","","","","","","","sounds/C/FAM/N004.mp3","nonword","","","","","","","","","","","","","","","","","","","",""
"html-keyboard-response","226","2155141","0.0-7.0-1.0-0.2","3","0","n6snaq4jc4j5x5g","","null","","","","null","","","","","","","","","","","","","","","","","","","","","","","","","","","","","","","",""
"audio-keyboard-response","227","2156082","0.0-7.0-1.0-1.2","3","0","n6snaq4jc4j5x5g","","null","","sounds/C/FAM/P003.mp3","","null","","","","","","","","","","","","","","","","","","","","","","","","","","","","","","","",""
"html-keyboard-response","228","2159241","0.0-7.0-1.0-2.2","3","0","n6snaq4jc4j5x5g","","2657.2999999523163","","<p>How familiar did this sound to you?</p><p>1&nbsp;&nbsp;&nbsp;&nbsp;&nbsp;&nbsp;&nbsp;&nbsp;&nbsp;&nbsp;&nbsp;&nbsp;&nbsp;&nbsp;&nbsp;&nbsp;&nbsp;&nbsp;&nbsp;2&nbsp;&nbsp;&nbsp;&nbsp;&nbsp;&nbsp;&nbsp;&nbsp;&nbsp;&nbsp;&nbsp;&nbsp;&nbsp;&nbsp;&nbsp;&nbsp;&nbsp;&nbsp;&nbsp;3&nbsp;&nbsp;&nbsp;&nbsp;&nbsp;&nbsp;&nbsp;&nbsp;&nbsp;&nbsp;&nbsp;&nbsp;&nbsp;&nbsp;&nbsp;&nbsp;&nbsp;&nbsp;&nbsp;4</p><p style=""font-size:14px"">Not at all familiar&nbsp;&nbsp;&nbsp;&nbsp;A little familiar&nbsp;&nbsp;&nbsp;Moderately familiar&nbsp;&nbsp;&nbsp;Extremely familiar</p><p>(press the corresponding number on your keyboard)</p>","","52","","","FAM-RESPONSE","","","","","","","","sounds/C/FAM/P003.mp3","partword","","","","","","","","","","","","","","","","","","","",""
"html-keyboard-response","229","2161247","0.0-7.0-1.0-0.3","3","0","n6snaq4jc4j5x5g","","null","","","","null","","","","","","","","","","","","","","","","","","","","","","","","","","","","","","","",""
"audio-keyboard-response","230","2162189","0.0-7.0-1.0-1.3","3","0","n6snaq4jc4j5x5g","","null","","sounds/C/FAM/P004.mp3","","null","","","","","","","","","","","","","","","","","","","","","","","","","","","","","","","",""
"html-keyboard-response","231","2163633","0.0-7.0-1.0-2.3","3","0","n6snaq4jc4j5x5g","","938.5","","<p>How familiar did this sound to you?</p><p>1&nbsp;&nbsp;&nbsp;&nbsp;&nbsp;&nbsp;&nbsp;&nbsp;&nbsp;&nbsp;&nbsp;&nbsp;&nbsp;&nbsp;&nbsp;&nbsp;&nbsp;&nbsp;&nbsp;2&nbsp;&nbsp;&nbsp;&nbsp;&nbsp;&nbsp;&nbsp;&nbsp;&nbsp;&nbsp;&nbsp;&nbsp;&nbsp;&nbsp;&nbsp;&nbsp;&nbsp;&nbsp;&nbsp;3&nbsp;&nbsp;&nbsp;&nbsp;&nbsp;&nbsp;&nbsp;&nbsp;&nbsp;&nbsp;&nbsp;&nbsp;&nbsp;&nbsp;&nbsp;&nbsp;&nbsp;&nbsp;&nbsp;4</p><p style=""font-size:14px"">Not at all familiar&nbsp;&nbsp;&nbsp;&nbsp;A little familiar&nbsp;&nbsp;&nbsp;Moderately familiar&nbsp;&nbsp;&nbsp;Extremely familiar</p><p>(press the corresponding number on your keyboard)</p>","","52","","","FAM-RESPONSE","","","","","","","","sounds/C/FAM/P004.mp3","partword","","","","","","","","","","","","","","","","","","","",""
"html-keyboard-response","232","2165634","0.0-7.0-1.0-0.4","3","0","n6snaq4jc4j5x5g","","null","","","","null","","","","","","","","","","","","","","","","","","","","","","","","","","","","","","","",""
"audio-keyboard-response","233","2166579","0.0-7.0-1.0-1.4","3","0","n6snaq4jc4j5x5g","","null","","sounds/C/FAM/W004.mp3","","null","","","","","","","","","","","","","","","","","","","","","","","","","","","","","","","",""
"html-keyboard-response","234","2169132","0.0-7.0-1.0-2.4","3","0","n6snaq4jc4j5x5g","","2048.5","","<p>How familiar did this sound to you?</p><p>1&nbsp;&nbsp;&nbsp;&nbsp;&nbsp;&nbsp;&nbsp;&nbsp;&nbsp;&nbsp;&nbsp;&nbsp;&nbsp;&nbsp;&nbsp;&nbsp;&nbsp;&nbsp;&nbsp;2&nbsp;&nbsp;&nbsp;&nbsp;&nbsp;&nbsp;&nbsp;&nbsp;&nbsp;&nbsp;&nbsp;&nbsp;&nbsp;&nbsp;&nbsp;&nbsp;&nbsp;&nbsp;&nbsp;3&nbsp;&nbsp;&nbsp;&nbsp;&nbsp;&nbsp;&nbsp;&nbsp;&nbsp;&nbsp;&nbsp;&nbsp;&nbsp;&nbsp;&nbsp;&nbsp;&nbsp;&nbsp;&nbsp;4</p><p style=""font-size:14px"">Not at all familiar&nbsp;&nbsp;&nbsp;&nbsp;A little familiar&nbsp;&nbsp;&nbsp;Moderately familiar&nbsp;&nbsp;&nbsp;Extremely familiar</p><p>(press the corresponding number on your keyboard)</p>","","50","","","FAM-RESPONSE","","","","","","","","sounds/C/FAM/W004.mp3","word","","","","","","","","","","","","","","","","","","","",""
"html-keyboard-response","235","2171138","0.0-7.0-1.0-0.5","3","0","n6snaq4jc4j5x5g","","null","","","","null","","","","","","","","","","","","","","","","","","","","","","","","","","","","","","","",""
"audio-keyboard-response","236","2172082","0.0-7.0-1.0-1.5","3","0","n6snaq4jc4j5x5g","","null","","sounds/C/FAM/P001.mp3","","null","","","","","","","","","","","","","","","","","","","","","","","","","","","","","","","",""
"html-keyboard-response","237","2173560","0.0-7.0-1.0-2.5","3","0","n6snaq4jc4j5x5g","","976.8000000715256","","<p>How familiar did this sound to you?</p><p>1&nbsp;&nbsp;&nbsp;&nbsp;&nbsp;&nbsp;&nbsp;&nbsp;&nbsp;&nbsp;&nbsp;&nbsp;&nbsp;&nbsp;&nbsp;&nbsp;&nbsp;&nbsp;&nbsp;2&nbsp;&nbsp;&nbsp;&nbsp;&nbsp;&nbsp;&nbsp;&nbsp;&nbsp;&nbsp;&nbsp;&nbsp;&nbsp;&nbsp;&nbsp;&nbsp;&nbsp;&nbsp;&nbsp;3&nbsp;&nbsp;&nbsp;&nbsp;&nbsp;&nbsp;&nbsp;&nbsp;&nbsp;&nbsp;&nbsp;&nbsp;&nbsp;&nbsp;&nbsp;&nbsp;&nbsp;&nbsp;&nbsp;4</p><p style=""font-size:14px"">Not at all familiar&nbsp;&nbsp;&nbsp;&nbsp;A little familiar&nbsp;&nbsp;&nbsp;Moderately familiar&nbsp;&nbsp;&nbsp;Extremely familiar</p><p>(press the corresponding number on your keyboard)</p>","","49","","","FAM-RESPONSE","","","","","","","","sounds/C/FAM/P001.mp3","partword","","","","","","","","","","","","","","","","","","","",""
"html-keyboard-response","238","2175564","0.0-7.0-1.0-0.6","3","0","n6snaq4jc4j5x5g","","null","","","","null","","","","","","","","","","","","","","","","","","","","","","","","","","","","","","","",""
"audio-keyboard-response","239","2176508","0.0-7.0-1.0-1.6","3","0","n6snaq4jc4j5x5g","","null","","sounds/C/FAM/W002.mp3","","null","","","","","","","","","","","","","","","","","","","","","","","","","","","","","","","",""
"html-keyboard-response","240","2178332","0.0-7.0-1.0-2.6","3","0","n6snaq4jc4j5x5g","","1322.5","","<p>How familiar did this sound to you?</p><p>1&nbsp;&nbsp;&nbsp;&nbsp;&nbsp;&nbsp;&nbsp;&nbsp;&nbsp;&nbsp;&nbsp;&nbsp;&nbsp;&nbsp;&nbsp;&nbsp;&nbsp;&nbsp;&nbsp;2&nbsp;&nbsp;&nbsp;&nbsp;&nbsp;&nbsp;&nbsp;&nbsp;&nbsp;&nbsp;&nbsp;&nbsp;&nbsp;&nbsp;&nbsp;&nbsp;&nbsp;&nbsp;&nbsp;3&nbsp;&nbsp;&nbsp;&nbsp;&nbsp;&nbsp;&nbsp;&nbsp;&nbsp;&nbsp;&nbsp;&nbsp;&nbsp;&nbsp;&nbsp;&nbsp;&nbsp;&nbsp;&nbsp;4</p><p style=""font-size:14px"">Not at all familiar&nbsp;&nbsp;&nbsp;&nbsp;A little familiar&nbsp;&nbsp;&nbsp;Moderately familiar&nbsp;&nbsp;&nbsp;Extremely familiar</p><p>(press the corresponding number on your keyboard)</p>","","52","","","FAM-RESPONSE","","","","","","","","sounds/C/FAM/W002.mp3","word","","","","","","","","","","","","","","","","","","","",""
"html-keyboard-response","241","2180339","0.0-7.0-1.0-0.7","3","0","n6snaq4jc4j5x5g","","null","","","","null","","","","","","","","","","","","","","","","","","","","","","","","","","","","","","","",""
"audio-keyboard-response","242","2181281","0.0-7.0-1.0-1.7","3","0","n6snaq4jc4j5x5g","","null","","sounds/C/FAM/N003.mp3","","null","","","","","","","","","","","","","","","","","","","","","","","","","","","","","","","",""
"html-keyboard-response","243","2182727","0.0-7.0-1.0-2.7","3","0","n6snaq4jc4j5x5g","","944.3999999761581","","<p>How familiar did this sound to you?</p><p>1&nbsp;&nbsp;&nbsp;&nbsp;&nbsp;&nbsp;&nbsp;&nbsp;&nbsp;&nbsp;&nbsp;&nbsp;&nbsp;&nbsp;&nbsp;&nbsp;&nbsp;&nbsp;&nbsp;2&nbsp;&nbsp;&nbsp;&nbsp;&nbsp;&nbsp;&nbsp;&nbsp;&nbsp;&nbsp;&nbsp;&nbsp;&nbsp;&nbsp;&nbsp;&nbsp;&nbsp;&nbsp;&nbsp;3&nbsp;&nbsp;&nbsp;&nbsp;&nbsp;&nbsp;&nbsp;&nbsp;&nbsp;&nbsp;&nbsp;&nbsp;&nbsp;&nbsp;&nbsp;&nbsp;&nbsp;&nbsp;&nbsp;4</p><p style=""font-size:14px"">Not at all familiar&nbsp;&nbsp;&nbsp;&nbsp;A little familiar&nbsp;&nbsp;&nbsp;Moderately familiar&nbsp;&nbsp;&nbsp;Extremely familiar</p><p>(press the corresponding number on your keyboard)</p>","","49","","","FAM-RESPONSE","","","","","","","","sounds/C/FAM/N003.mp3","nonword","","","","","","","","","","","","","","","","","","","",""
"html-keyboard-response","244","2184731","0.0-7.0-1.0-0.8","3","0","n6snaq4jc4j5x5g","","null","","","","null","","","","","","","","","","","","","","","","","","","","","","","","","","","","","","","",""
"audio-keyboard-response","245","2185676","0.0-7.0-1.0-1.8","3","0","n6snaq4jc4j5x5g","","null","","sounds/C/FAM/N001.mp3","","null","","","","","","","","","","","","","","","","","","","","","","","","","","","","","","","",""
"html-keyboard-response","246","2187042","0.0-7.0-1.0-2.8","3","0","n6snaq4jc4j5x5g","","862.7999999523163","","<p>How familiar did this sound to you?</p><p>1&nbsp;&nbsp;&nbsp;&nbsp;&nbsp;&nbsp;&nbsp;&nbsp;&nbsp;&nbsp;&nbsp;&nbsp;&nbsp;&nbsp;&nbsp;&nbsp;&nbsp;&nbsp;&nbsp;2&nbsp;&nbsp;&nbsp;&nbsp;&nbsp;&nbsp;&nbsp;&nbsp;&nbsp;&nbsp;&nbsp;&nbsp;&nbsp;&nbsp;&nbsp;&nbsp;&nbsp;&nbsp;&nbsp;3&nbsp;&nbsp;&nbsp;&nbsp;&nbsp;&nbsp;&nbsp;&nbsp;&nbsp;&nbsp;&nbsp;&nbsp;&nbsp;&nbsp;&nbsp;&nbsp;&nbsp;&nbsp;&nbsp;4</p><p style=""font-size:14px"">Not at all familiar&nbsp;&nbsp;&nbsp;&nbsp;A little familiar&nbsp;&nbsp;&nbsp;Moderately familiar&nbsp;&nbsp;&nbsp;Extremely familiar</p><p>(press the corresponding number on your keyboard)</p>","","49","","","FAM-RESPONSE","","","","","","","","sounds/C/FAM/N001.mp3","nonword","","","","","","","","","","","","","","","","","","","",""
"html-keyboard-response","247","2189046","0.0-7.0-1.0-0.9","3","0","n6snaq4jc4j5x5g","","null","","","","null","","","","","","","","","","","","","","","","","","","","","","","","","","","","","","","",""
"audio-keyboard-response","248","2189990","0.0-7.0-1.0-1.9","3","0","n6snaq4jc4j5x5g","","null","","sounds/C/FAM/W003.mp3","","null","","","","","","","","","","","","","","","","","","","","","","","","","","","","","","","",""
"html-keyboard-response","249","2194762","0.0-7.0-1.0-2.9","3","0","n6snaq4jc4j5x5g","","4267.199999928474","","<p>How familiar did this sound to you?</p><p>1&nbsp;&nbsp;&nbsp;&nbsp;&nbsp;&nbsp;&nbsp;&nbsp;&nbsp;&nbsp;&nbsp;&nbsp;&nbsp;&nbsp;&nbsp;&nbsp;&nbsp;&nbsp;&nbsp;2&nbsp;&nbsp;&nbsp;&nbsp;&nbsp;&nbsp;&nbsp;&nbsp;&nbsp;&nbsp;&nbsp;&nbsp;&nbsp;&nbsp;&nbsp;&nbsp;&nbsp;&nbsp;&nbsp;3&nbsp;&nbsp;&nbsp;&nbsp;&nbsp;&nbsp;&nbsp;&nbsp;&nbsp;&nbsp;&nbsp;&nbsp;&nbsp;&nbsp;&nbsp;&nbsp;&nbsp;&nbsp;&nbsp;4</p><p style=""font-size:14px"">Not at all familiar&nbsp;&nbsp;&nbsp;&nbsp;A little familiar&nbsp;&nbsp;&nbsp;Moderately familiar&nbsp;&nbsp;&nbsp;Extremely familiar</p><p>(press the corresponding number on your keyboard)</p>","","50","","","FAM-RESPONSE","","","","","","","","sounds/C/FAM/W003.mp3","word","","","","","","","","","","","","","","","","","","","",""
"html-keyboard-response","250","2196768","0.0-7.0-1.0-0.10","3","0","n6snaq4jc4j5x5g","","null","","","","null","","","","","","","","","","","","","","","","","","","","","","","","","","","","","","","",""
"audio-keyboard-response","251","2197713","0.0-7.0-1.0-1.10","3","0","n6snaq4jc4j5x5g","","null","","sounds/C/FAM/N002.mp3","","null","","","","","","","","","","","","","","","","","","","","","","","","","","","","","","","",""
"html-keyboard-response","252","2200713","0.0-7.0-1.0-2.10","3","0","n6snaq4jc4j5x5g","","2499.2000000476837","","<p>How familiar did this sound to you?</p><p>1&nbsp;&nbsp;&nbsp;&nbsp;&nbsp;&nbsp;&nbsp;&nbsp;&nbsp;&nbsp;&nbsp;&nbsp;&nbsp;&nbsp;&nbsp;&nbsp;&nbsp;&nbsp;&nbsp;2&nbsp;&nbsp;&nbsp;&nbsp;&nbsp;&nbsp;&nbsp;&nbsp;&nbsp;&nbsp;&nbsp;&nbsp;&nbsp;&nbsp;&nbsp;&nbsp;&nbsp;&nbsp;&nbsp;3&nbsp;&nbsp;&nbsp;&nbsp;&nbsp;&nbsp;&nbsp;&nbsp;&nbsp;&nbsp;&nbsp;&nbsp;&nbsp;&nbsp;&nbsp;&nbsp;&nbsp;&nbsp;&nbsp;4</p><p style=""font-size:14px"">Not at all familiar&nbsp;&nbsp;&nbsp;&nbsp;A little familiar&nbsp;&nbsp;&nbsp;Moderately familiar&nbsp;&nbsp;&nbsp;Extremely familiar</p><p>(press the corresponding number on your keyboard)</p>","","51","","","FAM-RESPONSE","","","","","","","","sounds/C/FAM/N002.mp3","nonword","","","","","","","","","","","","","","","","","","","",""
"html-keyboard-response","253","2202720","0.0-7.0-1.0-0.11","3","0","n6snaq4jc4j5x5g","","null","","","","null","","","","","","","","","","","","","","","","","","","","","","","","","","","","","","","",""
"audio-keyboard-response","254","2203664","0.0-7.0-1.0-1.11","3","0","n6snaq4jc4j5x5g","","null","","sounds/C/FAM/W001.mp3","","null","","","","","","","","","","","","","","","","","","","","","","","","","","","","","","","",""
"html-keyboard-response","255","2206185","0.0-7.0-1.0-2.11","3","0","n6snaq4jc4j5x5g","","2019.2999999523163","","<p>How familiar did this sound to you?</p><p>1&nbsp;&nbsp;&nbsp;&nbsp;&nbsp;&nbsp;&nbsp;&nbsp;&nbsp;&nbsp;&nbsp;&nbsp;&nbsp;&nbsp;&nbsp;&nbsp;&nbsp;&nbsp;&nbsp;2&nbsp;&nbsp;&nbsp;&nbsp;&nbsp;&nbsp;&nbsp;&nbsp;&nbsp;&nbsp;&nbsp;&nbsp;&nbsp;&nbsp;&nbsp;&nbsp;&nbsp;&nbsp;&nbsp;3&nbsp;&nbsp;&nbsp;&nbsp;&nbsp;&nbsp;&nbsp;&nbsp;&nbsp;&nbsp;&nbsp;&nbsp;&nbsp;&nbsp;&nbsp;&nbsp;&nbsp;&nbsp;&nbsp;4</p><p style=""font-size:14px"">Not at all familiar&nbsp;&nbsp;&nbsp;&nbsp;A little familiar&nbsp;&nbsp;&nbsp;Moderately familiar&nbsp;&nbsp;&nbsp;Extremely familiar</p><p>(press the corresponding number on your keyboard)</p>","","52","","","FAM-RESPONSE","","","","","","","","sounds/C/FAM/W001.mp3","word","","","","","","","","","","","","","","","","","","","",""
"html-button-response","256","2222788","0.0-8.0-0.0","3","0","n6snaq4jc4j5x5g","","15599.600000023842","","<p>You will now listen to longer sound sequences.</p><p>Each sound sequence will last about 16 seconds.</p><p>On each trial, you will be given a <u>TARGET SOUND</u>. Your task is to listen very carefully for this sound.</p><p>Every time you hear the <u>TARGET SOUND</u>, you will press the <b>SPACEBAR</b> as quickly and accurately as you can.</p>","0","","","","","","","","","","","","","","","","","","","","","","","","","","","","","","","","",""
"html-button-response","257","2235812","0.0-8.0-1.0","3","0","n6snaq4jc4j5x5g","","12769.599999904633","","<p>It is very important that you make your responses as quickly and accurately as possible.</p><p>To help you make your responses, you will be able to listen to the <u>TARGET SOUND</u> at the beginning of each trial.</p><p>There will be 36 total trials.</p><p><b>Note: This is meant to be a difficult task. We simply want you to try your best.</p>","0","","","","","","","","","","","","","","","","","","","","","","","","","","","","","","","","",""
"html-button-response","258","2239135","0.0-8.0-2.0-0.0","3","0","n6snaq4jc4j5x5g","","3069.0999999046326","","<p>Trial 1 of 36</p>","0","","","","","","","","","","","","","","KO","sounds/syllables/ko_SWS.wav","1800,5400,9900,11700","1","","","","","","","","","","","","","","","",""
"html-keyboard-response","259","2243092","0.0-8.0-2.0-1.0","3","0","n6snaq4jc4j5x5g","","3956","","","","80","","","","","","","","","","","","","KO","","1800,5400,9900,11700","1","","","","","","","","","","","","","","","",""
"audio-keyboard-response","260","2243443","0.0-8.0-2.0-2.0-0.0","3","0","n6snaq4jc4j5x5g","","null","","sounds/syllables/ko_SWS.wav","","null","","","","","","","","","","","","","","","","","","","","","","","","","","","","","","","",""
"html-keyboard-response","261","2245588","0.0-8.0-2.0-2.0-1.0","3","0","n6snaq4jc4j5x5g","","2144.0999999046326","","<p>To replay the <u>TARGET SOUND</u>, press P.</p> When you are ready to begin, press SPACEBAR.","","80","","","","","","","","","","","","","","","","","","","","","","","","","","","","","","","",""
"audio-keyboard-response","262","2246398","0.0-8.0-2.0-2.1-0.1","3","0","n6snaq4jc4j5x5g","","null","","sounds/syllables/ko_SWS.wav","","null","","","","","","","","","","","","","","","","","","","","","","","","","","","","","","","",""
"html-keyboard-response","263","2250225","0.0-8.0-2.0-2.1-1.1","3","0","n6snaq4jc4j5x5g","","3826.2000000476837","","<p>To replay the <u>TARGET SOUND</u>, press P.</p> When you are ready to begin, press SPACEBAR.","","80","","","","","","","","","","","","","","","","","","","","","","","","","","","","","","","",""
"audio-keyboard-response","264","2251032","0.0-8.0-2.0-2.2-0.2","3","0","n6snaq4jc4j5x5g","","null","","sounds/syllables/ko_SWS.wav","","null","","","","","","","","","","","","","","","","","","","","","","","","","","","","","","","",""
"html-keyboard-response","265","2252205","0.0-8.0-2.0-2.2-1.2","3","0","n6snaq4jc4j5x5g","","1172.1000000238419","","<p>To replay the <u>TARGET SOUND</u>, press P.</p> When you are ready to begin, press SPACEBAR.","","32","","","","","","","","","","","","","","","","","","","","","","","","","","","","","","","",""
"audio-keyboard-response","266","2267154","0.0-8.0-2.0-3.0","3","0","n6snaq4jc4j5x5g","","2443","","sounds/C/TD/KO_03_TD.mp3","","32","","","TD_SUMMARY","","","","","","","","","","KO","","1800,5400,9900,11700","1","1800","5400","9900","11700","642.7999999523163","770.3999999761581","340.2999999523163","null","2442.7999999523163_6170.399999976158_10240.299999952316","3","","","","","",""
"html-button-response","267","2272278","0.0-8.0-2.0-0.1","3","0","n6snaq4jc4j5x5g","","5120.899999976158","","<p>Trial 2 of 36</p>","0","","","","","","","","","","","","","","GE","sounds/syllables/ge_SWS.wav","1500,8700,10500,12300","3","","","","","","","","","","","","","","","",""
"html-keyboard-response","268","2274156","0.0-8.0-2.0-1.1","3","0","n6snaq4jc4j5x5g","","1876","","","","80","","","","","","","","","","","","","GE","","1500,8700,10500,12300","3","","","","","","","","","","","","","","","",""
"audio-keyboard-response","269","2274460","0.0-8.0-2.0-2.3-0.3","3","0","n6snaq4jc4j5x5g","","null","","sounds/syllables/ge_SWS.wav","","null","","","","","","","","","","","","","","","","","","","","","","","","","","","","","","","",""
"html-keyboard-response","270","2276612","0.0-8.0-2.0-2.3-1.3","3","0","n6snaq4jc4j5x5g","","2150.6999999284744","","<p>To replay the <u>TARGET SOUND</u>, press P.</p> When you are ready to begin, press SPACEBAR.","","80","","","","","","","","","","","","","","","","","","","","","","","","","","","","","","","",""
"audio-keyboard-response","271","2277415","0.0-8.0-2.0-2.4-0.4","3","0","n6snaq4jc4j5x5g","","null","","sounds/syllables/ge_SWS.wav","","null","","","","","","","","","","","","","","","","","","","","","","","","","","","","","","","",""
"html-keyboard-response","272","2281928","0.0-8.0-2.0-2.4-1.4","3","0","n6snaq4jc4j5x5g","","4512.600000023842","","<p>To replay the <u>TARGET SOUND</u>, press P.</p> When you are ready to begin, press SPACEBAR.","","80","","","","","","","","","","","","","","","","","","","","","","","","","","","","","","","",""
"audio-keyboard-response","273","2282732","0.0-8.0-2.0-2.5-0.5","3","0","n6snaq4jc4j5x5g","","null","","sounds/syllables/ge_SWS.wav","","null","","","","","","","","","","","","","","","","","","","","","","","","","","","","","","","",""
"html-keyboard-response","274","2283631","0.0-8.0-2.0-2.5-1.5","3","0","n6snaq4jc4j5x5g","","897.8000000715256","","<p>To replay the <u>TARGET SOUND</u>, press P.</p> When you are ready to begin, press SPACEBAR.","","32","","","","","","","","","","","","","","","","","","","","","","","","","","","","","","","",""
"audio-keyboard-response","275","2298582","0.0-8.0-2.0-3.1","3","0","n6snaq4jc4j5x5g","","1109","","sounds/C/TD/GE_03_TD.mp3","","32","","","TD_SUMMARY","","","","","","","","","","GE","","1500,8700,10500,12300","3","1500","8700","10500","12300","1093.2000000476837","null","null","765.1000000238419","___1109.3999999761581_2593.2000000476837_4096.600000023842_6210_8809.100000023842_10640.600000023842_13065.100000023842","3","","","","","",""
"html-button-response","276","2299871","0.0-8.0-2.0-0.2","3","0","n6snaq4jc4j5x5g","","1285.8999999761581","","<p>Trial 3 of 36</p>","0","","","","","","","","","","","","","","FE","sounds/syllables/fe_SWS.wav","3900,5700,8400,11100","2","","","","","","","","","","","","","","","",""
"html-keyboard-response","277","2302027","0.0-8.0-2.0-1.2","3","0","n6snaq4jc4j5x5g","","2155.6999999284744","","","","80","","","","","","","","","","","","","FE","","3900,5700,8400,11100","2","","","","","","","","","","","","","","","",""
"audio-keyboard-response","278","2302331","0.0-8.0-2.0-2.6-0.6","3","0","n6snaq4jc4j5x5g","","null","","sounds/syllables/fe_SWS.wav","","null","","","","","","","","","","","","","","","","","","","","","","","","","","","","","","","",""
"html-keyboard-response","279","2303125","0.0-8.0-2.0-2.6-1.6","3","0","n6snaq4jc4j5x5g","","792.8999999761581","","<p>To replay the <u>TARGET SOUND</u>, press P.</p> When you are ready to begin, press SPACEBAR.","","80","","","","","","","","","","","","","","","","","","","","","","","","","","","","","","","",""
"audio-keyboard-response","280","2303931","0.0-8.0-2.0-2.7-0.7","3","0","n6snaq4jc4j5x5g","","null","","sounds/syllables/fe_SWS.wav","","null","","","","","","","","","","","","","","","","","","","","","","","","","","","","","","","",""
"html-keyboard-response","281","2304449","0.0-8.0-2.0-2.7-1.7","3","0","n6snaq4jc4j5x5g","","517.0999999046326","","<p>To replay the <u>TARGET SOUND</u>, press P.</p> When you are ready to begin, press SPACEBAR.","","80","","","","","","","","","","","","","","","","","","","","","","","","","","","","","","","",""
"audio-keyboard-response","282","2305254","0.0-8.0-2.0-2.8-0.8","3","0","n6snaq4jc4j5x5g","","null","","sounds/syllables/fe_SWS.wav","","null","","","","","","","","","","","","","","","","","","","","","","","","","","","","","","","",""
"html-keyboard-response","283","2307276","0.0-8.0-2.0-2.8-1.8","3","0","n6snaq4jc4j5x5g","","2021","","<p>To replay the <u>TARGET SOUND</u>, press P.</p> When you are ready to begin, press SPACEBAR.","","32","","","","","","","","","","","","","","","","","","","","","","","","","","","","","","","",""
"audio-keyboard-response","284","2322224","0.0-8.0-2.0-3.2","3","0","n6snaq4jc4j5x5g","","3243","","sounds/C/TD/FE_07_TD.mp3","","32","","","TD_SUMMARY","","","","","","","","","","FE","","3900,5700,8400,11100","2","3900","5700","8400","11100","559","420.10000002384186","null","392.8000000715256","__________3245.600000023842_4459_6120.100000023842_8019_9730.800000071526_11492.800000071526_13691.900000095367","3","","","","","",""
"html-button-response","285","2324593","0.0-8.0-2.0-0.3","3","0","n6snaq4jc4j5x5g","","2366.2999999523163","","<p>Trial 4 of 36</p>","0","","","","","","","","","","","","","","SU","sounds/syllables/su_SWS.wav","5400,7200,9000,10800","1","","","","","","","","","","","","","","","",""
"html-keyboard-response","286","2326181","0.0-8.0-2.0-1.3","3","0","n6snaq4jc4j5x5g","","1587","","","","80","","","","","","","","","","","","","SU","","5400,7200,9000,10800","1","","","","","","","","","","","","","","","",""
"audio-keyboard-response","287","2326485","0.0-8.0-2.0-2.9-0.9","3","0","n6snaq4jc4j5x5g","","null","","sounds/syllables/su_SWS.wav","","null","","","","","","","","","","","","","","","","","","","","","","","","","","","","","","","",""
"html-keyboard-response","288","2327578","0.0-8.0-2.0-2.9-1.9","3","0","n6snaq4jc4j5x5g","","1092.4000000953674","","<p>To replay the <u>TARGET SOUND</u>, press P.</p> When you are ready to begin, press SPACEBAR.","","80","","","","","","","","","","","","","","","","","","","","","","","","","","","","","","","",""
"audio-keyboard-response","289","2328384","0.0-8.0-2.0-2.10-0.10","3","0","n6snaq4jc4j5x5g","","null","","sounds/syllables/su_SWS.wav","","null","","","","","","","","","","","","","","","","","","","","","","","","","","","","","","","",""
"html-keyboard-response","290","2328900","0.0-8.0-2.0-2.10-1.10","3","0","n6snaq4jc4j5x5g","","515.3000000715256","","<p>To replay the <u>TARGET SOUND</u>, press P.</p> When you are ready to begin, press SPACEBAR.","","32","","","","","","","","","","","","","","","","","","","","","","","","","","","","","","","",""
"audio-keyboard-response","291","2343850","0.0-8.0-2.0-3.3","3","0","n6snaq4jc4j5x5g","","5077","","sounds/C/TD/SU_03_TD.mp3","","32","","","TD_SUMMARY","","","","","","","","","","SU","","5400,7200,9000,10800","1","5400","7200","9000","10800","774.6000000238419","649.1999999284744","null","457.5","_________________5081_6174.600000023842_7849.199999928474_9189.899999976158_11257.5_13002.199999928474","2","","","","","",""
"html-button-response","292","2345187","0.0-8.0-2.0-0.4","3","0","n6snaq4jc4j5x5g","","1335.1999999284744","","<p>Trial 5 of 36</p>","0","","","","","","","","","","","","","","NI","sounds/syllables/ni_SWS.wav","2700,4500,9000,10800","1","","","","","","","","","","","","","","","",""
"html-keyboard-response","293","2346182","0.0-8.0-2.0-1.4","3","0","n6snaq4jc4j5x5g","","994","","","","80","","","","","","","","","","","","","NI","","2700,4500,9000,10800","1","","","","","","","","","","","","","","","",""
"audio-keyboard-response","294","2346484","0.0-8.0-2.0-2.11-0.11","3","0","n6snaq4jc4j5x5g","","null","","sounds/syllables/ni_SWS.wav","","null","","","","","","","","","","","","","","","","","","","","","","","","","","","","","","","",""
"html-keyboard-response","295","2347356","0.0-8.0-2.0-2.11-1.11","3","0","n6snaq4jc4j5x5g","","870.5999999046326","","<p>To replay the <u>TARGET SOUND</u>, press P.</p> When you are ready to begin, press SPACEBAR.","","80","","","","","","","","","","","","","","","","","","","","","","","","","","","","","","","",""
"audio-keyboard-response","296","2348159","0.0-8.0-2.0-2.12-0.12","3","0","n6snaq4jc4j5x5g","","null","","sounds/syllables/ni_SWS.wav","","null","","","","","","","","","","","","","","","","","","","","","","","","","","","","","","","",""
"html-keyboard-response","297","2349188","0.0-8.0-2.0-2.12-1.12","3","0","n6snaq4jc4j5x5g","","1028","","<p>To replay the <u>TARGET SOUND</u>, press P.</p> When you are ready to begin, press SPACEBAR.","","32","","","","","","","","","","","","","","","","","","","","","","","","","","","","","","","",""
"audio-keyboard-response","298","2364137","0.0-8.0-2.0-3.4","3","0","n6snaq4jc4j5x5g","","2005","","sounds/C/TD/NI_01_TD.mp3","","32","","","TD_SUMMARY","","","","","","","","","","NI","","2700,4500,9000,10800","1","2700","4500","9000","10800","530.7000000476837","369.89999997615814","null","1174.3999999761581","_______________________2006.2999999523163_3230.7000000476837_4869.899999976158_6113.600000023842_7401.399999976158_8772.399999976158_10756.5_11974.399999976158_13158.200000047684","2","","","","","",""
"html-button-response","299","2367018","0.0-8.0-2.0-0.5","3","0","n6snaq4jc4j5x5g","","2879.1999999284744","","<p>Trial 6 of 36</p>","0","","","","","","","","","","","","","","NI","sounds/syllables/ni_SWS.wav","900,5400,9000,10800","1","","","","","","","","","","","","","","","",""
"html-keyboard-response","300","2368108","0.0-8.0-2.0-1.5","3","0","n6snaq4jc4j5x5g","","1089.1000000238419","","","","80","","","","","","","","","","","","","NI","","900,5400,9000,10800","1","","","","","","","","","","","","","","","",""
"audio-keyboard-response","301","2368409","0.0-8.0-2.0-2.13-0.13","3","0","n6snaq4jc4j5x5g","","null","","sounds/syllables/ni_SWS.wav","","null","","","","","","","","","","","","","","","","","","","","","","","","","","","","","","","",""
"html-keyboard-response","302","2369699","0.0-8.0-2.0-2.13-1.13","3","0","n6snaq4jc4j5x5g","","1289.1000000238419","","<p>To replay the <u>TARGET SOUND</u>, press P.</p> When you are ready to begin, press SPACEBAR.","","80","","","","","","","","","","","","","","","","","","","","","","","","","","","","","","","",""
"audio-keyboard-response","303","2370505","0.0-8.0-2.0-2.14-0.14","3","0","n6snaq4jc4j5x5g","","null","","sounds/syllables/ni_SWS.wav","","null","","","","","","","","","","","","","","","","","","","","","","","","","","","","","","","",""
"html-keyboard-response","304","2370862","0.0-8.0-2.0-2.14-1.14","3","0","n6snaq4jc4j5x5g","","356.10000002384186","","<p>To replay the <u>TARGET SOUND</u>, press P.</p> When you are ready to begin, press SPACEBAR.","","32","","","","","","","","","","","","","","","","","","","","","","","","","","","","","","","",""
"audio-keyboard-response","305","2385811","0.0-8.0-2.0-3.5","3","0","n6snaq4jc4j5x5g","","1019","","sounds/C/TD/NI_10_TD.mp3","","32","","","TD_SUMMARY","","","","","","","","","","NI","","900,5400,9000,10800","1","900","5400","9000","10800","null","410.7000000476837","347.2000000476837","null","________________________________1021.2000000476837_3542_4681.600000023842_5810.700000047684_8416.600000023842_9347.200000047684_10554_12127.700000047684","2","","","","","",""
"html-button-response","306","2390298","0.0-8.0-2.0-0.6","3","0","n6snaq4jc4j5x5g","","4484.899999976158","","<p>Trial 7 of 36</p>","0","","","","","","","","","","","","","","TI","sounds/syllables/ti_SWS.wav","1500,5100,8700,11400","3","","","","","","","","","","","","","","","",""
"html-keyboard-response","307","2391483","0.0-8.0-2.0-1.6","3","0","n6snaq4jc4j5x5g","","1183.1000000238419","","","","80","","","","","","","","","","","","","TI","","1500,5100,8700,11400","3","","","","","","","","","","","","","","","",""
"audio-keyboard-response","308","2391784","0.0-8.0-2.0-2.15-0.15","3","0","n6snaq4jc4j5x5g","","null","","sounds/syllables/ti_SWS.wav","","null","","","","","","","","","","","","","","","","","","","","","","","","","","","","","","","",""
"html-keyboard-response","309","2392515","0.0-8.0-2.0-2.15-1.15","3","0","n6snaq4jc4j5x5g","","729.8999999761581","","<p>To replay the <u>TARGET SOUND</u>, press P.</p> When you are ready to begin, press SPACEBAR.","","80","","","","","","","","","","","","","","","","","","","","","","","","","","","","","","","",""
"audio-keyboard-response","310","2393320","0.0-8.0-2.0-2.16-0.16","3","0","n6snaq4jc4j5x5g","","null","","sounds/syllables/ti_SWS.wav","","null","","","","","","","","","","","","","","","","","","","","","","","","","","","","","","","",""
"html-keyboard-response","311","2394019","0.0-8.0-2.0-2.16-1.16","3","0","n6snaq4jc4j5x5g","","698.5999999046326","","<p>To replay the <u>TARGET SOUND</u>, press P.</p> When you are ready to begin, press SPACEBAR.","","32","","","","","","","","","","","","","","","","","","","","","","","","","","","","","","","",""
"audio-keyboard-response","312","2408967","0.0-8.0-2.0-3.6","3","0","n6snaq4jc4j5x5g","","2032","","sounds/C/TD/TI_07_TD.mp3","","32","","","TD_SUMMARY","","","","","","","","","","TI","","1500,5100,8700,11400","3","1500","5100","8700","11400","531.2000000476837","1065.7000000476837","975.4000000953674","520.8000000715256","________________________________________2031.2000000476837_4130.600000023842_6165.700000047684_6815.300000071526_7913.400000095367_9675.400000095367_11920.800000071526","2","","","","","",""
"html-button-response","313","2466640","0.0-8.0-2.0-0.7","3","0","n6snaq4jc4j5x5g","","57671.10000002384","","<p>Trial 8 of 36</p>","0","","","","","","","","","","","","","","RE","sounds/syllables/re_SWS.wav","2100,4800,9300,12900","2","","","","","","","","","","","","","","","",""
"html-keyboard-response","314","2467887","0.0-8.0-2.0-1.7","3","0","n6snaq4jc4j5x5g","","1245.7999999523163","","","","80","","","","","","","","","","","","","RE","","2100,4800,9300,12900","2","","","","","","","","","","","","","","","",""
"audio-keyboard-response","315","2468235","0.0-8.0-2.0-2.17-0.17","3","0","n6snaq4jc4j5x5g","","null","","sounds/syllables/re_SWS.wav","","null","","","","","","","","","","","","","","","","","","","","","","","","","","","","","","","",""
"html-keyboard-response","316","2468972","0.0-8.0-2.0-2.17-1.17","3","0","n6snaq4jc4j5x5g","","736.7999999523163","","<p>To replay the <u>TARGET SOUND</u>, press P.</p> When you are ready to begin, press SPACEBAR.","","80","","","","","","","","","","","","","","","","","","","","","","","","","","","","","","","",""
"audio-keyboard-response","317","2469776","0.0-8.0-2.0-2.18-0.18","3","0","n6snaq4jc4j5x5g","","null","","sounds/syllables/re_SWS.wav","","null","","","","","","","","","","","","","","","","","","","","","","","","","","","","","","","",""
"html-keyboard-response","318","2470037","0.0-8.0-2.0-2.18-1.18","3","0","n6snaq4jc4j5x5g","","259.8000000715256","","<p>To replay the <u>TARGET SOUND</u>, press P.</p> When you are ready to begin, press SPACEBAR.","","32","","","","","","","","","","","","","","","","","","","","","","","","","","","","","","","",""
"audio-keyboard-response","319","2484987","0.0-8.0-2.0-3.7","3","0","n6snaq4jc4j5x5g","","1888","","sounds/C/TD/RE_03_TD.mp3","","32","","","TD_SUMMARY","","","","","","","","","","RE","","2100,4800,9300,12900","2","2100","4800","9300","12900","null","null","null","null","_______________________________________________1887_3902.8000000715256_6263.800000071526_11775.100000023842_14177.300000071526","2","","","","","",""
"html-button-response","320","2487425","0.0-8.0-2.0-0.8","3","0","n6snaq4jc4j5x5g","","2435.7999999523163","","<p>Trial 9 of 36</p>","0","","","","","","","","","","","","","","ME","sounds/syllables/me_SWS.wav","1800,4500,6300,9000","1","","","","","","","","","","","","","","","",""
"html-keyboard-response","321","2488746","0.0-8.0-2.0-1.8","3","0","n6snaq4jc4j5x5g","","1320.6000000238419","","","","80","","","","","","","","","","","","","ME","","1800,4500,6300,9000","1","","","","","","","","","","","","","","","",""
"audio-keyboard-response","322","2489050","0.0-8.0-2.0-2.19-0.19","3","0","n6snaq4jc4j5x5g","","null","","sounds/syllables/me_SWS.wav","","null","","","","","","","","","","","","","","","","","","","","","","","","","","","","","","","",""
"html-keyboard-response","323","2489913","0.0-8.0-2.0-2.19-1.19","3","0","n6snaq4jc4j5x5g","","861.7000000476837","","<p>To replay the <u>TARGET SOUND</u>, press P.</p> When you are ready to begin, press SPACEBAR.","","80","","","","","","","","","","","","","","","","","","","","","","","","","","","","","","","",""
"audio-keyboard-response","324","2490719","0.0-8.0-2.0-2.20-0.20","3","0","n6snaq4jc4j5x5g","","null","","sounds/syllables/me_SWS.wav","","null","","","","","","","","","","","","","","","","","","","","","","","","","","","","","","","",""
"html-keyboard-response","325","2494363","0.0-8.0-2.0-2.20-1.20","3","0","n6snaq4jc4j5x5g","","3643.0999999046326","","<p>To replay the <u>TARGET SOUND</u>, press P.</p> When you are ready to begin, press SPACEBAR.","","80","","","","","","","","","","","","","","","","","","","","","","","","","","","","","","","",""
"audio-keyboard-response","326","2495167","0.0-8.0-2.0-2.21-0.21","3","0","n6snaq4jc4j5x5g","","null","","sounds/syllables/me_SWS.wav","","null","","","","","","","","","","","","","","","","","","","","","","","","","","","","","","","",""
"html-keyboard-response","327","2495835","0.0-8.0-2.0-2.21-1.21","3","0","n6snaq4jc4j5x5g","","667","","<p>To replay the <u>TARGET SOUND</u>, press P.</p> When you are ready to begin, press SPACEBAR.","","32","","","","","","","","","","","","","","","","","","","","","","","","","","","","","","","",""
"audio-keyboard-response","328","2510783","0.0-8.0-2.0-3.8","3","0","n6snaq4jc4j5x5g","","2501","","sounds/C/TD/ME_06_TD.mp3","","32","","","TD_SUMMARY","","","","","","","","","","ME","","1800,4500,6300,9000","1","1800","4500","6300","9000","704.8000000715256","518.8999999761581","716.8999999761581","null","____________________________________________________2504.8000000715256_3559.8000000715256_5018.899999976158_7016.899999976158_8160.800000071526_11676.600000023842","3","","","","","",""
"html-button-response","329","2557813","0.0-8.0-2.0-0.9","3","0","n6snaq4jc4j5x5g","","47028.700000047684","","<p>Trial 10 of 36</p>","0","","","","","","","","","","","","","","RE","sounds/syllables/re_SWS.wav","2100,9300,11100,12900","2","","","","","","","","","","","","","","","",""
"html-keyboard-response","330","2558710","0.0-8.0-2.0-1.9","3","0","n6snaq4jc4j5x5g","","894.8000000715256","","","","80","","","","","","","","","","","","","RE","","2100,9300,11100,12900","2","","","","","","","","","","","","","","","",""
"audio-keyboard-response","331","2559056","0.0-8.0-2.0-2.22-0.22","3","0","n6snaq4jc4j5x5g","","null","","sounds/syllables/re_SWS.wav","","null","","","","","","","","","","","","","","","","","","","","","","","","","","","","","","","",""
"html-keyboard-response","332","2559752","0.0-8.0-2.0-2.22-1.22","3","0","n6snaq4jc4j5x5g","","694.7999999523163","","<p>To replay the <u>TARGET SOUND</u>, press P.</p> When you are ready to begin, press SPACEBAR.","","80","","","","","","","","","","","","","","","","","","","","","","","","","","","","","","","",""
"audio-keyboard-response","333","2560555","0.0-8.0-2.0-2.23-0.23","3","0","n6snaq4jc4j5x5g","","null","","sounds/syllables/re_SWS.wav","","null","","","","","","","","","","","","","","","","","","","","","","","","","","","","","","","",""
"html-keyboard-response","334","2561581","0.0-8.0-2.0-2.23-1.23","3","0","n6snaq4jc4j5x5g","","1025.5","","<p>To replay the <u>TARGET SOUND</u>, press P.</p> When you are ready to begin, press SPACEBAR.","","32","","","","","","","","","","","","","","","","","","","","","","","","","","","","","","","",""
"audio-keyboard-response","335","2576533","0.0-8.0-2.0-3.9","3","0","n6snaq4jc4j5x5g","","2160","","sounds/C/TD/RE_01_TD.mp3","","32","","","TD_SUMMARY","","","","","","","","","","RE","","2100,9300,11100,12900","2","2100","9300","11100","12900","null","null","535.7000000476837","null","__________________________________________________________2164.3000000715256_5503.700000047684_9075.800000071526_11635.700000047684","2","","","","","",""
"html-button-response","336","2884415","0.0-8.0-2.0-0.10","3","0","n6snaq4jc4j5x5g","","180118.69999992847","","<p>Trial 11 of 36</p>","0","","","","","","","","","","","","","","TA","sounds/syllables/ta_SWS.wav","3000,5700,9300,12000","2","","","","","","","","","","","","","","","",""
"html-keyboard-response","337","2886270","0.0-8.0-2.0-1.10","3","0","n6snaq4jc4j5x5g","","1854.1999999284744","","","","80","","","","","","","","","","","","","TA","","3000,5700,9300,12000","2","","","","","","","","","","","","","","","",""
"audio-keyboard-response","338","2886616","0.0-8.0-2.0-2.24-0.24","3","0","n6snaq4jc4j5x5g","","null","","sounds/syllables/ta_SWS.wav","","null","","","","","","","","","","","","","","","","","","","","","","","","","","","","","","","",""
