"trial_type","trial_index","time_elapsed","internal_node_id","counterbalance","lang_instruct","ParticipantID","view_history","rt","url","stimulus","button_pressed","key_press","correctRESP","correct","designation","location","correctanswer","timeouts","pause_rt01","pause_rt02","train_file","numKeyPress","sound","fam_type","SYLLABLE","EXEMPLAR","TD_LOCS","TD_TYPE","TDLOC_01","TDLOC_02","TDLOC_03","TDLOC_04","TD_RT_01","TD_RT_02","TD_RT_03","TD_RT_04","TD_SUBJ_RTs","number_of_plays","responses","slider_start","response","question_order","syllable","syllable_type"
"pavlovia","0","11","0.0-0.0","3","0","p10utyza7z3pd1p","","","","","","","","","","","","","","","","","","","","","","","","","","","","","","","","","","","","","",""
"instructions","1","96276","0.0-1.0","3","0","p10utyza7z3pd1p","[{""page_index"":0,""viewing_time"":45041.70000000007},{""page_index"":1,""viewing_time"":51216.59999999998}]","96262.5","","","","","","","","","","","","","","","","","","","","","","","","","","","","","","","","","","","",""
"external-html","2","105741","0.0-2.0","3","0","p10utyza7z3pd1p","","9223.099999999977","consent/consent.html","","","","","","","","","","","","","","","","","","","","","","","","","","","","","","","","","","",""
"html-button-response","3","109532","0.0-3.0-0.0-0.0","3","0","p10utyza7z3pd1p","","3788.399999999907","","<p>Welcome to the study. You will first complete a short volume calibration and headphone check.</p><p>Please make sure you are in a quiet listening environment, that you are wearing headphones, and that your computer's volume is turned on.<p></p>","0","","","","","","","","","","","","","","","","","","","","","","","","","","","","","","","","",""
"html-button-response","4","112763","0.0-3.0-0.0-1.0","3","0","p10utyza7z3pd1p","","2976.5000000001164","","<p>The volume calibration will be first.</p><p>You will hear a thirty-second noise. Please adjust your computer's volume so that this noise is being presented at a comfortable level.<p></p>","0","","","","","","","","","","","","","","","","","","","","","","","","","","","","","","","","",""
"audio-button-response","5","130774","0.0-3.0-0.0-2.0","3","0","p10utyza7z3pd1p","","17560","","audCalib/volumetest.mp3","0","","","","","","","","","","","","","","","","","","","","","","","","","","","","","","","","",""
"html-button-response","6","138331","0.0-3.0-1.0-0.0","3","0","p10utyza7z3pd1p","","7555.5","","<p>You will now complete a short headphone check.</p><p>On each trial, you will hear three tones. One of these tones will be quieter than the others. Your task is to identify whether the quiet tone occured first, second, or third.</p><p>There are six trials in total.<p></p>","0","","","","","","","","","","","","","","","","","","","","","","","","","","","","","","","","",""
"html-keyboard-response","7","139086","0.0-3.0-1.0-1.0-0.0","3","0","p10utyza7z3pd1p","","null","","<div style=""font-size:60px;"">+</div>","","null","","","","","","","","","","","","","","","","","","","","","","","","","","","","","","","",""
"audio-button-response","8","143748","0.0-3.0-1.0-1.0-1.0","3","0","p10utyza7z3pd1p","","4661","","audCalib/t3_2.mp3","2","","2","1","headphone-test","","","","","","","","","","","","","","","","","","","","","","","","","","","","",""
"html-keyboard-response","9","144517","0.0-3.0-1.0-1.0-0.1","3","0","p10utyza7z3pd1p","","null","","<div style=""font-size:60px;"">+</div>","","null","","","","","","","","","","","","","","","","","","","","","","","","","","","","","","","",""
"audio-button-response","10","149236","0.0-3.0-1.0-1.0-1.1","3","0","p10utyza7z3pd1p","","4711","","audCalib/t1_1.mp3","0","","0","1","headphone-test","","","","","","","","","","","","","","","","","","","","","","","","","","","","",""
"html-keyboard-response","11","150006","0.0-3.0-1.0-1.0-0.2","3","0","p10utyza7z3pd1p","","null","","<div style=""font-size:60px;"">+</div>","","null","","","","","","","","","","","","","","","","","","","","","","","","","","","","","","","",""
"audio-button-response","12","154653","0.0-3.0-1.0-1.0-1.2","3","0","p10utyza7z3pd1p","","4638","","audCalib/t1_2.mp3","0","","0","1","headphone-test","","","","","","","","","","","","","","","","","","","","","","","","","","","","",""
"html-keyboard-response","13","155416","0.0-3.0-1.0-1.0-0.3","3","0","p10utyza7z3pd1p","","null","","<div style=""font-size:60px;"">+</div>","","null","","","","","","","","","","","","","","","","","","","","","","","","","","","","","","","",""
"audio-button-response","14","160790","0.0-3.0-1.0-1.0-1.3","3","0","p10utyza7z3pd1p","","5370","","audCalib/t3_1.mp3","2","","2","1","headphone-test","","","","","","","","","","","","","","","","","","","","","","","","","","","","",""
"html-keyboard-response","15","161556","0.0-3.0-1.0-1.0-0.4","3","0","p10utyza7z3pd1p","","null","","<div style=""font-size:60px;"">+</div>","","null","","","","","","","","","","","","","","","","","","","","","","","","","","","","","","","",""
"audio-button-response","16","166119","0.0-3.0-1.0-1.0-1.4","3","0","p10utyza7z3pd1p","","4560","","audCalib/t2_2.mp3","1","","1","1","headphone-test","","","","","","","","","","","","","","","","","","","","","","","","","","","","",""
"html-keyboard-response","17","166883","0.0-3.0-1.0-1.0-0.5","3","0","p10utyza7z3pd1p","","null","","<div style=""font-size:60px;"">+</div>","","null","","","","","","","","","","","","","","","","","","","","","","","","","","","","","","","",""
"audio-button-response","18","171375","0.0-3.0-1.0-1.0-1.5","3","0","p10utyza7z3pd1p","","4490","","audCalib/t2_1.mp3","1","","1","1","headphone-test","","","","","","","","","","","","","","","","","","","","","","","","","","","","",""
"html-button-response","19","173359","0.0-3.0-2.0","3","0","p10utyza7z3pd1p","","1713.3000000000466","","<p>The volume calibration and headphone check are now complete.</p>","0","","","","","","","","","","","","","","","","","","","","","","","","","","","","","","","","",""
"instructions","20","185585","0.0-4.0-0.0","3","0","p10utyza7z3pd1p","[{""page_index"":0,""viewing_time"":1559.1000000000931},{""page_index"":1,""viewing_time"":8376.199999999953},{""page_index"":2,""viewing_time"":2288.8000000000466}]","12224.40000000014","","","","","","","","","","","","","","","","","","","","","","","","","","","","","","","","","","","",""
"audio-keyboard-response","21","185896","0.0-4.0-1.0-0.0","3","0","p10utyza7z3pd1p","","null","","sounds/induction/right_rev/fe_SWS.wav","","null","","","","","","","","","","","","","","","","","","","","","","","","","","","","","","","",""
"html-button-response","22","188129","0.0-4.0-1.0-1.0","3","0","p10utyza7z3pd1p","","2231.2000000001863","","Was the sound coming from the left or the right?","1","","","1","INDUCTION-JUDGMENT","right","1","","","","","","","","","","","","","","","","","","","","","","","","","","",""
"html-keyboard-response","23","189132","0.0-4.0-1.0-2.0","3","0","p10utyza7z3pd1p","","null","","<p style=""color:#054d00;""><b>Correct!</b></p>","","null","","","","","","","","","","","","","","","","","","","","","","","","","","","","","","","",""
"audio-keyboard-response","24","189936","0.0-4.0-1.0-0.1","3","0","p10utyza7z3pd1p","","null","","sounds/induction/left_rev/fu_SWS.wav","","null","","","","","","","","","","","","","","","","","","","","","","","","","","","","","","","",""
"html-button-response","25","190914","0.0-4.0-1.0-1.1","3","0","p10utyza7z3pd1p","","977","","Was the sound coming from the left or the right?","0","","","1","INDUCTION-JUDGMENT","left","0","","","","","","","","","","","","","","","","","","","","","","","","","","",""
"html-keyboard-response","26","191926","0.0-4.0-1.0-2.1","3","0","p10utyza7z3pd1p","","null","","<p style=""color:#054d00;""><b>Correct!</b></p>","","null","","","","","","","","","","","","","","","","","","","","","","","","","","","","","","","",""
"audio-keyboard-response","27","192737","0.0-4.0-1.0-0.2","3","0","p10utyza7z3pd1p","","null","","sounds/induction/left_rev/fu_SWS.wav","","null","","","","","","","","","","","","","","","","","","","","","","","","","","","","","","","",""
"html-button-response","28","193711","0.0-4.0-1.0-1.2","3","0","p10utyza7z3pd1p","","973","","Was the sound coming from the left or the right?","0","","","1","INDUCTION-JUDGMENT","left","0","","","","","","","","","","","","","","","","","","","","","","","","","","",""
"html-keyboard-response","29","194717","0.0-4.0-1.0-2.2","3","0","p10utyza7z3pd1p","","null","","<p style=""color:#054d00;""><b>Correct!</b></p>","","null","","","","","","","","","","","","","","","","","","","","","","","","","","","","","","","",""
"audio-keyboard-response","30","195527","0.0-4.0-1.0-0.3","3","0","p10utyza7z3pd1p","","null","","sounds/induction/left_rev/ru_SWS.wav","","null","","","","","","","","","","","","","","","","","","","","","","","","","","","","","","","",""
"html-button-response","31","196393","0.0-4.0-1.0-1.3","3","0","p10utyza7z3pd1p","","864.5","","Was the sound coming from the left or the right?","0","","","1","INDUCTION-JUDGMENT","left","0","","","","","","","","","","","","","","","","","","","","","","","","","","",""
"html-keyboard-response","32","197406","0.0-4.0-1.0-2.3","3","0","p10utyza7z3pd1p","","null","","<p style=""color:#054d00;""><b>Correct!</b></p>","","null","","","","","","","","","","","","","","","","","","","","","","","","","","","","","","","",""
"audio-keyboard-response","33","198216","0.0-4.0-1.0-0.4","3","0","p10utyza7z3pd1p","","null","","sounds/induction/right_rev/ge_SWS.wav","","null","","","","","","","","","","","","","","","","","","","","","","","","","","","","","","","",""
"html-button-response","34","199228","0.0-4.0-1.0-1.4","3","0","p10utyza7z3pd1p","","1010.6999999999534","","Was the sound coming from the left or the right?","1","","","1","INDUCTION-JUDGMENT","right","1","","","","","","","","","","","","","","","","","","","","","","","","","","",""
"html-keyboard-response","35","200243","0.0-4.0-1.0-2.4","3","0","p10utyza7z3pd1p","","null","","<p style=""color:#054d00;""><b>Correct!</b></p>","","null","","","","","","","","","","","","","","","","","","","","","","","","","","","","","","","",""
"audio-keyboard-response","36","201046","0.0-4.0-1.0-0.5","3","0","p10utyza7z3pd1p","","null","","sounds/induction/right_rev/su_SWS.wav","","null","","","","","","","","","","","","","","","","","","","","","","","","","","","","","","","",""
"html-button-response","37","201973","0.0-4.0-1.0-1.5","3","0","p10utyza7z3pd1p","","925.0999999998603","","Was the sound coming from the left or the right?","1","","","1","INDUCTION-JUDGMENT","right","1","","","","","","","","","","","","","","","","","","","","","","","","","","",""
"html-keyboard-response","38","202989","0.0-4.0-1.0-2.5","3","0","p10utyza7z3pd1p","","null","","<p style=""color:#054d00;""><b>Correct!</b></p>","","null","","","","","","","","","","","","","","","","","","","","","","","","","","","","","","","",""
"audio-keyboard-response","39","203806","0.0-4.0-1.0-0.6","3","0","p10utyza7z3pd1p","","null","","sounds/induction/right_rev/su_SWS.wav","","null","","","","","","","","","","","","","","","","","","","","","","","","","","","","","","","",""
"html-button-response","40","204541","0.0-4.0-1.0-1.6","3","0","p10utyza7z3pd1p","","733.5","","Was the sound coming from the left or the right?","1","","","1","INDUCTION-JUDGMENT","right","1","","","","","","","","","","","","","","","","","","","","","","","","","","",""
"html-keyboard-response","41","205547","0.0-4.0-1.0-2.6","3","0","p10utyza7z3pd1p","","null","","<p style=""color:#054d00;""><b>Correct!</b></p>","","null","","","","","","","","","","","","","","","","","","","","","","","","","","","","","","","",""
"audio-keyboard-response","42","206366","0.0-4.0-1.0-0.7","3","0","p10utyza7z3pd1p","","null","","sounds/induction/right_rev/re_SWS.wav","","null","","","","","","","","","","","","","","","","","","","","","","","","","","","","","","","",""
"html-button-response","43","207006","0.0-4.0-1.0-1.7","3","0","p10utyza7z3pd1p","","638.8999999999069","","Was the sound coming from the left or the right?","1","","","1","INDUCTION-JUDGMENT","right","1","","","","","","","","","","","","","","","","","","","","","","","","","","",""
"html-keyboard-response","44","208025","0.0-4.0-1.0-2.7","3","0","p10utyza7z3pd1p","","null","","<p style=""color:#054d00;""><b>Correct!</b></p>","","null","","","","","","","","","","","","","","","","","","","","","","","","","","","","","","","",""
"audio-keyboard-response","45","208837","0.0-4.0-1.0-0.8","3","0","p10utyza7z3pd1p","","null","","sounds/induction/right_rev/ru_SWS.wav","","null","","","","","","","","","","","","","","","","","","","","","","","","","","","","","","","",""
"html-button-response","46","209798","0.0-4.0-1.0-1.8","3","0","p10utyza7z3pd1p","","960.4000000001397","","Was the sound coming from the left or the right?","1","","","1","INDUCTION-JUDGMENT","right","1","","","","","","","","","","","","","","","","","","","","","","","","","","",""
"html-keyboard-response","47","210815","0.0-4.0-1.0-2.8","3","0","p10utyza7z3pd1p","","null","","<p style=""color:#054d00;""><b>Correct!</b></p>","","null","","","","","","","","","","","","","","","","","","","","","","","","","","","","","","","",""
"audio-keyboard-response","48","211627","0.0-4.0-1.0-0.9","3","0","p10utyza7z3pd1p","","null","","sounds/induction/right_rev/ti_SWS.wav","","null","","","","","","","","","","","","","","","","","","","","","","","","","","","","","","","",""
"html-button-response","49","212222","0.0-4.0-1.0-1.9","3","0","p10utyza7z3pd1p","","593.6000000000931","","Was the sound coming from the left or the right?","1","","","1","INDUCTION-JUDGMENT","right","1","","","","","","","","","","","","","","","","","","","","","","","","","","",""
"html-keyboard-response","50","213235","0.0-4.0-1.0-2.9","3","0","p10utyza7z3pd1p","","null","","<p style=""color:#054d00;""><b>Correct!</b></p>","","null","","","","","","","","","","","","","","","","","","","","","","","","","","","","","","","",""
"audio-keyboard-response","51","214047","0.0-4.0-1.0-0.10","3","0","p10utyza7z3pd1p","","null","","sounds/induction/left_rev/ge_SWS.wav","","null","","","","","","","","","","","","","","","","","","","","","","","","","","","","","","","",""
"html-button-response","52","214999","0.0-4.0-1.0-1.10","3","0","p10utyza7z3pd1p","","951.0999999998603","","Was the sound coming from the left or the right?","0","","","1","INDUCTION-JUDGMENT","left","0","","","","","","","","","","","","","","","","","","","","","","","","","","",""
"html-keyboard-response","53","216006","0.0-4.0-1.0-2.10","3","0","p10utyza7z3pd1p","","null","","<p style=""color:#054d00;""><b>Correct!</b></p>","","null","","","","","","","","","","","","","","","","","","","","","","","","","","","","","","","",""
"audio-keyboard-response","54","216817","0.0-4.0-1.0-0.11","3","0","p10utyza7z3pd1p","","null","","sounds/induction/right_rev/ni_SWS.wav","","null","","","","","","","","","","","","","","","","","","","","","","","","","","","","","","","",""
"html-button-response","55","217711","0.0-4.0-1.0-1.11","3","0","p10utyza7z3pd1p","","893.3999999999069","","Was the sound coming from the left or the right?","1","","","1","INDUCTION-JUDGMENT","right","1","","","","","","","","","","","","","","","","","","","","","","","","","","",""
"html-keyboard-response","56","218726","0.0-4.0-1.0-2.11","3","0","p10utyza7z3pd1p","","null","","<p style=""color:#054d00;""><b>Correct!</b></p>","","null","","","","","","","","","","","","","","","","","","","","","","","","","","","","","","","",""
"audio-keyboard-response","57","219546","0.0-4.0-1.0-0.12","3","0","p10utyza7z3pd1p","","null","","sounds/induction/right_rev/ru_SWS.wav","","null","","","","","","","","","","","","","","","","","","","","","","","","","","","","","","","",""
"html-button-response","58","220191","0.0-4.0-1.0-1.12","3","0","p10utyza7z3pd1p","","643.8000000000466","","Was the sound coming from the left or the right?","1","","","1","INDUCTION-JUDGMENT","right","1","","","","","","","","","","","","","","","","","","","","","","","","","","",""
"html-keyboard-response","59","221193","0.0-4.0-1.0-2.12","3","0","p10utyza7z3pd1p","","null","","<p style=""color:#054d00;""><b>Correct!</b></p>","","null","","","","","","","","","","","","","","","","","","","","","","","","","","","","","","","",""
"audio-keyboard-response","60","222007","0.0-4.0-1.0-0.13","3","0","p10utyza7z3pd1p","","null","","sounds/induction/left_rev/ko_SWS.wav","","null","","","","","","","","","","","","","","","","","","","","","","","","","","","","","","","",""
"html-button-response","61","222727","0.0-4.0-1.0-1.13","3","0","p10utyza7z3pd1p","","719.5","","Was the sound coming from the left or the right?","0","","","1","INDUCTION-JUDGMENT","left","0","","","","","","","","","","","","","","","","","","","","","","","","","","",""
"html-keyboard-response","62","223745","0.0-4.0-1.0-2.13","3","0","p10utyza7z3pd1p","","null","","<p style=""color:#054d00;""><b>Correct!</b></p>","","null","","","","","","","","","","","","","","","","","","","","","","","","","","","","","","","",""
"audio-keyboard-response","63","224556","0.0-4.0-1.0-0.14","3","0","p10utyza7z3pd1p","","null","","sounds/induction/right_rev/pu_SWS.wav","","null","","","","","","","","","","","","","","","","","","","","","","","","","","","","","","","",""
"html-button-response","64","225944","0.0-4.0-1.0-1.14","3","0","p10utyza7z3pd1p","","1386.6999999999534","","Was the sound coming from the left or the right?","1","","","1","INDUCTION-JUDGMENT","right","1","","","","","","","","","","","","","","","","","","","","","","","","","","",""
"html-keyboard-response","65","226959","0.0-4.0-1.0-2.14","3","0","p10utyza7z3pd1p","","null","","<p style=""color:#054d00;""><b>Correct!</b></p>","","null","","","","","","","","","","","","","","","","","","","","","","","","","","","","","","","",""
"audio-keyboard-response","66","227766","0.0-4.0-1.0-0.15","3","0","p10utyza7z3pd1p","","null","","sounds/induction/left_rev/ge_SWS.wav","","null","","","","","","","","","","","","","","","","","","","","","","","","","","","","","","","",""
"html-button-response","67","228536","0.0-4.0-1.0-1.15","3","0","p10utyza7z3pd1p","","768.5","","Was the sound coming from the left or the right?","0","","","1","INDUCTION-JUDGMENT","left","0","","","","","","","","","","","","","","","","","","","","","","","","","","",""
"html-keyboard-response","68","229545","0.0-4.0-1.0-2.15","3","0","p10utyza7z3pd1p","","null","","<p style=""color:#054d00;""><b>Correct!</b></p>","","null","","","","","","","","","","","","","","","","","","","","","","","","","","","","","","","",""
"audio-keyboard-response","69","230357","0.0-4.0-1.0-0.16","3","0","p10utyza7z3pd1p","","null","","sounds/induction/left_rev/ti_SWS.wav","","null","","","","","","","","","","","","","","","","","","","","","","","","","","","","","","","",""
"html-button-response","70","230889","0.0-4.0-1.0-1.16","3","0","p10utyza7z3pd1p","","528.8999999999069","","Was the sound coming from the left or the right?","0","","","1","INDUCTION-JUDGMENT","left","0","","","","","","","","","","","","","","","","","","","","","","","","","","",""
"html-keyboard-response","71","231897","0.0-4.0-1.0-2.16","3","0","p10utyza7z3pd1p","","null","","<p style=""color:#054d00;""><b>Correct!</b></p>","","null","","","","","","","","","","","","","","","","","","","","","","","","","","","","","","","",""
"audio-keyboard-response","72","232706","0.0-4.0-1.0-0.17","3","0","p10utyza7z3pd1p","","null","","sounds/induction/right_rev/ti_SWS.wav","","null","","","","","","","","","","","","","","","","","","","","","","","","","","","","","","","",""
"html-button-response","73","233569","0.0-4.0-1.0-1.17","3","0","p10utyza7z3pd1p","","861.5999999998603","","Was the sound coming from the left or the right?","1","","","1","INDUCTION-JUDGMENT","right","1","","","","","","","","","","","","","","","","","","","","","","","","","","",""
"html-keyboard-response","74","234576","0.0-4.0-1.0-2.17","3","0","p10utyza7z3pd1p","","null","","<p style=""color:#054d00;""><b>Correct!</b></p>","","null","","","","","","","","","","","","","","","","","","","","","","","","","","","","","","","",""
"audio-keyboard-response","75","235406","0.0-4.0-1.0-0.18","3","0","p10utyza7z3pd1p","","null","","sounds/induction/left_rev/ko_SWS.wav","","null","","","","","","","","","","","","","","","","","","","","","","","","","","","","","","","",""
"html-button-response","76","236033","0.0-4.0-1.0-1.18","3","0","p10utyza7z3pd1p","","625.5","","Was the sound coming from the left or the right?","0","","","1","INDUCTION-JUDGMENT","left","0","","","","","","","","","","","","","","","","","","","","","","","","","","",""
"html-keyboard-response","77","237036","0.0-4.0-1.0-2.18","3","0","p10utyza7z3pd1p","","null","","<p style=""color:#054d00;""><b>Correct!</b></p>","","null","","","","","","","","","","","","","","","","","","","","","","","","","","","","","","","",""
"audio-keyboard-response","78","237847","0.0-4.0-1.0-0.19","3","0","p10utyza7z3pd1p","","null","","sounds/induction/right_rev/fu_SWS.wav","","null","","","","","","","","","","","","","","","","","","","","","","","","","","","","","","","",""
"html-button-response","79","238986","0.0-4.0-1.0-1.19","3","0","p10utyza7z3pd1p","","1137.5","","Was the sound coming from the left or the right?","1","","","1","INDUCTION-JUDGMENT","right","1","","","","","","","","","","","","","","","","","","","","","","","","","","",""
"html-keyboard-response","80","239996","0.0-4.0-1.0-2.19","3","0","p10utyza7z3pd1p","","null","","<p style=""color:#054d00;""><b>Correct!</b></p>","","null","","","","","","","","","","","","","","","","","","","","","","","","","","","","","","","",""
"audio-keyboard-response","81","240796","0.0-4.0-1.0-0.20","3","0","p10utyza7z3pd1p","","null","","sounds/induction/left_rev/ta_SWS.wav","","null","","","","","","","","","","","","","","","","","","","","","","","","","","","","","","","",""
"html-button-response","82","241683","0.0-4.0-1.0-1.20","3","0","p10utyza7z3pd1p","","885.9000000001397","","Was the sound coming from the left or the right?","0","","","1","INDUCTION-JUDGMENT","left","0","","","","","","","","","","","","","","","","","","","","","","","","","","",""
"html-keyboard-response","83","242696","0.0-4.0-1.0-2.20","3","0","p10utyza7z3pd1p","","null","","<p style=""color:#054d00;""><b>Correct!</b></p>","","null","","","","","","","","","","","","","","","","","","","","","","","","","","","","","","","",""
"audio-keyboard-response","84","243516","0.0-4.0-1.0-0.21","3","0","p10utyza7z3pd1p","","null","","sounds/induction/right_rev/ge_SWS.wav","","null","","","","","","","","","","","","","","","","","","","","","","","","","","","","","","","",""
"html-button-response","85","245082","0.0-4.0-1.0-1.21","3","0","p10utyza7z3pd1p","","1564.3999999999069","","Was the sound coming from the left or the right?","1","","","1","INDUCTION-JUDGMENT","right","1","","","","","","","","","","","","","","","","","","","","","","","","","","",""
"html-keyboard-response","86","246093","0.0-4.0-1.0-2.21","3","0","p10utyza7z3pd1p","","null","","<p style=""color:#054d00;""><b>Correct!</b></p>","","null","","","","","","","","","","","","","","","","","","","","","","","","","","","","","","","",""
"audio-keyboard-response","87","246896","0.0-4.0-1.0-0.22","3","0","p10utyza7z3pd1p","","null","","sounds/induction/left_rev/me_SWS.wav","","null","","","","","","","","","","","","","","","","","","","","","","","","","","","","","","","",""
"html-button-response","88","247835","0.0-4.0-1.0-1.22","3","0","p10utyza7z3pd1p","","937.1999999999534","","Was the sound coming from the left or the right?","0","","","1","INDUCTION-JUDGMENT","left","0","","","","","","","","","","","","","","","","","","","","","","","","","","",""
"html-keyboard-response","89","248836","0.0-4.0-1.0-2.22","3","0","p10utyza7z3pd1p","","null","","<p style=""color:#054d00;""><b>Correct!</b></p>","","null","","","","","","","","","","","","","","","","","","","","","","","","","","","","","","","",""
"audio-keyboard-response","90","249646","0.0-4.0-1.0-0.23","3","0","p10utyza7z3pd1p","","null","","sounds/induction/left_rev/su_SWS.wav","","null","","","","","","","","","","","","","","","","","","","","","","","","","","","","","","","",""
"html-button-response","91","250538","0.0-4.0-1.0-1.23","3","0","p10utyza7z3pd1p","","891.2999999998137","","Was the sound coming from the left or the right?","0","","","1","INDUCTION-JUDGMENT","left","0","","","","","","","","","","","","","","","","","","","","","","","","","","",""
"html-keyboard-response","92","251545","0.0-4.0-1.0-2.23","3","0","p10utyza7z3pd1p","","null","","<p style=""color:#054d00;""><b>Correct!</b></p>","","null","","","","","","","","","","","","","","","","","","","","","","","","","","","","","","","",""
"audio-keyboard-response","93","252356","0.0-4.0-1.0-0.24","3","0","p10utyza7z3pd1p","","null","","sounds/induction/right_rev/ni_SWS.wav","","null","","","","","","","","","","","","","","","","","","","","","","","","","","","","","","","",""
"html-button-response","94","253084","0.0-4.0-1.0-1.24","3","0","p10utyza7z3pd1p","","727.6999999999534","","Was the sound coming from the left or the right?","1","","","1","INDUCTION-JUDGMENT","right","1","","","","","","","","","","","","","","","","","","","","","","","","","","",""
"html-keyboard-response","95","254092","0.0-4.0-1.0-2.24","3","0","p10utyza7z3pd1p","","null","","<p style=""color:#054d00;""><b>Correct!</b></p>","","null","","","","","","","","","","","","","","","","","","","","","","","","","","","","","","","",""
"audio-keyboard-response","96","254897","0.0-4.0-1.0-0.25","3","0","p10utyza7z3pd1p","","null","","sounds/induction/left_rev/ta_SWS.wav","","null","","","","","","","","","","","","","","","","","","","","","","","","","","","","","","","",""
"html-button-response","97","255509","0.0-4.0-1.0-1.25","3","0","p10utyza7z3pd1p","","612.1999999999534","","Was the sound coming from the left or the right?","0","","","1","INDUCTION-JUDGMENT","left","0","","","","","","","","","","","","","","","","","","","","","","","","","","",""
"html-keyboard-response","98","256511","0.0-4.0-1.0-2.25","3","0","p10utyza7z3pd1p","","null","","<p style=""color:#054d00;""><b>Correct!</b></p>","","null","","","","","","","","","","","","","","","","","","","","","","","","","","","","","","","",""
"audio-keyboard-response","99","257326","0.0-4.0-1.0-0.26","3","0","p10utyza7z3pd1p","","null","","sounds/induction/left_rev/ru_SWS.wav","","null","","","","","","","","","","","","","","","","","","","","","","","","","","","","","","","",""
"html-button-response","100","257886","0.0-4.0-1.0-1.26","3","0","p10utyza7z3pd1p","","559.3000000000466","","Was the sound coming from the left or the right?","0","","","1","INDUCTION-JUDGMENT","left","0","","","","","","","","","","","","","","","","","","","","","","","","","","",""
"html-keyboard-response","101","258896","0.0-4.0-1.0-2.26","3","0","p10utyza7z3pd1p","","null","","<p style=""color:#054d00;""><b>Correct!</b></p>","","null","","","","","","","","","","","","","","","","","","","","","","","","","","","","","","","",""
"audio-keyboard-response","102","259707","0.0-4.0-1.0-0.27","3","0","p10utyza7z3pd1p","","null","","sounds/induction/left_rev/fe_SWS.wav","","null","","","","","","","","","","","","","","","","","","","","","","","","","","","","","","","",""
"html-button-response","103","260206","0.0-4.0-1.0-1.27","3","0","p10utyza7z3pd1p","","498.5999999998603","","Was the sound coming from the left or the right?","0","","","1","INDUCTION-JUDGMENT","left","0","","","","","","","","","","","","","","","","","","","","","","","","","","",""
"html-keyboard-response","104","261226","0.0-4.0-1.0-2.27","3","0","p10utyza7z3pd1p","","null","","<p style=""color:#054d00;""><b>Correct!</b></p>","","null","","","","","","","","","","","","","","","","","","","","","","","","","","","","","","","",""
"audio-keyboard-response","105","262036","0.0-4.0-1.0-0.28","3","0","p10utyza7z3pd1p","","null","","sounds/induction/left_rev/me_SWS.wav","","null","","","","","","","","","","","","","","","","","","","","","","","","","","","","","","","",""
"html-button-response","106","262559","0.0-4.0-1.0-1.28","3","0","p10utyza7z3pd1p","","521.8000000000466","","Was the sound coming from the left or the right?","0","","","1","INDUCTION-JUDGMENT","left","0","","","","","","","","","","","","","","","","","","","","","","","","","","",""
"html-keyboard-response","107","263567","0.0-4.0-1.0-2.28","3","0","p10utyza7z3pd1p","","null","","<p style=""color:#054d00;""><b>Correct!</b></p>","","null","","","","","","","","","","","","","","","","","","","","","","","","","","","","","","","",""
"audio-keyboard-response","108","264377","0.0-4.0-1.0-0.29","3","0","p10utyza7z3pd1p","","null","","sounds/induction/left_rev/pu_SWS.wav","","null","","","","","","","","","","","","","","","","","","","","","","","","","","","","","","","",""
"html-button-response","109","264943","0.0-4.0-1.0-1.29","3","0","p10utyza7z3pd1p","","565.5","","Was the sound coming from the left or the right?","0","","","1","INDUCTION-JUDGMENT","left","0","","","","","","","","","","","","","","","","","","","","","","","","","","",""
"html-keyboard-response","110","265947","0.0-4.0-1.0-2.29","3","0","p10utyza7z3pd1p","","null","","<p style=""color:#054d00;""><b>Correct!</b></p>","","null","","","","","","","","","","","","","","","","","","","","","","","","","","","","","","","",""
"audio-keyboard-response","111","266757","0.0-4.0-1.0-0.30","3","0","p10utyza7z3pd1p","","null","","sounds/induction/right_rev/ta_SWS.wav","","null","","","","","","","","","","","","","","","","","","","","","","","","","","","","","","","",""
"html-button-response","112","268135","0.0-4.0-1.0-1.30","3","0","p10utyza7z3pd1p","","1377","","Was the sound coming from the left or the right?","1","","","1","INDUCTION-JUDGMENT","right","1","","","","","","","","","","","","","","","","","","","","","","","","","","",""
"html-keyboard-response","113","269148","0.0-4.0-1.0-2.30","3","0","p10utyza7z3pd1p","","null","","<p style=""color:#054d00;""><b>Correct!</b></p>","","null","","","","","","","","","","","","","","","","","","","","","","","","","","","","","","","",""
"audio-keyboard-response","114","269948","0.0-4.0-1.0-0.31","3","0","p10utyza7z3pd1p","","null","","sounds/induction/right_rev/me_SWS.wav","","null","","","","","","","","","","","","","","","","","","","","","","","","","","","","","","","",""
"html-button-response","115","271095","0.0-4.0-1.0-1.31","3","0","p10utyza7z3pd1p","","1141.1999999999534","","Was the sound coming from the left or the right?","1","","","1","INDUCTION-JUDGMENT","right","1","","","","","","","","","","","","","","","","","","","","","","","","","","",""
"html-keyboard-response","116","272098","0.0-4.0-1.0-2.31","3","0","p10utyza7z3pd1p","","null","","<p style=""color:#054d00;""><b>Correct!</b></p>","","null","","","","","","","","","","","","","","","","","","","","","","","","","","","","","","","",""
"audio-keyboard-response","117","272906","0.0-4.0-1.0-0.32","3","0","p10utyza7z3pd1p","","null","","sounds/induction/left_rev/ni_SWS.wav","","null","","","","","","","","","","","","","","","","","","","","","","","","","","","","","","","",""
"html-button-response","118","273896","0.0-4.0-1.0-1.32","3","0","p10utyza7z3pd1p","","988.8000000000466","","Was the sound coming from the left or the right?","0","","","1","INDUCTION-JUDGMENT","left","0","","","","","","","","","","","","","","","","","","","","","","","","","","",""
"html-keyboard-response","119","274900","0.0-4.0-1.0-2.32","3","0","p10utyza7z3pd1p","","null","","<p style=""color:#054d00;""><b>Correct!</b></p>","","null","","","","","","","","","","","","","","","","","","","","","","","","","","","","","","","",""
"audio-keyboard-response","120","275698","0.0-4.0-1.0-0.33","3","0","p10utyza7z3pd1p","","null","","sounds/induction/right_rev/pu_SWS.wav","","null","","","","","","","","","","","","","","","","","","","","","","","","","","","","","","","",""
"html-button-response","121","276961","0.0-4.0-1.0-1.33","3","0","p10utyza7z3pd1p","","1261.0999999998603","","Was the sound coming from the left or the right?","1","","","1","INDUCTION-JUDGMENT","right","1","","","","","","","","","","","","","","","","","","","","","","","","","","",""
"html-keyboard-response","122","277977","0.0-4.0-1.0-2.33","3","0","p10utyza7z3pd1p","","null","","<p style=""color:#054d00;""><b>Correct!</b></p>","","null","","","","","","","","","","","","","","","","","","","","","","","","","","","","","","","",""
"audio-keyboard-response","123","278797","0.0-4.0-1.0-0.34","3","0","p10utyza7z3pd1p","","null","","sounds/induction/left_rev/pu_SWS.wav","","null","","","","","","","","","","","","","","","","","","","","","","","","","","","","","","","",""
"html-button-response","124","280138","0.0-4.0-1.0-1.34","3","0","p10utyza7z3pd1p","","1338.5","","Was the sound coming from the left or the right?","0","","","1","INDUCTION-JUDGMENT","left","0","","","","","","","","","","","","","","","","","","","","","","","","","","",""
"html-keyboard-response","125","281146","0.0-4.0-1.0-2.34","3","0","p10utyza7z3pd1p","","null","","<p style=""color:#054d00;""><b>Correct!</b></p>","","null","","","","","","","","","","","","","","","","","","","","","","","","","","","","","","","",""
"audio-keyboard-response","126","281957","0.0-4.0-1.0-0.35","3","0","p10utyza7z3pd1p","","null","","sounds/induction/left_rev/re_SWS.wav","","null","","","","","","","","","","","","","","","","","","","","","","","","","","","","","","","",""
"html-button-response","127","282721","0.0-4.0-1.0-1.35","3","0","p10utyza7z3pd1p","","761.7999999998137","","Was the sound coming from the left or the right?","0","","","1","INDUCTION-JUDGMENT","left","0","","","","","","","","","","","","","","","","","","","","","","","","","","",""
"html-keyboard-response","128","283736","0.0-4.0-1.0-2.35","3","0","p10utyza7z3pd1p","","null","","<p style=""color:#054d00;""><b>Correct!</b></p>","","null","","","","","","","","","","","","","","","","","","","","","","","","","","","","","","","",""
"audio-keyboard-response","129","284560","0.0-4.0-1.0-0.36","3","0","p10utyza7z3pd1p","","null","","sounds/induction/left_rev/ni_SWS.wav","","null","","","","","","","","","","","","","","","","","","","","","","","","","","","","","","","",""
"html-button-response","130","285513","0.0-4.0-1.0-1.36","3","0","p10utyza7z3pd1p","","948.2000000001863","","Was the sound coming from the left or the right?","0","","","1","INDUCTION-JUDGMENT","left","0","","","","","","","","","","","","","","","","","","","","","","","","","","",""
"html-keyboard-response","131","286527","0.0-4.0-1.0-2.36","3","0","p10utyza7z3pd1p","","null","","<p style=""color:#054d00;""><b>Correct!</b></p>","","null","","","","","","","","","","","","","","","","","","","","","","","","","","","","","","","",""
"audio-keyboard-response","132","287347","0.0-4.0-1.0-0.37","3","0","p10utyza7z3pd1p","","null","","sounds/induction/left_rev/ti_SWS.wav","","null","","","","","","","","","","","","","","","","","","","","","","","","","","","","","","","",""
"html-button-response","133","287954","0.0-4.0-1.0-1.37","3","0","p10utyza7z3pd1p","","605.8999999999069","","Was the sound coming from the left or the right?","0","","","1","INDUCTION-JUDGMENT","left","0","","","","","","","","","","","","","","","","","","","","","","","","","","",""
"html-keyboard-response","134","288967","0.0-4.0-1.0-2.37","3","0","p10utyza7z3pd1p","","null","","<p style=""color:#054d00;""><b>Correct!</b></p>","","null","","","","","","","","","","","","","","","","","","","","","","","","","","","","","","","",""
"audio-keyboard-response","135","289777","0.0-4.0-1.0-0.38","3","0","p10utyza7z3pd1p","","null","","sounds/induction/right_rev/me_SWS.wav","","null","","","","","","","","","","","","","","","","","","","","","","","","","","","","","","","",""
"html-button-response","136","290714","0.0-4.0-1.0-1.38","3","0","p10utyza7z3pd1p","","936.2000000001863","","Was the sound coming from the left or the right?","1","","","1","INDUCTION-JUDGMENT","right","1","","","","","","","","","","","","","","","","","","","","","","","","","","",""
"html-keyboard-response","137","291717","0.0-4.0-1.0-2.38","3","0","p10utyza7z3pd1p","","null","","<p style=""color:#054d00;""><b>Correct!</b></p>","","null","","","","","","","","","","","","","","","","","","","","","","","","","","","","","","","",""
"audio-keyboard-response","138","292516","0.0-4.0-1.0-0.39","3","0","p10utyza7z3pd1p","","null","","sounds/induction/left_rev/fe_SWS.wav","","null","","","","","","","","","","","","","","","","","","","","","","","","","","","","","","","",""
"html-button-response","139","293314","0.0-4.0-1.0-1.39","3","0","p10utyza7z3pd1p","","796.5","","Was the sound coming from the left or the right?","0","","","1","INDUCTION-JUDGMENT","left","0","","","","","","","","","","","","","","","","","","","","","","","","","","",""
"html-keyboard-response","140","294316","0.0-4.0-1.0-2.39","3","0","p10utyza7z3pd1p","","null","","<p style=""color:#054d00;""><b>Correct!</b></p>","","null","","","","","","","","","","","","","","","","","","","","","","","","","","","","","","","",""
"audio-keyboard-response","141","295116","0.0-4.0-1.0-0.40","3","0","p10utyza7z3pd1p","","null","","sounds/induction/right_rev/ta_SWS.wav","","null","","","","","","","","","","","","","","","","","","","","","","","","","","","","","","","",""
"html-button-response","142","295691","0.0-4.0-1.0-1.40","3","0","p10utyza7z3pd1p","","573.6999999999534","","Was the sound coming from the left or the right?","1","","","1","INDUCTION-JUDGMENT","right","1","","","","","","","","","","","","","","","","","","","","","","","","","","",""
"html-keyboard-response","143","296704","0.0-4.0-1.0-2.40","3","0","p10utyza7z3pd1p","","null","","<p style=""color:#054d00;""><b>Correct!</b></p>","","null","","","","","","","","","","","","","","","","","","","","","","","","","","","","","","","",""
"audio-keyboard-response","144","297517","0.0-4.0-1.0-0.41","3","0","p10utyza7z3pd1p","","null","","sounds/induction/right_rev/ko_SWS.wav","","null","","","","","","","","","","","","","","","","","","","","","","","","","","","","","","","",""
"html-button-response","145","298251","0.0-4.0-1.0-1.41","3","0","p10utyza7z3pd1p","","732.8999999999069","","Was the sound coming from the left or the right?","1","","","1","INDUCTION-JUDGMENT","right","1","","","","","","","","","","","","","","","","","","","","","","","","","","",""
"html-keyboard-response","146","299256","0.0-4.0-1.0-2.41","3","0","p10utyza7z3pd1p","","null","","<p style=""color:#054d00;""><b>Correct!</b></p>","","null","","","","","","","","","","","","","","","","","","","","","","","","","","","","","","","",""
"audio-keyboard-response","147","300057","0.0-4.0-1.0-0.42","3","0","p10utyza7z3pd1p","","null","","sounds/induction/left_rev/re_SWS.wav","","null","","","","","","","","","","","","","","","","","","","","","","","","","","","","","","","",""
"html-button-response","148","300923","0.0-4.0-1.0-1.42","3","0","p10utyza7z3pd1p","","864.3999999999069","","Was the sound coming from the left or the right?","0","","","1","INDUCTION-JUDGMENT","left","0","","","","","","","","","","","","","","","","","","","","","","","","","","",""
"html-keyboard-response","149","301934","0.0-4.0-1.0-2.42","3","0","p10utyza7z3pd1p","","null","","<p style=""color:#054d00;""><b>Correct!</b></p>","","null","","","","","","","","","","","","","","","","","","","","","","","","","","","","","","","",""
"audio-keyboard-response","150","302747","0.0-4.0-1.0-0.43","3","0","p10utyza7z3pd1p","","null","","sounds/induction/left_rev/su_SWS.wav","","null","","","","","","","","","","","","","","","","","","","","","","","","","","","","","","","",""
"html-button-response","151","304005","0.0-4.0-1.0-1.43","3","0","p10utyza7z3pd1p","","1256.5","","Was the sound coming from the left or the right?","0","","","1","INDUCTION-JUDGMENT","left","0","","","","","","","","","","","","","","","","","","","","","","","","","","",""
"html-keyboard-response","152","305006","0.0-4.0-1.0-2.43","3","0","p10utyza7z3pd1p","","null","","<p style=""color:#054d00;""><b>Correct!</b></p>","","null","","","","","","","","","","","","","","","","","","","","","","","","","","","","","","","",""
"audio-keyboard-response","153","305808","0.0-4.0-1.0-0.44","3","0","p10utyza7z3pd1p","","null","","sounds/induction/right_rev/fe_SWS.wav","","null","","","","","","","","","","","","","","","","","","","","","","","","","","","","","","","",""
"html-button-response","154","306685","0.0-4.0-1.0-1.44","3","0","p10utyza7z3pd1p","","875.6999999999534","","Was the sound coming from the left or the right?","1","","","1","INDUCTION-JUDGMENT","right","1","","","","","","","","","","","","","","","","","","","","","","","","","","",""
"html-keyboard-response","155","307699","0.0-4.0-1.0-2.44","3","0","p10utyza7z3pd1p","","null","","<p style=""color:#054d00;""><b>Correct!</b></p>","","null","","","","","","","","","","","","","","","","","","","","","","","","","","","","","","","",""
"audio-keyboard-response","156","308508","0.0-4.0-1.0-0.45","3","0","p10utyza7z3pd1p","","null","","sounds/induction/right_rev/fu_SWS.wav","","null","","","","","","","","","","","","","","","","","","","","","","","","","","","","","","","",""
"html-button-response","157","309165","0.0-4.0-1.0-1.45","3","0","p10utyza7z3pd1p","","655.1000000000931","","Was the sound coming from the left or the right?","1","","","1","INDUCTION-JUDGMENT","right","1","","","","","","","","","","","","","","","","","","","","","","","","","","",""
"html-keyboard-response","158","310186","0.0-4.0-1.0-2.45","3","0","p10utyza7z3pd1p","","null","","<p style=""color:#054d00;""><b>Correct!</b></p>","","null","","","","","","","","","","","","","","","","","","","","","","","","","","","","","","","",""
"audio-keyboard-response","159","311017","0.0-4.0-1.0-0.46","3","0","p10utyza7z3pd1p","","null","","sounds/induction/right_rev/re_SWS.wav","","null","","","","","","","","","","","","","","","","","","","","","","","","","","","","","","","",""
"html-button-response","160","311589","0.0-4.0-1.0-1.46","3","0","p10utyza7z3pd1p","","571","","Was the sound coming from the left or the right?","1","","","1","INDUCTION-JUDGMENT","right","1","","","","","","","","","","","","","","","","","","","","","","","","","","",""
"html-keyboard-response","161","312597","0.0-4.0-1.0-2.46","3","0","p10utyza7z3pd1p","","null","","<p style=""color:#054d00;""><b>Correct!</b></p>","","null","","","","","","","","","","","","","","","","","","","","","","","","","","","","","","","",""
"audio-keyboard-response","162","313417","0.0-4.0-1.0-0.47","3","0","p10utyza7z3pd1p","","null","","sounds/induction/right_rev/ko_SWS.wav","","null","","","","","","","","","","","","","","","","","","","","","","","","","","","","","","","",""
"html-button-response","163","313981","0.0-4.0-1.0-1.47","3","0","p10utyza7z3pd1p","","563.2999999998137","","Was the sound coming from the left or the right?","1","","","1","INDUCTION-JUDGMENT","right","1","","","","","","","","","","","","","","","","","","","","","","","","","","",""
"html-keyboard-response","164","314998","0.0-4.0-1.0-2.47","3","0","p10utyza7z3pd1p","","null","","<p style=""color:#054d00;""><b>Correct!</b></p>","","null","","","","","","","","","","","","","","","","","","","","","","","","","","","","","","","",""
"html-button-response","165","321122","0.0-5.0-0.0","3","0","p10utyza7z3pd1p","","5609.5","","<p>Thank you for your answers.</p><p>You will now listen to similar sounds. The main difference is that the sounds will be longer.</p><p>Just as before, you will be asked to judge whether the sound was coming from the left or the right.</p><p>There are 10 of these longer sounds in total.","0","","","","","","","","","","","","","","","","","","","","","","","","","","","","","","","","",""
"audio-keyboard-response","166","323857","0.0-5.0-1.0-0.0","3","0","p10utyza7z3pd1p","","null","","sounds/sentences/right_rev/14_09_cfSWS.wav","","null","","","","","","","","","","","","","","","","","","","","","","","","","","","","","","","",""
"html-button-response","167","324794","0.0-5.0-1.0-1.0","3","0","p10utyza7z3pd1p","","935.1000000000931","","Was the sound coming from the left or the right?","1","","","1","INDUCTION-JUDGMENT","right","1","","","","","","","","","","","","","","","","","","","","","","","","","","",""
"html-keyboard-response","168","325797","0.0-5.0-1.0-2.0","3","0","p10utyza7z3pd1p","","null","","<p style=""color:#054d00;""><b>Correct!</b></p>","","null","","","","","","","","","","","","","","","","","","","","","","","","","","","","","","","",""
"html-button-response","169","327283","0.0-5.0-1.0-3.0","3","0","p10utyza7z3pd1p","","977.8999999999069","","<p>Press the button below when you are ready to continue.</p>","0","","","","","","","","","","","","","","","","","","","","","","","","","","","","","","","","",""
"audio-keyboard-response","170","329867","0.0-5.0-1.0-0.1","3","0","p10utyza7z3pd1p","","null","","sounds/sentences/left_rev/14_03_cfSWS.wav","","null","","","","","","","","","","","","","","","","","","","","","","","","","","","","","","","",""
"html-button-response","171","330595","0.0-5.0-1.0-1.1","3","0","p10utyza7z3pd1p","","726.6999999999534","","Was the sound coming from the left or the right?","0","","","1","INDUCTION-JUDGMENT","left","0","","","","","","","","","","","","","","","","","","","","","","","","","","",""
"html-keyboard-response","172","331607","0.0-5.0-1.0-2.1","3","0","p10utyza7z3pd1p","","null","","<p style=""color:#054d00;""><b>Correct!</b></p>","","null","","","","","","","","","","","","","","","","","","","","","","","","","","","","","","","",""
"html-button-response","173","332644","0.0-5.0-1.0-3.1","3","0","p10utyza7z3pd1p","","527.3000000000466","","<p>Press the button below when you are ready to continue.</p>","0","","","","","","","","","","","","","","","","","","","","","","","","","","","","","","","","",""
"audio-keyboard-response","174","335397","0.0-5.0-1.0-0.2","3","0","p10utyza7z3pd1p","","null","","sounds/sentences/right_rev/14_06_cfSWS.wav","","null","","","","","","","","","","","","","","","","","","","","","","","","","","","","","","","",""
"html-button-response","175","335892","0.0-5.0-1.0-1.2","3","0","p10utyza7z3pd1p","","493.70000000018626","","Was the sound coming from the left or the right?","1","","","1","INDUCTION-JUDGMENT","right","1","","","","","","","","","","","","","","","","","","","","","","","","","","",""
"html-keyboard-response","176","336907","0.0-5.0-1.0-2.2","3","0","p10utyza7z3pd1p","","null","","<p style=""color:#054d00;""><b>Correct!</b></p>","","null","","","","","","","","","","","","","","","","","","","","","","","","","","","","","","","",""
"html-button-response","177","338540","0.0-5.0-1.0-3.2","3","0","p10utyza7z3pd1p","","1113.5","","<p>Press the button below when you are ready to continue.</p>","0","","","","","","","","","","","","","","","","","","","","","","","","","","","","","","","","",""
"audio-keyboard-response","178","341297","0.0-5.0-1.0-0.3","3","0","p10utyza7z3pd1p","","null","","sounds/sentences/right_rev/14_08_cfSWS.wav","","null","","","","","","","","","","","","","","","","","","","","","","","","","","","","","","","",""
"html-button-response","179","341901","0.0-5.0-1.0-1.3","3","0","p10utyza7z3pd1p","","603.3999999999069","","Was the sound coming from the left or the right?","1","","","1","INDUCTION-JUDGMENT","right","1","","","","","","","","","","","","","","","","","","","","","","","","","","",""
"html-keyboard-response","180","342916","0.0-5.0-1.0-2.3","3","0","p10utyza7z3pd1p","","null","","<p style=""color:#054d00;""><b>Correct!</b></p>","","null","","","","","","","","","","","","","","","","","","","","","","","","","","","","","","","",""
"html-button-response","181","344309","0.0-5.0-1.0-3.3","3","0","p10utyza7z3pd1p","","881.1999999999534","","<p>Press the button below when you are ready to continue.</p>","0","","","","","","","","","","","","","","","","","","","","","","","","","","","","","","","","",""
"audio-keyboard-response","182","347338","0.0-5.0-1.0-0.4","3","0","p10utyza7z3pd1p","","null","","sounds/sentences/right_rev/14_10_cfSWS.wav","","null","","","","","","","","","","","","","","","","","","","","","","","","","","","","","","","",""
"html-button-response","183","347933","0.0-5.0-1.0-1.4","3","0","p10utyza7z3pd1p","","593.5999999998603","","Was the sound coming from the left or the right?","1","","","1","INDUCTION-JUDGMENT","right","1","","","","","","","","","","","","","","","","","","","","","","","","","","",""
"html-keyboard-response","184","348936","0.0-5.0-1.0-2.4","3","0","p10utyza7z3pd1p","","null","","<p style=""color:#054d00;""><b>Correct!</b></p>","","null","","","","","","","","","","","","","","","","","","","","","","","","","","","","","","","",""
"html-button-response","185","350142","0.0-5.0-1.0-3.4","3","0","p10utyza7z3pd1p","","694.6000000000931","","<p>Press the button below when you are ready to continue.</p>","0","","","","","","","","","","","","","","","","","","","","","","","","","","","","","","","","",""
"audio-keyboard-response","186","352967","0.0-5.0-1.0-0.5","3","0","p10utyza7z3pd1p","","null","","sounds/sentences/left_rev/14_02_cfSWS.wav","","null","","","","","","","","","","","","","","","","","","","","","","","","","","","","","","","",""
"html-button-response","187","353494","0.0-5.0-1.0-1.5","3","0","p10utyza7z3pd1p","","524.6000000000931","","Was the sound coming from the left or the right?","0","","","1","INDUCTION-JUDGMENT","left","0","","","","","","","","","","","","","","","","","","","","","","","","","","",""
"html-keyboard-response","188","354510","0.0-5.0-1.0-2.5","3","0","p10utyza7z3pd1p","","null","","<p style=""color:#054d00;""><b>Correct!</b></p>","","null","","","","","","","","","","","","","","","","","","","","","","","","","","","","","","","",""
"html-button-response","189","355807","0.0-5.0-1.0-3.5","3","0","p10utyza7z3pd1p","","780.0999999998603","","<p>Press the button below when you are ready to continue.</p>","0","","","","","","","","","","","","","","","","","","","","","","","","","","","","","","","","",""
"audio-keyboard-response","190","358377","0.0-5.0-1.0-0.6","3","0","p10utyza7z3pd1p","","null","","sounds/sentences/left_rev/14_04_cfSWS.wav","","null","","","","","","","","","","","","","","","","","","","","","","","","","","","","","","","",""
"html-button-response","191","359255","0.0-5.0-1.0-1.6","3","0","p10utyza7z3pd1p","","876.9000000001397","","Was the sound coming from the left or the right?","0","","","1","INDUCTION-JUDGMENT","left","0","","","","","","","","","","","","","","","","","","","","","","","","","","",""
"html-keyboard-response","192","360257","0.0-5.0-1.0-2.6","3","0","p10utyza7z3pd1p","","null","","<p style=""color:#054d00;""><b>Correct!</b></p>","","null","","","","","","","","","","","","","","","","","","","","","","","","","","","","","","","",""
"html-button-response","193","361951","0.0-5.0-1.0-3.6","3","0","p10utyza7z3pd1p","","1187.8000000000466","","<p>Press the button below when you are ready to continue.</p>","0","","","","","","","","","","","","","","","","","","","","","","","","","","","","","","","","",""
"audio-keyboard-response","194","364957","0.0-5.0-1.0-0.7","3","0","p10utyza7z3pd1p","","null","","sounds/sentences/left_rev/14_05_cfSWS.wav","","null","","","","","","","","","","","","","","","","","","","","","","","","","","","","","","","",""
"html-button-response","195","365616","0.0-5.0-1.0-1.7","3","0","p10utyza7z3pd1p","","657.5","","Was the sound coming from the left or the right?","0","","","1","INDUCTION-JUDGMENT","left","0","","","","","","","","","","","","","","","","","","","","","","","","","","",""
"html-keyboard-response","196","366636","0.0-5.0-1.0-2.7","3","0","p10utyza7z3pd1p","","null","","<p style=""color:#054d00;""><b>Correct!</b></p>","","null","","","","","","","","","","","","","","","","","","","","","","","","","","","","","","","",""
"html-button-response","197","367808","0.0-5.0-1.0-3.7","3","0","p10utyza7z3pd1p","","661.8000000000466","","<p>Press the button below when you are ready to continue.</p>","0","","","","","","","","","","","","","","","","","","","","","","","","","","","","","","","","",""
"audio-keyboard-response","198","370937","0.0-5.0-1.0-0.8","3","0","p10utyza7z3pd1p","","null","","sounds/sentences/left_rev/14_01_cfSWS.wav","","null","","","","","","","","","","","","","","","","","","","","","","","","","","","","","","","",""
"html-button-response","199","371417","0.0-5.0-1.0-1.8","3","0","p10utyza7z3pd1p","","475.89999999990687","","Was the sound coming from the left or the right?","0","","","1","INDUCTION-JUDGMENT","left","0","","","","","","","","","","","","","","","","","","","","","","","","","","",""
"html-keyboard-response","200","372420","0.0-5.0-1.0-2.8","3","0","p10utyza7z3pd1p","","null","","<p style=""color:#054d00;""><b>Correct!</b></p>","","null","","","","","","","","","","","","","","","","","","","","","","","","","","","","","","","",""
"html-button-response","201","373893","0.0-5.0-1.0-3.8","3","0","p10utyza7z3pd1p","","965.8000000000466","","<p>Press the button below when you are ready to continue.</p>","0","","","","","","","","","","","","","","","","","","","","","","","","","","","","","","","","",""
"audio-keyboard-response","202","376787","0.0-5.0-1.0-0.9","3","0","p10utyza7z3pd1p","","null","","sounds/sentences/right_rev/14_07_cfSWS.wav","","null","","","","","","","","","","","","","","","","","","","","","","","","","","","","","","","",""
"html-button-response","203","377449","0.0-5.0-1.0-1.9","3","0","p10utyza7z3pd1p","","660","","Was the sound coming from the left or the right?","1","","","1","INDUCTION-JUDGMENT","right","1","","","","","","","","","","","","","","","","","","","","","","","","","","",""
"html-keyboard-response","204","378451","0.0-5.0-1.0-2.9","3","0","p10utyza7z3pd1p","","null","","<p style=""color:#054d00;""><b>Correct!</b></p>","","null","","","","","","","","","","","","","","","","","","","","","","","","","","","","","","","",""
"html-button-response","205","379555","0.0-5.0-1.0-3.9","3","0","p10utyza7z3pd1p","","589.5","","<p>Press the button below when you are ready to continue.</p>","0","","","","","","","","","","","","","","","","","","","","","","","","","","","","","","","","",""
"html-keyboard-response","206","394428","0.0-6.0-0.0","3","0","p10utyza7z3pd1p","","14359.800000000047","","<p>In this part of the study, you will hear sounds similar to those you just heard.</p><p>Please focus on these sounds, as you may be asked questions about them later.</p><p>Occasionally, the sounds will pause for up to two seconds. When this happens, please press SPACEBAR as quickly as you can.</br>This helps ensure that you are paying attention to the sounds.</p><p>This part of the study will take about 12 minutes to complete, and you will be given the opportunity to take a couple of short breaks every few minutes.</p><p><strong>Press SPACEBAR to begin</strong></p>","","32","","","","","","","","","","","","","","","","","","","","","","","","","","","","","","","",""
"html-keyboard-response","207","395436","0.0-6.0-1.0-0.0","3","0","p10utyza7z3pd1p","","null","","<p style=""font-size: 40px;"">+</p>","","null","","","","","","","","","","","","","","","","","","","","","","","","","","","","","","","",""
"html-keyboard-response","208","580447","0.0-6.0-1.0-1.0","3","0","p10utyza7z3pd1p","","null","","","","null","","","SL-TRAIN","","","0","566.8000000000466","661.8000000000466","sounds/C/TRAIN/SEQ__04.mp3","2","","","","","","","","","","","","","","","","","","","","","",""
"html-button-response","209","1006834","0.0-6.0-1.0-2.0","3","0","p10utyza7z3pd1p","","426386.19999999995","","<p>You may take a short break if you wish.</p>","0","","","","","","","","","","","","","","","","","","","","","","","","","","","","","","","","",""
"html-keyboard-response","210","1007839","0.0-6.0-1.0-3.0","3","0","p10utyza7z3pd1p","","null","","<p style=""font-size: 40px;"">+</p>","","null","","","","","","","","","","","","","","","","","","","","","","","","","","","","","","","",""
"html-keyboard-response","211","1192847","0.0-6.0-1.0-4.0","3","0","p10utyza7z3pd1p","","null","","","","null","","","SL-TRAIN","","","0","685.1999999999534","762.8999999999069","sounds/C/TRAIN/SEQ__09.mp3","5","","","","","","","","","","","","","","","","","","","","","",""
"html-button-response","212","1195391","0.0-6.0-1.0-5.0","3","0","p10utyza7z3pd1p","","2541.2000000001863","","<p>You may take a short break if you wish.</p>","0","","","","","","","","","","","","","","","","","","","","","","","","","","","","","","","","",""
"html-keyboard-response","213","1196401","0.0-6.0-1.0-6.0","3","0","p10utyza7z3pd1p","","null","","<p style=""font-size: 40px;"">+</p>","","null","","","","","","","","","","","","","","","","","","","","","","","","","","","","","","","",""
"html-keyboard-response","214","1381409","0.0-6.0-1.0-7.0","3","0","p10utyza7z3pd1p","","null","","","","null","","","SL-TRAIN","","","0","1117.7999999998137","789.2999999998137","sounds/C/TRAIN/SEQ__10.mp3","6","","","","","","","","","","","","","","","","","","","","","",""
"html-button-response","215","1384695","0.0-6.0-1.0-8.0","3","0","p10utyza7z3pd1p","","3284.5","","<p>You may take a short break if you wish.</p>","0","","","","","","","","","","","","","","","","","","","","","","","","","","","","","","","","",""
"html-keyboard-response","216","1385703","0.0-6.0-1.0-9.0","3","0","p10utyza7z3pd1p","","null","","<p style=""font-size: 40px;"">+</p>","","null","","","","","","","","","","","","","","","","","","","","","","","","","","","","","","","",""
"html-keyboard-response","217","1571058","0.0-6.0-1.0-10.0","3","0","p10utyza7z3pd1p","","null","","","","null","","","SL-TRAIN","","","0","1805.5","1237.3999999999069","sounds/C/TRAIN/SEQ__05.mp3","15","","","","","","","","","","","","","","","","","","","","","",""
"html-button-response","218","1574143","0.0-6.0-1.0-11.0","3","0","p10utyza7z3pd1p","","3083.5","","<p>You may take a short break if you wish.</p>","0","","","","","","","","","","","","","","","","","","","","","","","","","","","","","","","","",""
"html-button-response","219","1585664","0.0-7.0-0.0","3","0","p10utyza7z3pd1p","","11520.5","","<p>Welcome to the second part of the study. This is a <u>familiarity task</u>.</p><p>You will now hear short sounds and will be asked to rate how familiar they sound to you <b>based on what you heard in the previous part of the study</b>.</p><p>You will rate 12 sounds in total.</p>","0","","","","","","","","","","","","","","","","","","","","","","","","","","","","","","","","",""
"html-keyboard-response","220","1586675","0.0-7.0-1.0-0.0","3","0","p10utyza7z3pd1p","","null","","","","null","","","","","","","","","","","","","","","","","","","","","","","","","","","","","","","",""
"audio-keyboard-response","221","1587702","0.0-7.0-1.0-1.0","3","0","p10utyza7z3pd1p","","null","","sounds/C/FAM/W003.mp3","","null","","","","","","","","","","","","","","","","","","","","","","","","","","","","","","","",""
"html-keyboard-response","222","1591123","0.0-7.0-1.0-2.0","3","0","p10utyza7z3pd1p","","2898.7000000001863","","<p>How familiar did this sound to you?</p><p>1&nbsp;&nbsp;&nbsp;&nbsp;&nbsp;&nbsp;&nbsp;&nbsp;&nbsp;&nbsp;&nbsp;&nbsp;&nbsp;&nbsp;&nbsp;&nbsp;&nbsp;&nbsp;&nbsp;2&nbsp;&nbsp;&nbsp;&nbsp;&nbsp;&nbsp;&nbsp;&nbsp;&nbsp;&nbsp;&nbsp;&nbsp;&nbsp;&nbsp;&nbsp;&nbsp;&nbsp;&nbsp;&nbsp;3&nbsp;&nbsp;&nbsp;&nbsp;&nbsp;&nbsp;&nbsp;&nbsp;&nbsp;&nbsp;&nbsp;&nbsp;&nbsp;&nbsp;&nbsp;&nbsp;&nbsp;&nbsp;&nbsp;4</p><p style=""font-size:14px"">Not at all familiar&nbsp;&nbsp;&nbsp;&nbsp;A little familiar&nbsp;&nbsp;&nbsp;Moderately familiar&nbsp;&nbsp;&nbsp;Extremely familiar</p><p>(press the corresponding number on your keyboard)</p>","","52","","","FAM-RESPONSE","","","","","","","","sounds/C/FAM/W003.mp3","word","","","","","","","","","","","","","","","","","","","",""
"html-keyboard-response","223","1593153","0.0-7.0-1.0-0.1","3","0","p10utyza7z3pd1p","","null","","","","null","","","","","","","","","","","","","","","","","","","","","","","","","","","","","","","",""
"audio-keyboard-response","224","1594102","0.0-7.0-1.0-1.1","3","0","p10utyza7z3pd1p","","null","","sounds/C/FAM/W001.mp3","","null","","","","","","","","","","","","","","","","","","","","","","","","","","","","","","","",""
"html-keyboard-response","225","1598784","0.0-7.0-1.0-2.1","3","0","p10utyza7z3pd1p","","4160.100000000093","","<p>How familiar did this sound to you?</p><p>1&nbsp;&nbsp;&nbsp;&nbsp;&nbsp;&nbsp;&nbsp;&nbsp;&nbsp;&nbsp;&nbsp;&nbsp;&nbsp;&nbsp;&nbsp;&nbsp;&nbsp;&nbsp;&nbsp;2&nbsp;&nbsp;&nbsp;&nbsp;&nbsp;&nbsp;&nbsp;&nbsp;&nbsp;&nbsp;&nbsp;&nbsp;&nbsp;&nbsp;&nbsp;&nbsp;&nbsp;&nbsp;&nbsp;3&nbsp;&nbsp;&nbsp;&nbsp;&nbsp;&nbsp;&nbsp;&nbsp;&nbsp;&nbsp;&nbsp;&nbsp;&nbsp;&nbsp;&nbsp;&nbsp;&nbsp;&nbsp;&nbsp;4</p><p style=""font-size:14px"">Not at all familiar&nbsp;&nbsp;&nbsp;&nbsp;A little familiar&nbsp;&nbsp;&nbsp;Moderately familiar&nbsp;&nbsp;&nbsp;Extremely familiar</p><p>(press the corresponding number on your keyboard)</p>","","52","","","FAM-RESPONSE","","","","","","","","sounds/C/FAM/W001.mp3","word","","","","","","","","","","","","","","","","","","","",""
"html-keyboard-response","226","1600348","0.0-7.0-1.0-0.2","3","0","p10utyza7z3pd1p","","544.3999999999069","","","","144","","","","","","","","","","","","","","","","","","","","","","","","","","","","","","","",""
"audio-keyboard-response","227","1601283","0.0-7.0-1.0-1.2","3","0","p10utyza7z3pd1p","","null","","sounds/C/FAM/N002.mp3","","null","","","","","","","","","","","","","","","","","","","","","","","","","","","","","","","",""
"html-keyboard-response","228","1610516","0.0-7.0-1.0-2.2","3","0","p10utyza7z3pd1p","","8712.700000000186","","<p>How familiar did this sound to you?</p><p>1&nbsp;&nbsp;&nbsp;&nbsp;&nbsp;&nbsp;&nbsp;&nbsp;&nbsp;&nbsp;&nbsp;&nbsp;&nbsp;&nbsp;&nbsp;&nbsp;&nbsp;&nbsp;&nbsp;2&nbsp;&nbsp;&nbsp;&nbsp;&nbsp;&nbsp;&nbsp;&nbsp;&nbsp;&nbsp;&nbsp;&nbsp;&nbsp;&nbsp;&nbsp;&nbsp;&nbsp;&nbsp;&nbsp;3&nbsp;&nbsp;&nbsp;&nbsp;&nbsp;&nbsp;&nbsp;&nbsp;&nbsp;&nbsp;&nbsp;&nbsp;&nbsp;&nbsp;&nbsp;&nbsp;&nbsp;&nbsp;&nbsp;4</p><p style=""font-size:14px"">Not at all familiar&nbsp;&nbsp;&nbsp;&nbsp;A little familiar&nbsp;&nbsp;&nbsp;Moderately familiar&nbsp;&nbsp;&nbsp;Extremely familiar</p><p>(press the corresponding number on your keyboard)</p>","","50","","","FAM-RESPONSE","","","","","","","","sounds/C/FAM/N002.mp3","nonword","","","","","","","","","","","","","","","","","","","",""
"html-keyboard-response","229","1612541","0.0-7.0-1.0-0.3","3","0","p10utyza7z3pd1p","","null","","","","null","","","","","","","","","","","","","","","","","","","","","","","","","","","","","","","",""
"audio-keyboard-response","230","1613483","0.0-7.0-1.0-1.3","3","0","p10utyza7z3pd1p","","null","","sounds/C/FAM/W002.mp3","","null","","","","","","","","","","","","","","","","","","","","","","","","","","","","","","","",""
"html-keyboard-response","231","1614485","0.0-7.0-1.0-2.3","3","0","p10utyza7z3pd1p","","492.10000000009313","","<p>How familiar did this sound to you?</p><p>1&nbsp;&nbsp;&nbsp;&nbsp;&nbsp;&nbsp;&nbsp;&nbsp;&nbsp;&nbsp;&nbsp;&nbsp;&nbsp;&nbsp;&nbsp;&nbsp;&nbsp;&nbsp;&nbsp;2&nbsp;&nbsp;&nbsp;&nbsp;&nbsp;&nbsp;&nbsp;&nbsp;&nbsp;&nbsp;&nbsp;&nbsp;&nbsp;&nbsp;&nbsp;&nbsp;&nbsp;&nbsp;&nbsp;3&nbsp;&nbsp;&nbsp;&nbsp;&nbsp;&nbsp;&nbsp;&nbsp;&nbsp;&nbsp;&nbsp;&nbsp;&nbsp;&nbsp;&nbsp;&nbsp;&nbsp;&nbsp;&nbsp;4</p><p style=""font-size:14px"">Not at all familiar&nbsp;&nbsp;&nbsp;&nbsp;A little familiar&nbsp;&nbsp;&nbsp;Moderately familiar&nbsp;&nbsp;&nbsp;Extremely familiar</p><p>(press the corresponding number on your keyboard)</p>","","52","","","FAM-RESPONSE","","","","","","","","sounds/C/FAM/W002.mp3","word","","","","","","","","","","","","","","","","","","","",""
"html-keyboard-response","232","1616502","0.0-7.0-1.0-0.4","3","0","p10utyza7z3pd1p","","null","","","","null","","","","","","","","","","","","","","","","","","","","","","","","","","","","","","","",""
"audio-keyboard-response","233","1617443","0.0-7.0-1.0-1.4","3","0","p10utyza7z3pd1p","","null","","sounds/C/FAM/P001.mp3","","null","","","","","","","","","","","","","","","","","","","","","","","","","","","","","","","",""
"html-keyboard-response","234","1619416","0.0-7.0-1.0-2.4","3","0","p10utyza7z3pd1p","","1453.2999999998137","","<p>How familiar did this sound to you?</p><p>1&nbsp;&nbsp;&nbsp;&nbsp;&nbsp;&nbsp;&nbsp;&nbsp;&nbsp;&nbsp;&nbsp;&nbsp;&nbsp;&nbsp;&nbsp;&nbsp;&nbsp;&nbsp;&nbsp;2&nbsp;&nbsp;&nbsp;&nbsp;&nbsp;&nbsp;&nbsp;&nbsp;&nbsp;&nbsp;&nbsp;&nbsp;&nbsp;&nbsp;&nbsp;&nbsp;&nbsp;&nbsp;&nbsp;3&nbsp;&nbsp;&nbsp;&nbsp;&nbsp;&nbsp;&nbsp;&nbsp;&nbsp;&nbsp;&nbsp;&nbsp;&nbsp;&nbsp;&nbsp;&nbsp;&nbsp;&nbsp;&nbsp;4</p><p style=""font-size:14px"">Not at all familiar&nbsp;&nbsp;&nbsp;&nbsp;A little familiar&nbsp;&nbsp;&nbsp;Moderately familiar&nbsp;&nbsp;&nbsp;Extremely familiar</p><p>(press the corresponding number on your keyboard)</p>","","51","","","FAM-RESPONSE","","","","","","","","sounds/C/FAM/P001.mp3","partword","","","","","","","","","","","","","","","","","","","",""
"html-keyboard-response","235","1621432","0.0-7.0-1.0-0.5","3","0","p10utyza7z3pd1p","","null","","","","null","","","","","","","","","","","","","","","","","","","","","","","","","","","","","","","",""
"audio-keyboard-response","236","1622373","0.0-7.0-1.0-1.5","3","0","p10utyza7z3pd1p","","null","","sounds/C/FAM/P002.mp3","","null","","","","","","","","","","","","","","","","","","","","","","","","","","","","","","","",""
"html-keyboard-response","237","1624567","0.0-7.0-1.0-2.5","3","0","p10utyza7z3pd1p","","1683.8999999999069","","<p>How familiar did this sound to you?</p><p>1&nbsp;&nbsp;&nbsp;&nbsp;&nbsp;&nbsp;&nbsp;&nbsp;&nbsp;&nbsp;&nbsp;&nbsp;&nbsp;&nbsp;&nbsp;&nbsp;&nbsp;&nbsp;&nbsp;2&nbsp;&nbsp;&nbsp;&nbsp;&nbsp;&nbsp;&nbsp;&nbsp;&nbsp;&nbsp;&nbsp;&nbsp;&nbsp;&nbsp;&nbsp;&nbsp;&nbsp;&nbsp;&nbsp;3&nbsp;&nbsp;&nbsp;&nbsp;&nbsp;&nbsp;&nbsp;&nbsp;&nbsp;&nbsp;&nbsp;&nbsp;&nbsp;&nbsp;&nbsp;&nbsp;&nbsp;&nbsp;&nbsp;4</p><p style=""font-size:14px"">Not at all familiar&nbsp;&nbsp;&nbsp;&nbsp;A little familiar&nbsp;&nbsp;&nbsp;Moderately familiar&nbsp;&nbsp;&nbsp;Extremely familiar</p><p>(press the corresponding number on your keyboard)</p>","","50","","","FAM-RESPONSE","","","","","","","","sounds/C/FAM/P002.mp3","partword","","","","","","","","","","","","","","","","","","","",""
"html-keyboard-response","238","1626593","0.0-7.0-1.0-0.6","3","0","p10utyza7z3pd1p","","null","","","","null","","","","","","","","","","","","","","","","","","","","","","","","","","","","","","","",""
"audio-keyboard-response","239","1627533","0.0-7.0-1.0-1.6","3","0","p10utyza7z3pd1p","","null","","sounds/C/FAM/W004.mp3","","null","","","","","","","","","","","","","","","","","","","","","","","","","","","","","","","",""
"html-keyboard-response","240","1628894","0.0-7.0-1.0-2.6","3","0","p10utyza7z3pd1p","","850.3000000002794","","<p>How familiar did this sound to you?</p><p>1&nbsp;&nbsp;&nbsp;&nbsp;&nbsp;&nbsp;&nbsp;&nbsp;&nbsp;&nbsp;&nbsp;&nbsp;&nbsp;&nbsp;&nbsp;&nbsp;&nbsp;&nbsp;&nbsp;2&nbsp;&nbsp;&nbsp;&nbsp;&nbsp;&nbsp;&nbsp;&nbsp;&nbsp;&nbsp;&nbsp;&nbsp;&nbsp;&nbsp;&nbsp;&nbsp;&nbsp;&nbsp;&nbsp;3&nbsp;&nbsp;&nbsp;&nbsp;&nbsp;&nbsp;&nbsp;&nbsp;&nbsp;&nbsp;&nbsp;&nbsp;&nbsp;&nbsp;&nbsp;&nbsp;&nbsp;&nbsp;&nbsp;4</p><p style=""font-size:14px"">Not at all familiar&nbsp;&nbsp;&nbsp;&nbsp;A little familiar&nbsp;&nbsp;&nbsp;Moderately familiar&nbsp;&nbsp;&nbsp;Extremely familiar</p><p>(press the corresponding number on your keyboard)</p>","","50","","","FAM-RESPONSE","","","","","","","","sounds/C/FAM/W004.mp3","word","","","","","","","","","","","","","","","","","","","",""
"html-keyboard-response","241","1630902","0.0-7.0-1.0-0.7","3","0","p10utyza7z3pd1p","","null","","","","null","","","","","","","","","","","","","","","","","","","","","","","","","","","","","","","",""
"audio-keyboard-response","242","1631843","0.0-7.0-1.0-1.7","3","0","p10utyza7z3pd1p","","null","","sounds/C/FAM/N001.mp3","","null","","","","","","","","","","","","","","","","","","","","","","","","","","","","","","","",""
"html-keyboard-response","243","1632970","0.0-7.0-1.0-2.7","3","0","p10utyza7z3pd1p","","615.8999999999069","","<p>How familiar did this sound to you?</p><p>1&nbsp;&nbsp;&nbsp;&nbsp;&nbsp;&nbsp;&nbsp;&nbsp;&nbsp;&nbsp;&nbsp;&nbsp;&nbsp;&nbsp;&nbsp;&nbsp;&nbsp;&nbsp;&nbsp;2&nbsp;&nbsp;&nbsp;&nbsp;&nbsp;&nbsp;&nbsp;&nbsp;&nbsp;&nbsp;&nbsp;&nbsp;&nbsp;&nbsp;&nbsp;&nbsp;&nbsp;&nbsp;&nbsp;3&nbsp;&nbsp;&nbsp;&nbsp;&nbsp;&nbsp;&nbsp;&nbsp;&nbsp;&nbsp;&nbsp;&nbsp;&nbsp;&nbsp;&nbsp;&nbsp;&nbsp;&nbsp;&nbsp;4</p><p style=""font-size:14px"">Not at all familiar&nbsp;&nbsp;&nbsp;&nbsp;A little familiar&nbsp;&nbsp;&nbsp;Moderately familiar&nbsp;&nbsp;&nbsp;Extremely familiar</p><p>(press the corresponding number on your keyboard)</p>","","52","","","FAM-RESPONSE","","","","","","","","sounds/C/FAM/N001.mp3","nonword","","","","","","","","","","","","","","","","","","","",""
"html-keyboard-response","244","1634992","0.0-7.0-1.0-0.8","3","0","p10utyza7z3pd1p","","null","","","","null","","","","","","","","","","","","","","","","","","","","","","","","","","","","","","","",""
"audio-keyboard-response","245","1635933","0.0-7.0-1.0-1.8","3","0","p10utyza7z3pd1p","","null","","sounds/C/FAM/N004.mp3","","null","","","","","","","","","","","","","","","","","","","","","","","","","","","","","","","",""
"html-keyboard-response","246","1637558","0.0-7.0-1.0-2.8","3","0","p10utyza7z3pd1p","","1104.8000000002794","","<p>How familiar did this sound to you?</p><p>1&nbsp;&nbsp;&nbsp;&nbsp;&nbsp;&nbsp;&nbsp;&nbsp;&nbsp;&nbsp;&nbsp;&nbsp;&nbsp;&nbsp;&nbsp;&nbsp;&nbsp;&nbsp;&nbsp;2&nbsp;&nbsp;&nbsp;&nbsp;&nbsp;&nbsp;&nbsp;&nbsp;&nbsp;&nbsp;&nbsp;&nbsp;&nbsp;&nbsp;&nbsp;&nbsp;&nbsp;&nbsp;&nbsp;3&nbsp;&nbsp;&nbsp;&nbsp;&nbsp;&nbsp;&nbsp;&nbsp;&nbsp;&nbsp;&nbsp;&nbsp;&nbsp;&nbsp;&nbsp;&nbsp;&nbsp;&nbsp;&nbsp;4</p><p style=""font-size:14px"">Not at all familiar&nbsp;&nbsp;&nbsp;&nbsp;A little familiar&nbsp;&nbsp;&nbsp;Moderately familiar&nbsp;&nbsp;&nbsp;Extremely familiar</p><p>(press the corresponding number on your keyboard)</p>","","50","","","FAM-RESPONSE","","","","","","","","sounds/C/FAM/N004.mp3","nonword","","","","","","","","","","","","","","","","","","","",""
"html-keyboard-response","247","1639572","0.0-7.0-1.0-0.9","3","0","p10utyza7z3pd1p","","null","","","","null","","","","","","","","","","","","","","","","","","","","","","","","","","","","","","","",""
"audio-keyboard-response","248","1640513","0.0-7.0-1.0-1.9","3","0","p10utyza7z3pd1p","","null","","sounds/C/FAM/P003.mp3","","null","","","","","","","","","","","","","","","","","","","","","","","","","","","","","","","",""
"html-keyboard-response","249","1641339","0.0-7.0-1.0-2.9","3","0","p10utyza7z3pd1p","","315.89999999990687","","<p>How familiar did this sound to you?</p><p>1&nbsp;&nbsp;&nbsp;&nbsp;&nbsp;&nbsp;&nbsp;&nbsp;&nbsp;&nbsp;&nbsp;&nbsp;&nbsp;&nbsp;&nbsp;&nbsp;&nbsp;&nbsp;&nbsp;2&nbsp;&nbsp;&nbsp;&nbsp;&nbsp;&nbsp;&nbsp;&nbsp;&nbsp;&nbsp;&nbsp;&nbsp;&nbsp;&nbsp;&nbsp;&nbsp;&nbsp;&nbsp;&nbsp;3&nbsp;&nbsp;&nbsp;&nbsp;&nbsp;&nbsp;&nbsp;&nbsp;&nbsp;&nbsp;&nbsp;&nbsp;&nbsp;&nbsp;&nbsp;&nbsp;&nbsp;&nbsp;&nbsp;4</p><p style=""font-size:14px"">Not at all familiar&nbsp;&nbsp;&nbsp;&nbsp;A little familiar&nbsp;&nbsp;&nbsp;Moderately familiar&nbsp;&nbsp;&nbsp;Extremely familiar</p><p>(press the corresponding number on your keyboard)</p>","","52","","","FAM-RESPONSE","","","","","","","","sounds/C/FAM/P003.mp3","partword","","","","","","","","","","","","","","","","","","","",""
"html-keyboard-response","250","1643350","0.0-7.0-1.0-0.10","3","0","p10utyza7z3pd1p","","null","","","","null","","","","","","","","","","","","","","","","","","","","","","","","","","","","","","","",""
"audio-keyboard-response","251","1644293","0.0-7.0-1.0-1.10","3","0","p10utyza7z3pd1p","","null","","sounds/C/FAM/N003.mp3","","null","","","","","","","","","","","","","","","","","","","","","","","","","","","","","","","",""
"html-keyboard-response","252","1645447","0.0-7.0-1.0-2.10","3","0","p10utyza7z3pd1p","","635.2999999998137","","<p>How familiar did this sound to you?</p><p>1&nbsp;&nbsp;&nbsp;&nbsp;&nbsp;&nbsp;&nbsp;&nbsp;&nbsp;&nbsp;&nbsp;&nbsp;&nbsp;&nbsp;&nbsp;&nbsp;&nbsp;&nbsp;&nbsp;2&nbsp;&nbsp;&nbsp;&nbsp;&nbsp;&nbsp;&nbsp;&nbsp;&nbsp;&nbsp;&nbsp;&nbsp;&nbsp;&nbsp;&nbsp;&nbsp;&nbsp;&nbsp;&nbsp;3&nbsp;&nbsp;&nbsp;&nbsp;&nbsp;&nbsp;&nbsp;&nbsp;&nbsp;&nbsp;&nbsp;&nbsp;&nbsp;&nbsp;&nbsp;&nbsp;&nbsp;&nbsp;&nbsp;4</p><p style=""font-size:14px"">Not at all familiar&nbsp;&nbsp;&nbsp;&nbsp;A little familiar&nbsp;&nbsp;&nbsp;Moderately familiar&nbsp;&nbsp;&nbsp;Extremely familiar</p><p>(press the corresponding number on your keyboard)</p>","","51","","","FAM-RESPONSE","","","","","","","","sounds/C/FAM/N003.mp3","nonword","","","","","","","","","","","","","","","","","","","",""
"html-keyboard-response","253","1647469","0.0-7.0-1.0-0.11","3","0","p10utyza7z3pd1p","","null","","","","null","","","","","","","","","","","","","","","","","","","","","","","","","","","","","","","",""
"audio-keyboard-response","254","1648403","0.0-7.0-1.0-1.11","3","0","p10utyza7z3pd1p","","null","","sounds/C/FAM/P004.mp3","","null","","","","","","","","","","","","","","","","","","","","","","","","","","","","","","","",""
"html-keyboard-response","255","1649381","0.0-7.0-1.0-2.11","3","0","p10utyza7z3pd1p","","457.29999999981374","","<p>How familiar did this sound to you?</p><p>1&nbsp;&nbsp;&nbsp;&nbsp;&nbsp;&nbsp;&nbsp;&nbsp;&nbsp;&nbsp;&nbsp;&nbsp;&nbsp;&nbsp;&nbsp;&nbsp;&nbsp;&nbsp;&nbsp;2&nbsp;&nbsp;&nbsp;&nbsp;&nbsp;&nbsp;&nbsp;&nbsp;&nbsp;&nbsp;&nbsp;&nbsp;&nbsp;&nbsp;&nbsp;&nbsp;&nbsp;&nbsp;&nbsp;3&nbsp;&nbsp;&nbsp;&nbsp;&nbsp;&nbsp;&nbsp;&nbsp;&nbsp;&nbsp;&nbsp;&nbsp;&nbsp;&nbsp;&nbsp;&nbsp;&nbsp;&nbsp;&nbsp;4</p><p style=""font-size:14px"">Not at all familiar&nbsp;&nbsp;&nbsp;&nbsp;A little familiar&nbsp;&nbsp;&nbsp;Moderately familiar&nbsp;&nbsp;&nbsp;Extremely familiar</p><p>(press the corresponding number on your keyboard)</p>","","52","","","FAM-RESPONSE","","","","","","","","sounds/C/FAM/P004.mp3","partword","","","","","","","","","","","","","","","","","","","",""
"html-button-response","256","1659059","0.0-8.0-0.0","3","0","p10utyza7z3pd1p","","8665.899999999907","","<p>You will now listen to longer sound sequences.</p><p>Each sound sequence will last about 16 seconds.</p><p>On each trial, you will be given a <u>TARGET SOUND</u>. Your task is to listen very carefully for this sound.</p><p>Every time you hear the <u>TARGET SOUND</u>, you will press the <b>SPACEBAR</b> as quickly and accurately as you can.</p>","0","","","","","","","","","","","","","","","","","","","","","","","","","","","","","","","","",""
"html-button-response","257","1669436","0.0-8.0-1.0","3","0","p10utyza7z3pd1p","","10121.799999999814","","<p>It is very important that you make your responses as quickly and accurately as possible.</p><p>To help you make your responses, you will be able to listen to the <u>TARGET SOUND</u> at the beginning of each trial.</p><p>There will be 36 total trials.</p><p><b>Note: This is meant to be a difficult task. We simply want you to try your best.</p>","0","","","","","","","","","","","","","","","","","","","","","","","","","","","","","","","","",""
"html-button-response","258","1671797","0.0-8.0-2.0-0.0","3","0","p10utyza7z3pd1p","","2089.6999999997206","","<p>Trial 1 of 36</p>","0","","","","","","","","","","","","","","RE","sounds/syllables/re_SWS.wav","3000,5700,7500,11100","2","","","","","","","","","","","","","","","",""
"html-keyboard-response","259","1674254","0.0-8.0-2.0-1.0","3","0","p10utyza7z3pd1p","","2455.600000000093","","","","80","","","","","","","","","","","","","RE","","3000,5700,7500,11100","2","","","","","","","","","","","","","","","",""
"audio-keyboard-response","260","1674570","0.0-8.0-2.0-2.0-0.0","3","0","p10utyza7z3pd1p","","null","","sounds/syllables/re_SWS.wav","","null","","","","","","","","","","","","","","","","","","","","","","","","","","","","","","","",""
"html-keyboard-response","261","1676471","0.0-8.0-2.0-2.0-1.0","3","0","p10utyza7z3pd1p","","1898.2999999998137","","<p>To replay the <u>TARGET SOUND</u>, press P.</p> When you are ready to begin, press SPACEBAR.","","80","","","","","","","","","","","","","","","","","","","","","","","","","","","","","","","",""
"audio-keyboard-response","262","1677293","0.0-8.0-2.0-2.1-0.1","3","0","p10utyza7z3pd1p","","null","","sounds/syllables/re_SWS.wav","","null","","","","","","","","","","","","","","","","","","","","","","","","","","","","","","","",""
"html-keyboard-response","263","1677904","0.0-8.0-2.0-2.1-1.1","3","0","p10utyza7z3pd1p","","609","","<p>To replay the <u>TARGET SOUND</u>, press P.</p> When you are ready to begin, press SPACEBAR.","","32","","","","","","","","","","","","","","","","","","","","","","","","","","","","","","","",""
"audio-keyboard-response","264","1692863","0.0-8.0-2.0-3.0","3","0","p10utyza7z3pd1p","","2040","","sounds/C/TD/RE_02_TD.mp3","","32","","","TD_SUMMARY","","","","","","","","","","RE","","3000,5700,7500,11100","2","3000","5700","7500","11100","null","377","null","596.3999999999069","2043.8999999999069_6077_9707.100000000093_11696.399999999907","2","","","","","",""
"html-button-response","265","1695887","0.0-8.0-2.0-0.1","3","0","p10utyza7z3pd1p","","3019.5","","<p>Trial 2 of 36</p>","0","","","","","","","","","","","","","","TI","sounds/syllables/ti_SWS.wav","1500,4200,6000,12300","3","","","","","","","","","","","","","","","",""
"html-keyboard-response","266","1697322","0.0-8.0-2.0-1.1","3","0","p10utyza7z3pd1p","","1433.5","","","","80","","","","","","","","","","","","","TI","","1500,4200,6000,12300","3","","","","","","","","","","","","","","","",""
"audio-keyboard-response","267","1697622","0.0-8.0-2.0-2.2-0.2","3","0","p10utyza7z3pd1p","","null","","sounds/syllables/ti_SWS.wav","","null","","","","","","","","","","","","","","","","","","","","","","","","","","","","","","","",""
"html-keyboard-response","268","1698575","0.0-8.0-2.0-2.2-1.2","3","0","p10utyza7z3pd1p","","951.6000000000931","","<p>To replay the <u>TARGET SOUND</u>, press P.</p> When you are ready to begin, press SPACEBAR.","","80","","","","","","","","","","","","","","","","","","","","","","","","","","","","","","","",""
"audio-keyboard-response","269","1699373","0.0-8.0-2.0-2.3-0.3","3","0","p10utyza7z3pd1p","","null","","sounds/syllables/ti_SWS.wav","","null","","","","","","","","","","","","","","","","","","","","","","","","","","","","","","","",""
"html-keyboard-response","270","1699993","0.0-8.0-2.0-2.3-1.3","3","0","p10utyza7z3pd1p","","618.5","","<p>To replay the <u>TARGET SOUND</u>, press P.</p> When you are ready to begin, press SPACEBAR.","","32","","","","","","","","","","","","","","","","","","","","","","","","","","","","","","","",""
"audio-keyboard-response","271","1714953","0.0-8.0-2.0-3.1","3","0","p10utyza7z3pd1p","","3419","","sounds/C/TD/TI_09_TD.mp3","","32","","","TD_SUMMARY","","","","","","","","","","TI","","1500,4200,6000,12300","3","1500","4200","6000","12300","null","null","null","778.3999999999069","____3426_9051.600000000093_13078.399999999907","2","","","","","",""
"html-button-response","272","1717523","0.0-8.0-2.0-0.2","3","0","p10utyza7z3pd1p","","2565.7000000001863","","<p>Trial 3 of 36</p>","0","","","","","","","","","","","","","","SU","sounds/syllables/su_SWS.wav","2700,6300,9000,12600","1","","","","","","","","","","","","","","","",""
"html-keyboard-response","273","1719038","0.0-8.0-2.0-1.2","3","0","p10utyza7z3pd1p","","1514.3999999999069","","","","80","","","","","","","","","","","","","SU","","2700,6300,9000,12600","1","","","","","","","","","","","","","","","",""
"audio-keyboard-response","274","1719332","0.0-8.0-2.0-2.4-0.4","3","0","p10utyza7z3pd1p","","null","","sounds/syllables/su_SWS.wav","","null","","","","","","","","","","","","","","","","","","","","","","","","","","","","","","","",""
"html-keyboard-response","275","1720192","0.0-8.0-2.0-2.4-1.4","3","0","p10utyza7z3pd1p","","857","","<p>To replay the <u>TARGET SOUND</u>, press P.</p> When you are ready to begin, press SPACEBAR.","","80","","","","","","","","","","","","","","","","","","","","","","","","","","","","","","","",""
"audio-keyboard-response","276","1721003","0.0-8.0-2.0-2.5-0.5","3","0","p10utyza7z3pd1p","","null","","sounds/syllables/su_SWS.wav","","null","","","","","","","","","","","","","","","","","","","","","","","","","","","","","","","",""
"html-keyboard-response","277","1721970","0.0-8.0-2.0-2.5-1.5","3","0","p10utyza7z3pd1p","","965.6000000000931","","<p>To replay the <u>TARGET SOUND</u>, press P.</p> When you are ready to begin, press SPACEBAR.","","80","","","","","","","","","","","","","","","","","","","","","","","","","","","","","","","",""
"audio-keyboard-response","278","1722773","0.0-8.0-2.0-2.6-0.6","3","0","p10utyza7z3pd1p","","null","","sounds/syllables/su_SWS.wav","","null","","","","","","","","","","","","","","","","","","","","","","","","","","","","","","","",""
"html-keyboard-response","279","1722919","0.0-8.0-2.0-2.6-1.6","3","0","p10utyza7z3pd1p","","145.10000000009313","","<p>To replay the <u>TARGET SOUND</u>, press P.</p> When you are ready to begin, press SPACEBAR.","","32","","","","","","","","","","","","","","","","","","","","","","","","","","","","","","","",""
"audio-keyboard-response","280","1737873","0.0-8.0-2.0-3.2","3","0","p10utyza7z3pd1p","","3230","","sounds/C/TD/SU_06_TD.mp3","","32","","","TD_SUMMARY","","","","","","","","","","SU","","2700,6300,9000,12600","1","2700","6300","9000","12600","538.7000000001863","null","null","null","_______3238.7000000001863","3","","","","","",""
"html-button-response","281","1762728","0.0-8.0-2.0-0.3","3","0","p10utyza7z3pd1p","","24851.600000000093","","<p>Trial 4 of 36</p>","0","","","","","","","","","","","","","","RU","sounds/syllables/ru_SWS.wav","1200,4800,9300,11100","2","","","","","","","","","","","","","","","",""
"html-keyboard-response","282","1766295","0.0-8.0-2.0-1.3","3","0","p10utyza7z3pd1p","","3565.6999999997206","","","","80","","","","","","","","","","","","","RU","","1200,4800,9300,11100","2","","","","","","","","","","","","","","","",""
"audio-keyboard-response","283","1766607","0.0-8.0-2.0-2.7-0.7","3","0","p10utyza7z3pd1p","","null","","sounds/syllables/ru_SWS.wav","","null","","","","","","","","","","","","","","","","","","","","","","","","","","","","","","","",""
"html-keyboard-response","284","1767245","0.0-8.0-2.0-2.7-1.7","3","0","p10utyza7z3pd1p","","635","","<p>To replay the <u>TARGET SOUND</u>, press P.</p> When you are ready to begin, press SPACEBAR.","","80","","","","","","","","","","","","","","","","","","","","","","","","","","","","","","","",""
"audio-keyboard-response","285","1768062","0.0-8.0-2.0-2.8-0.8","3","0","p10utyza7z3pd1p","","null","","sounds/syllables/ru_SWS.wav","","null","","","","","","","","","","","","","","","","","","","","","","","","","","","","","","","",""
"html-keyboard-response","286","1768524","0.0-8.0-2.0-2.8-1.8","3","0","p10utyza7z3pd1p","","460.1999999997206","","<p>To replay the <u>TARGET SOUND</u>, press P.</p> When you are ready to begin, press SPACEBAR.","","80","","","","","","","","","","","","","","","","","","","","","","","","","","","","","","","",""
"audio-keyboard-response","287","1769342","0.0-8.0-2.0-2.9-0.9","3","0","p10utyza7z3pd1p","","null","","sounds/syllables/ru_SWS.wav","","null","","","","","","","","","","","","","","","","","","","","","","","","","","","","","","","",""
"html-keyboard-response","288","1770828","0.0-8.0-2.0-2.9-1.9","3","0","p10utyza7z3pd1p","","1483.5","","<p>To replay the <u>TARGET SOUND</u>, press P.</p> When you are ready to begin, press SPACEBAR.","","80","","","","","","","","","","","","","","","","","","","","","","","","","","","","","","","",""
"audio-keyboard-response","289","1771632","0.0-8.0-2.0-2.10-0.10","3","0","p10utyza7z3pd1p","","null","","sounds/syllables/ru_SWS.wav","","null","","","","","","","","","","","","","","","","","","","","","","","","","","","","","","","",""
"html-keyboard-response","290","1772267","0.0-8.0-2.0-2.10-1.10","3","0","p10utyza7z3pd1p","","634","","<p>To replay the <u>TARGET SOUND</u>, press P.</p> When you are ready to begin, press SPACEBAR.","","32","","","","","","","","","","","","","","","","","","","","","","","","","","","","","","","",""
"audio-keyboard-response","291","1787222","0.0-8.0-2.0-3.3","3","0","p10utyza7z3pd1p","","1991","","sounds/C/TD/RU_05_TD.mp3","","32","","","TD_SUMMARY","","","","","","","","","","RU","","1200,4800,9300,11100","2","1200","4800","9300","11100","795.5","null","null","null","________1995.5_6701.0999999996275","4","","","","","",""
"html-button-response","292","1793527","0.0-8.0-2.0-0.4","3","0","p10utyza7z3pd1p","","6300.5","","<p>Trial 5 of 36</p>","0","","","","","","","","","","","","","","GE","sounds/syllables/ge_SWS.wav","1500,8700,10500,12300","3","","","","","","","","","","","","","","","",""
"html-keyboard-response","293","1794666","0.0-8.0-2.0-1.4","3","0","p10utyza7z3pd1p","","1138.5","","","","80","","","","","","","","","","","","","GE","","1500,8700,10500,12300","3","","","","","","","","","","","","","","","",""
"audio-keyboard-response","294","1794974","0.0-8.0-2.0-2.11-0.11","3","0","p10utyza7z3pd1p","","null","","sounds/syllables/ge_SWS.wav","","null","","","","","","","","","","","","","","","","","","","","","","","","","","","","","","","",""
"html-keyboard-response","295","1799176","0.0-8.0-2.0-2.11-1.11","3","0","p10utyza7z3pd1p","","4200.600000000093","","<p>To replay the <u>TARGET SOUND</u>, press P.</p> When you are ready to begin, press SPACEBAR.","","80","","","","","","","","","","","","","","","","","","","","","","","","","","","","","","","",""
"audio-keyboard-response","296","1799973","0.0-8.0-2.0-2.12-0.12","3","0","p10utyza7z3pd1p","","null","","sounds/syllables/ge_SWS.wav","","null","","","","","","","","","","","","","","","","","","","","","","","","","","","","","","","",""
"html-keyboard-response","297","1800584","0.0-8.0-2.0-2.12-1.12","3","0","p10utyza7z3pd1p","","609.2999999998137","","<p>To replay the <u>TARGET SOUND</u>, press P.</p> When you are ready to begin, press SPACEBAR.","","80","","","","","","","","","","","","","","","","","","","","","","","","","","","","","","","",""
"audio-keyboard-response","298","1801393","0.0-8.0-2.0-2.13-0.13","3","0","p10utyza7z3pd1p","","null","","sounds/syllables/ge_SWS.wav","","null","","","","","","","","","","","","","","","","","","","","","","","","","","","","","","","",""
"html-keyboard-response","299","1801609","0.0-8.0-2.0-2.13-1.13","3","0","p10utyza7z3pd1p","","215.5","","<p>To replay the <u>TARGET SOUND</u>, press P.</p> When you are ready to begin, press SPACEBAR.","","32","","","","","","","","","","","","","","","","","","","","","","","","","","","","","","","",""
"audio-keyboard-response","300","1816573","0.0-8.0-2.0-3.4","3","0","p10utyza7z3pd1p","","1550","","sounds/C/TD/GE_03_TD.mp3","","32","","","TD_SUMMARY","","","","","","","","","","GE","","1500,8700,10500,12300","3","1500","8700","10500","12300","null","null","null","null","__________1556.6999999997206","3","","","","","",""
"html-button-response","301","1818640","0.0-8.0-2.0-0.5","3","0","p10utyza7z3pd1p","","2064","","<p>Trial 6 of 36</p>","0","","","","","","","","","","","","","","TI","sounds/syllables/ti_SWS.wav","1500,6900,8700,11400","3","","","","","","","","","","","","","","","",""
"html-keyboard-response","302","1819903","0.0-8.0-2.0-1.5","3","0","p10utyza7z3pd1p","","1262.2000000001863","","","","80","","","","","","","","","","","","","TI","","1500,6900,8700,11400","3","","","","","","","","","","","","","","","",""
"audio-keyboard-response","303","1820213","0.0-8.0-2.0-2.14-0.14","3","0","p10utyza7z3pd1p","","null","","sounds/syllables/ti_SWS.wav","","null","","","","","","","","","","","","","","","","","","","","","","","","","","","","","","","",""
"html-keyboard-response","304","1820838","0.0-8.0-2.0-2.14-1.14","3","0","p10utyza7z3pd1p","","624.8999999999069","","<p>To replay the <u>TARGET SOUND</u>, press P.</p> When you are ready to begin, press SPACEBAR.","","80","","","","","","","","","","","","","","","","","","","","","","","","","","","","","","","",""
"audio-keyboard-response","305","1821662","0.0-8.0-2.0-2.15-0.15","3","0","p10utyza7z3pd1p","","null","","sounds/syllables/ti_SWS.wav","","null","","","","","","","","","","","","","","","","","","","","","","","","","","","","","","","",""
"html-keyboard-response","306","1822232","0.0-8.0-2.0-2.15-1.15","3","0","p10utyza7z3pd1p","","569","","<p>To replay the <u>TARGET SOUND</u>, press P.</p> When you are ready to begin, press SPACEBAR.","","32","","","","","","","","","","","","","","","","","","","","","","","","","","","","","","","",""
"audio-keyboard-response","307","1837192","0.0-8.0-2.0-3.5","3","0","p10utyza7z3pd1p","","3820","","sounds/C/TD/TI_08_TD.mp3","","32","","","TD_SUMMARY","","","","","","","","","","TI","","1500,6900,8700,11400","3","1500","6900","8700","11400","null","null","null","null","___________3825.7999999998137","2","","","","","",""
"html-button-response","308","1839343","0.0-8.0-2.0-0.6","3","0","p10utyza7z3pd1p","","2147.8000000002794","","<p>Trial 7 of 36</p>","0","","","","","","","","","","","","","","NI","sounds/syllables/ni_SWS.wav","900,3600,6300,9900","1","","","","","","","","","","","","","","","",""
"html-keyboard-response","309","1840428","0.0-8.0-2.0-1.6","3","0","p10utyza7z3pd1p","","1082.5","","","","80","","","","","","","","","","","","","NI","","900,3600,6300,9900","1","","","","","","","","","","","","","","","",""
"audio-keyboard-response","310","1840732","0.0-8.0-2.0-2.16-0.16","3","0","p10utyza7z3pd1p","","null","","sounds/syllables/ni_SWS.wav","","null","","","","","","","","","","","","","","","","","","","","","","","","","","","","","","","",""
"html-keyboard-response","311","1841353","0.0-8.0-2.0-2.16-1.16","3","0","p10utyza7z3pd1p","","619.3999999999069","","<p>To replay the <u>TARGET SOUND</u>, press P.</p> When you are ready to begin, press SPACEBAR.","","80","","","","","","","","","","","","","","","","","","","","","","","","","","","","","","","",""
"audio-keyboard-response","312","1842173","0.0-8.0-2.0-2.17-0.17","3","0","p10utyza7z3pd1p","","null","","sounds/syllables/ni_SWS.wav","","null","","","","","","","","","","","","","","","","","","","","","","","","","","","","","","","",""
"html-keyboard-response","313","1842817","0.0-8.0-2.0-2.17-1.17","3","0","p10utyza7z3pd1p","","642.6000000000931","","<p>To replay the <u>TARGET SOUND</u>, press P.</p> When you are ready to begin, press SPACEBAR.","","80","","","","","","","","","","","","","","","","","","","","","","","","","","","","","","","",""
"audio-keyboard-response","314","1843632","0.0-8.0-2.0-2.18-0.18","3","0","p10utyza7z3pd1p","","null","","sounds/syllables/ni_SWS.wav","","null","","","","","","","","","","","","","","","","","","","","","","","","","","","","","","","",""
"html-keyboard-response","315","1843872","0.0-8.0-2.0-2.18-1.18","3","0","p10utyza7z3pd1p","","239.10000000009313","","<p>To replay the <u>TARGET SOUND</u>, press P.</p> When you are ready to begin, press SPACEBAR.","","32","","","","","","","","","","","","","","","","","","","","","","","","","","","","","","","",""
"audio-keyboard-response","316","1858822","0.0-8.0-2.0-3.6","3","0","p10utyza7z3pd1p","","1280","","sounds/C/TD/NI_02_TD.mp3","","32","","","TD_SUMMARY","","","","","","","","","","NI","","900,3600,6300,9900","1","900","3600","6300","9900","385.20000000018626","null","null","null","____________1285.2000000001863_3765.7000000001863","3","","","","","",""
"html-button-response","317","1864268","0.0-8.0-2.0-0.7","3","0","p10utyza7z3pd1p","","5444.0999999996275","","<p>Trial 8 of 36</p>","0","","","","","","","","","","","","","","GE","sounds/syllables/ge_SWS.wav","4200,8700,10500,12300","3","","","","","","","","","","","","","","","",""
"html-keyboard-response","318","1865476","0.0-8.0-2.0-1.7","3","0","p10utyza7z3pd1p","","1205.8999999999069","","","","80","","","","","","","","","","","","","GE","","4200,8700,10500,12300","3","","","","","","","","","","","","","","","",""
"audio-keyboard-response","319","1865774","0.0-8.0-2.0-2.19-0.19","3","0","p10utyza7z3pd1p","","null","","sounds/syllables/ge_SWS.wav","","null","","","","","","","","","","","","","","","","","","","","","","","","","","","","","","","",""
"html-keyboard-response","320","1866259","0.0-8.0-2.0-2.19-1.19","3","0","p10utyza7z3pd1p","","483.60000000009313","","<p>To replay the <u>TARGET SOUND</u>, press P.</p> When you are ready to begin, press SPACEBAR.","","80","","","","","","","","","","","","","","","","","","","","","","","","","","","","","","","",""
"audio-keyboard-response","321","1867072","0.0-8.0-2.0-2.20-0.20","3","0","p10utyza7z3pd1p","","null","","sounds/syllables/ge_SWS.wav","","null","","","","","","","","","","","","","","","","","","","","","","","","","","","","","","","",""
"html-keyboard-response","322","1867294","0.0-8.0-2.0-2.20-1.20","3","0","p10utyza7z3pd1p","","221","","<p>To replay the <u>TARGET SOUND</u>, press P.</p> When you are ready to begin, press SPACEBAR.","","32","","","","","","","","","","","","","","","","","","","","","","","","","","","","","","","",""
"audio-keyboard-response","323","1882252","0.0-8.0-2.0-3.7","3","0","p10utyza7z3pd1p","","4281","","sounds/C/TD/GE_01_TD.mp3","","32","","","TD_SUMMARY","","","","","","","","","","GE","","4200,8700,10500,12300","3","4200","8700","10500","12300","null","null","null","null","______________4280.799999999814","2","","","","","",""
"html-button-response","324","1887340","0.0-8.0-2.0-0.8","3","0","p10utyza7z3pd1p","","5086.200000000186","","<p>Trial 9 of 36</p>","0","","","","","","","","","","","","","","RU","sounds/syllables/ru_SWS.wav","3000,5700,10200,12000","2","","","","","","","","","","","","","","","",""
"html-keyboard-response","325","1889087","0.0-8.0-2.0-1.8","3","0","p10utyza7z3pd1p","","1744.8999999999069","","","","80","","","","","","","","","","","","","RU","","3000,5700,10200,12000","2","","","","","","","","","","","","","","","",""
"audio-keyboard-response","326","1889392","0.0-8.0-2.0-2.21-0.21","3","0","p10utyza7z3pd1p","","null","","sounds/syllables/ru_SWS.wav","","null","","","","","","","","","","","","","","","","","","","","","","","","","","","","","","","",""
"html-keyboard-response","327","1889836","0.0-8.0-2.0-2.21-1.21","3","0","p10utyza7z3pd1p","","441.70000000018626","","<p>To replay the <u>TARGET SOUND</u>, press P.</p> When you are ready to begin, press SPACEBAR.","","32","","","","","","","","","","","","","","","","","","","","","","","","","","","","","","","",""
"audio-keyboard-response","328","1904783","0.0-8.0-2.0-3.8","3","0","p10utyza7z3pd1p","","3823","","sounds/C/TD/RU_10_TD.mp3","","32","","","TD_SUMMARY","","","","","","","","","","RU","","3000,5700,10200,12000","2","3000","5700","10200","12000","812.7000000001863","null","null","null","_______________3812.7000000001863","1","","","","","",""
"html-button-response","329","1906609","0.0-8.0-2.0-0.9","3","0","p10utyza7z3pd1p","","1822.0999999996275","","<p>Trial 10 of 36</p>","0","","","","","","","","","","","","","","PU","sounds/syllables/pu_SWS.wav","1500,3300,5100,7800","3","","","","","","","","","","","","","","","",""
"html-keyboard-response","330","1907614","0.0-8.0-2.0-1.9","3","0","p10utyza7z3pd1p","","1004","","","","80","","","","","","","","","","","","","PU","","1500,3300,5100,7800","3","","","","","","","","","","","","","","","",""
"audio-keyboard-response","331","1907923","0.0-8.0-2.0-2.22-0.22","3","0","p10utyza7z3pd1p","","null","","sounds/syllables/pu_SWS.wav","","null","","","","","","","","","","","","","","","","","","","","","","","","","","","","","","","",""
"html-keyboard-response","332","1908386","0.0-8.0-2.0-2.22-1.22","3","0","p10utyza7z3pd1p","","460.8000000002794","","<p>To replay the <u>TARGET SOUND</u>, press P.</p> When you are ready to begin, press SPACEBAR.","","80","","","","","","","","","","","","","","","","","","","","","","","","","","","","","","","",""
"audio-keyboard-response","333","1909203","0.0-8.0-2.0-2.23-0.23","3","0","p10utyza7z3pd1p","","null","","sounds/syllables/pu_SWS.wav","","null","","","","","","","","","","","","","","","","","","","","","","","","","","","","","","","",""
"html-keyboard-response","334","1909463","0.0-8.0-2.0-2.23-1.23","3","0","p10utyza7z3pd1p","","259.39999999990687","","<p>To replay the <u>TARGET SOUND</u>, press P.</p> When you are ready to begin, press SPACEBAR.","","32","","","","","","","","","","","","","","","","","","","","","","","","","","","","","","","",""
"audio-keyboard-response","335","1924422","0.0-8.0-2.0-3.9","3","0","p10utyza7z3pd1p","","2139","","sounds/C/TD/PU_10_TD.mp3","","32","","","TD_SUMMARY","","","","","","","","","","PU","","1500,3300,5100,7800","3","1500","3300","5100","7800","642","null","null","null","________________2142","2","","","","","",""
"html-button-response","336","1928359","0.0-8.0-2.0-0.10","3","0","p10utyza7z3pd1p","","3933.100000000093","","<p>Trial 11 of 36</p>","0","","","","","","","","","","","","","","RE","sounds/syllables/re_SWS.wav","3000,5700,8400,11100","2","","","","","","","","","","","","","","","",""
"html-keyboard-response","337","1930622","0.0-8.0-2.0-1.10","3","0","p10utyza7z3pd1p","","2261.899999999907","","","","80","","","","","","","","","","","","","RE","","3000,5700,8400,11100","2","","","","","","","","","","","","","","","",""
"audio-keyboard-response","338","1930933","0.0-8.0-2.0-2.24-0.24","3","0","p10utyza7z3pd1p","","null","","sounds/syllables/re_SWS.wav","","null","","","","","","","","","","","","","","","","","","","","","","","","","","","","","","","",""
"html-keyboard-response","339","1932043","0.0-8.0-2.0-2.24-1.24","3","0","p10utyza7z3pd1p","","1109.6000000000931","","<p>To replay the <u>TARGET SOUND</u>, press P.</p> When you are ready to begin, press SPACEBAR.","","80","","","","","","","","","","","","","","","","","","","","","","","","","","","","","","","",""
"audio-keyboard-response","340","1932872","0.0-8.0-2.0-2.25-0.25","3","0","p10utyza7z3pd1p","","null","","sounds/syllables/re_SWS.wav","","null","","","","","","","","","","","","","","","","","","","","","","","","","","","","","","","",""
"html-keyboard-response","341","1933403","0.0-8.0-2.0-2.25-1.25","3","0","p10utyza7z3pd1p","","529.9000000003725","","<p>To replay the <u>TARGET SOUND</u>, press P.</p> When you are ready to begin, press SPACEBAR.","","32","","","","","","","","","","","","","","","","","","","","","","","","","","","","","","","",""
"audio-keyboard-response","342","1948363","0.0-8.0-2.0-3.10","3","0","p10utyza7z3pd1p","","3860","","sounds/C/TD/RE_10_TD.mp3","","32","","","TD_SUMMARY","","","","","","","","","","RE","","3000,5700,8400,11100","2","3000","5700","8400","11100","864.8000000002794","null","null","null","_________________3864.8000000002794","2","","","","","",""
