"trial_type","trial_index","time_elapsed","internal_node_id","counterbalance","lang_instruct","ParticipantID","view_history","rt","url","stimulus","button_pressed","key_press","correctRESP","correct","designation","location","correctanswer","timeouts","pause_rt01","pause_rt02","train_file","numKeyPress","sound","fam_type","SYLLABLE","EXEMPLAR","TD_LOCS","TD_TYPE","TDLOC_01","TDLOC_02","TDLOC_03","TDLOC_04","TD_RT_01","TD_RT_02","TD_RT_03","TD_RT_04","TD_SUBJ_RTs","number_of_plays","responses","slider_start","response","question_order","syllable","syllable_type"
"pavlovia","0","4","0.0-0.0","3","0","kxqh0adr1w0qdgn","","","","","","","","","","","","","","","","","","","","","","","","","","","","","","","","","","","","","",""
"instructions","1","29819","0.0-1.0","3","0","kxqh0adr1w0qdgn","[{""page_index"":0,""viewing_time"":18915.200000047684},{""page_index"":1,""viewing_time"":10895.900000095367}]","29813.900000095367","","","","","","","","","","","","","","","","","","","","","","","","","","","","","","","","","","","",""
"external-html","2","68352","0.0-2.0","3","0","kxqh0adr1w0qdgn","","38329.59999990463","consent/consent.html","","","","","","","","","","","","","","","","","","","","","","","","","","","","","","","","","","",""
"html-button-response","3","440470","0.0-3.0-0.0-0.0","3","0","kxqh0adr1w0qdgn","","372115","","<p>Welcome to the study. You will first complete a short volume calibration and headphone check.</p><p>Please make sure you are in a quiet listening environment, that you are wearing headphones, and that your computer's volume is turned on.<p></p>","0","","","","","","","","","","","","","","","","","","","","","","","","","","","","","","","","",""
"html-button-response","4","441978","0.0-3.0-0.0-1.0","3","0","kxqh0adr1w0qdgn","","1245.2999999523163","","<p>The volume calibration will be first.</p><p>You will hear a thirty-second noise. Please adjust your computer's volume so that this noise is being presented at a comfortable level.<p></p>","0","","","","","","","","","","","","","","","","","","","","","","","","","","","","","","","","",""
"audio-button-response","5","447062","0.0-3.0-0.0-2.0","3","0","kxqh0adr1w0qdgn","","4160","","audCalib/volumetest.mp3","0","","","","","","","","","","","","","","","","","","","","","","","","","","","","","","","","",""
"html-button-response","6","458397","0.0-3.0-1.0-0.0","3","0","kxqh0adr1w0qdgn","","11332.900000095367","","<p>You will now complete a short headphone check.</p><p>On each trial, you will hear three tones. One of these tones will be quieter than the others. Your task is to identify whether the quiet tone occured first, second, or third.</p><p>There are six trials in total.<p></p>","0","","","","","","","","","","","","","","","","","","","","","","","","","","","","","","","","",""
"html-keyboard-response","7","459174","0.0-3.0-1.0-1.0-0.0","3","0","kxqh0adr1w0qdgn","","null","","<div style=""font-size:60px;"">+</div>","","null","","","","","","","","","","","","","","","","","","","","","","","","","","","","","","","",""
"audio-button-response","8","464008","0.0-3.0-1.0-1.0-1.0","3","0","kxqh0adr1w0qdgn","","4821","","audCalib/t1_1.mp3","1","","0","0","headphone-test","","","","","","","","","","","","","","","","","","","","","","","","","","","","",""
"html-keyboard-response","9","464783","0.0-3.0-1.0-1.0-0.1","3","0","kxqh0adr1w0qdgn","","null","","<div style=""font-size:60px;"">+</div>","","null","","","","","","","","","","","","","","","","","","","","","","","","","","","","","","","",""
"audio-button-response","10","469678","0.0-3.0-1.0-1.0-1.1","3","0","kxqh0adr1w0qdgn","","4891","","audCalib/t3_1.mp3","0","","2","0","headphone-test","","","","","","","","","","","","","","","","","","","","","","","","","","","","",""
"html-keyboard-response","11","470444","0.0-3.0-1.0-1.0-0.2","3","0","kxqh0adr1w0qdgn","","null","","<div style=""font-size:60px;"">+</div>","","null","","","","","","","","","","","","","","","","","","","","","","","","","","","","","","","",""
"audio-button-response","12","474588","0.0-3.0-1.0-1.0-1.2","3","0","kxqh0adr1w0qdgn","","4139","","audCalib/t3_2.mp3","1","","2","0","headphone-test","","","","","","","","","","","","","","","","","","","","","","","","","","","","",""
"html-keyboard-response","13","475355","0.0-3.0-1.0-1.0-0.3","3","0","kxqh0adr1w0qdgn","","null","","<div style=""font-size:60px;"">+</div>","","null","","","","","","","","","","","","","","","","","","","","","","","","","","","","","","","",""
"audio-button-response","14","479247","0.0-3.0-1.0-1.0-1.3","3","0","kxqh0adr1w0qdgn","","3891","","audCalib/t1_2.mp3","2","","0","0","headphone-test","","","","","","","","","","","","","","","","","","","","","","","","","","","","",""
"html-keyboard-response","15","480015","0.0-3.0-1.0-1.0-0.4","3","0","kxqh0adr1w0qdgn","","null","","<div style=""font-size:60px;"">+</div>","","null","","","","","","","","","","","","","","","","","","","","","","","","","","","","","","","",""
"audio-button-response","16","484007","0.0-3.0-1.0-1.0-1.4","3","0","kxqh0adr1w0qdgn","","3992","","audCalib/t2_1.mp3","0","","1","0","headphone-test","","","","","","","","","","","","","","","","","","","","","","","","","","","","",""
"html-keyboard-response","17","484775","0.0-3.0-1.0-1.0-0.5","3","0","kxqh0adr1w0qdgn","","null","","<div style=""font-size:60px;"">+</div>","","null","","","","","","","","","","","","","","","","","","","","","","","","","","","","","","","",""
"audio-button-response","18","488867","0.0-3.0-1.0-1.0-1.5","3","0","kxqh0adr1w0qdgn","","4091","","audCalib/t2_2.mp3","2","","1","0","headphone-test","","","","","","","","","","","","","","","","","","","","","","","","","","","","",""
"html-button-response","19","491497","0.0-3.0-2.0","3","0","kxqh0adr1w0qdgn","","2370.7000000476837","","<p>The volume calibration and headphone check are now complete.</p>","0","","","","","","","","","","","","","","","","","","","","","","","","","","","","","","","","",""
"instructions","20","542816","0.0-4.0-0.0","3","0","kxqh0adr1w0qdgn","[{""page_index"":0,""viewing_time"":1648.3999998569489},{""page_index"":1,""viewing_time"":47943.40000009537},{""page_index"":2,""viewing_time"":1725.2000000476837}]","51317.799999952316","","","","","","","","","","","","","","","","","","","","","","","","","","","","","","","","","","","",""
"audio-keyboard-response","21","543682","0.0-4.0-1.0-0.0","3","0","kxqh0adr1w0qdgn","","null","","sounds/induction/left_rev/ko_SWS.wav","","null","","","","","","","","","","","","","","","","","","","","","","","","","","","","","","","",""
"html-button-response","22","547009","0.0-4.0-1.0-1.0","3","0","kxqh0adr1w0qdgn","","3323.9000000953674","","Was the sound coming from the left or the right?","0","","","1","INDUCTION-JUDGMENT","left","0","","","","","","","","","","","","","","","","","","","","","","","","","","",""
"html-keyboard-response","23","548020","0.0-4.0-1.0-2.0","3","0","kxqh0adr1w0qdgn","","null","","<p style=""color:#054d00;""><b>Correct!</b></p>","","null","","","","","","","","","","","","","","","","","","","","","","","","","","","","","","","",""
"audio-keyboard-response","24","548832","0.0-4.0-1.0-0.1","3","0","kxqh0adr1w0qdgn","","null","","sounds/induction/left_rev/re_SWS.wav","","null","","","","","","","","","","","","","","","","","","","","","","","","","","","","","","","",""
"html-button-response","25","549903","0.0-4.0-1.0-1.1","3","0","kxqh0adr1w0qdgn","","1068","","Was the sound coming from the left or the right?","0","","","1","INDUCTION-JUDGMENT","left","0","","","","","","","","","","","","","","","","","","","","","","","","","","",""
"html-keyboard-response","26","550910","0.0-4.0-1.0-2.1","3","0","kxqh0adr1w0qdgn","","null","","<p style=""color:#054d00;""><b>Correct!</b></p>","","null","","","","","","","","","","","","","","","","","","","","","","","","","","","","","","","",""
"audio-keyboard-response","27","551723","0.0-4.0-1.0-0.2","3","0","kxqh0adr1w0qdgn","","null","","sounds/induction/right_rev/ru_SWS.wav","","null","","","","","","","","","","","","","","","","","","","","","","","","","","","","","","","",""
"html-button-response","28","552622","0.0-4.0-1.0-1.2","3","0","kxqh0adr1w0qdgn","","894.5","","Was the sound coming from the left or the right?","1","","","1","INDUCTION-JUDGMENT","right","1","","","","","","","","","","","","","","","","","","","","","","","","","","",""
"html-keyboard-response","29","553640","0.0-4.0-1.0-2.2","3","0","kxqh0adr1w0qdgn","","null","","<p style=""color:#054d00;""><b>Correct!</b></p>","","null","","","","","","","","","","","","","","","","","","","","","","","","","","","","","","","",""
"audio-keyboard-response","30","554442","0.0-4.0-1.0-0.3","3","0","kxqh0adr1w0qdgn","","null","","sounds/induction/left_rev/ti_SWS.wav","","null","","","","","","","","","","","","","","","","","","","","","","","","","","","","","","","",""
"html-button-response","31","555267","0.0-4.0-1.0-1.3","3","0","kxqh0adr1w0qdgn","","822.2000000476837","","Was the sound coming from the left or the right?","0","","","1","INDUCTION-JUDGMENT","left","0","","","","","","","","","","","","","","","","","","","","","","","","","","",""
"html-keyboard-response","32","556270","0.0-4.0-1.0-2.3","3","0","kxqh0adr1w0qdgn","","null","","<p style=""color:#054d00;""><b>Correct!</b></p>","","null","","","","","","","","","","","","","","","","","","","","","","","","","","","","","","","",""
"audio-keyboard-response","33","557082","0.0-4.0-1.0-0.4","3","0","kxqh0adr1w0qdgn","","null","","sounds/induction/left_rev/me_SWS.wav","","null","","","","","","","","","","","","","","","","","","","","","","","","","","","","","","","",""
"html-button-response","34","558099","0.0-4.0-1.0-1.4","3","0","kxqh0adr1w0qdgn","","1014.5","","Was the sound coming from the left or the right?","0","","","1","INDUCTION-JUDGMENT","left","0","","","","","","","","","","","","","","","","","","","","","","","","","","",""
"html-keyboard-response","35","559110","0.0-4.0-1.0-2.4","3","0","kxqh0adr1w0qdgn","","null","","<p style=""color:#054d00;""><b>Correct!</b></p>","","null","","","","","","","","","","","","","","","","","","","","","","","","","","","","","","","",""
"audio-keyboard-response","36","559922","0.0-4.0-1.0-0.5","3","0","kxqh0adr1w0qdgn","","null","","sounds/induction/left_rev/pu_SWS.wav","","null","","","","","","","","","","","","","","","","","","","","","","","","","","","","","","","",""
"html-button-response","37","561172","0.0-4.0-1.0-1.5","3","0","kxqh0adr1w0qdgn","","1247.7999999523163","","Was the sound coming from the left or the right?","0","","","1","INDUCTION-JUDGMENT","left","0","","","","","","","","","","","","","","","","","","","","","","","","","","",""
"html-keyboard-response","38","562179","0.0-4.0-1.0-2.5","3","0","kxqh0adr1w0qdgn","","null","","<p style=""color:#054d00;""><b>Correct!</b></p>","","null","","","","","","","","","","","","","","","","","","","","","","","","","","","","","","","",""
"audio-keyboard-response","39","562992","0.0-4.0-1.0-0.6","3","0","kxqh0adr1w0qdgn","","null","","sounds/induction/right_rev/ni_SWS.wav","","null","","","","","","","","","","","","","","","","","","","","","","","","","","","","","","","",""
"html-button-response","40","563940","0.0-4.0-1.0-1.6","3","0","kxqh0adr1w0qdgn","","946","","Was the sound coming from the left or the right?","1","","","1","INDUCTION-JUDGMENT","right","1","","","","","","","","","","","","","","","","","","","","","","","","","","",""
"html-keyboard-response","41","564949","0.0-4.0-1.0-2.6","3","0","kxqh0adr1w0qdgn","","null","","<p style=""color:#054d00;""><b>Correct!</b></p>","","null","","","","","","","","","","","","","","","","","","","","","","","","","","","","","","","",""
"audio-keyboard-response","42","565762","0.0-4.0-1.0-0.7","3","0","kxqh0adr1w0qdgn","","null","","sounds/induction/right_rev/ru_SWS.wav","","null","","","","","","","","","","","","","","","","","","","","","","","","","","","","","","","",""
"html-button-response","43","566684","0.0-4.0-1.0-1.7","3","0","kxqh0adr1w0qdgn","","919.9000000953674","","Was the sound coming from the left or the right?","1","","","1","INDUCTION-JUDGMENT","right","1","","","","","","","","","","","","","","","","","","","","","","","","","","",""
"html-keyboard-response","44","567700","0.0-4.0-1.0-2.7","3","0","kxqh0adr1w0qdgn","","null","","<p style=""color:#054d00;""><b>Correct!</b></p>","","null","","","","","","","","","","","","","","","","","","","","","","","","","","","","","","","",""
"audio-keyboard-response","45","568512","0.0-4.0-1.0-0.8","3","0","kxqh0adr1w0qdgn","","null","","sounds/induction/left_rev/su_SWS.wav","","null","","","","","","","","","","","","","","","","","","","","","","","","","","","","","","","",""
"html-button-response","46","569322","0.0-4.0-1.0-1.8","3","0","kxqh0adr1w0qdgn","","808.2000000476837","","Was the sound coming from the left or the right?","0","","","1","INDUCTION-JUDGMENT","left","0","","","","","","","","","","","","","","","","","","","","","","","","","","",""
"html-keyboard-response","47","570330","0.0-4.0-1.0-2.8","3","0","kxqh0adr1w0qdgn","","null","","<p style=""color:#054d00;""><b>Correct!</b></p>","","null","","","","","","","","","","","","","","","","","","","","","","","","","","","","","","","",""
"audio-keyboard-response","48","571132","0.0-4.0-1.0-0.9","3","0","kxqh0adr1w0qdgn","","null","","sounds/induction/right_rev/me_SWS.wav","","null","","","","","","","","","","","","","","","","","","","","","","","","","","","","","","","",""
"html-button-response","49","571884","0.0-4.0-1.0-1.9","3","0","kxqh0adr1w0qdgn","","749.5","","Was the sound coming from the left or the right?","1","","","1","INDUCTION-JUDGMENT","right","1","","","","","","","","","","","","","","","","","","","","","","","","","","",""
"html-keyboard-response","50","572890","0.0-4.0-1.0-2.9","3","0","kxqh0adr1w0qdgn","","null","","<p style=""color:#054d00;""><b>Correct!</b></p>","","null","","","","","","","","","","","","","","","","","","","","","","","","","","","","","","","",""
"audio-keyboard-response","51","573692","0.0-4.0-1.0-0.10","3","0","kxqh0adr1w0qdgn","","null","","sounds/induction/left_rev/fe_SWS.wav","","null","","","","","","","","","","","","","","","","","","","","","","","","","","","","","","","",""
"html-button-response","52","574987","0.0-4.0-1.0-1.10","3","0","kxqh0adr1w0qdgn","","1293.0999999046326","","Was the sound coming from the left or the right?","0","","","1","INDUCTION-JUDGMENT","left","0","","","","","","","","","","","","","","","","","","","","","","","","","","",""
"html-keyboard-response","53","576000","0.0-4.0-1.0-2.10","3","0","kxqh0adr1w0qdgn","","null","","<p style=""color:#054d00;""><b>Correct!</b></p>","","null","","","","","","","","","","","","","","","","","","","","","","","","","","","","","","","",""
"audio-keyboard-response","54","576802","0.0-4.0-1.0-0.11","3","0","kxqh0adr1w0qdgn","","null","","sounds/induction/right_rev/me_SWS.wav","","null","","","","","","","","","","","","","","","","","","","","","","","","","","","","","","","",""
"html-button-response","55","577686","0.0-4.0-1.0-1.11","3","0","kxqh0adr1w0qdgn","","881.5","","Was the sound coming from the left or the right?","1","","","1","INDUCTION-JUDGMENT","right","1","","","","","","","","","","","","","","","","","","","","","","","","","","",""
"html-keyboard-response","56","578690","0.0-4.0-1.0-2.11","3","0","kxqh0adr1w0qdgn","","null","","<p style=""color:#054d00;""><b>Correct!</b></p>","","null","","","","","","","","","","","","","","","","","","","","","","","","","","","","","","","",""
"audio-keyboard-response","57","579492","0.0-4.0-1.0-0.12","3","0","kxqh0adr1w0qdgn","","null","","sounds/induction/left_rev/pu_SWS.wav","","null","","","","","","","","","","","","","","","","","","","","","","","","","","","","","","","",""
"html-button-response","58","580376","0.0-4.0-1.0-1.12","3","0","kxqh0adr1w0qdgn","","882.2999999523163","","Was the sound coming from the left or the right?","0","","","1","INDUCTION-JUDGMENT","left","0","","","","","","","","","","","","","","","","","","","","","","","","","","",""
"html-keyboard-response","59","581383","0.0-4.0-1.0-2.12","3","0","kxqh0adr1w0qdgn","","null","","<p style=""color:#054d00;""><b>Correct!</b></p>","","null","","","","","","","","","","","","","","","","","","","","","","","","","","","","","","","",""
"audio-keyboard-response","60","582192","0.0-4.0-1.0-0.13","3","0","kxqh0adr1w0qdgn","","null","","sounds/induction/left_rev/ta_SWS.wav","","null","","","","","","","","","","","","","","","","","","","","","","","","","","","","","","","",""
"html-button-response","61","583338","0.0-4.0-1.0-1.13","3","0","kxqh0adr1w0qdgn","","1145.2000000476837","","Was the sound coming from the left or the right?","0","","","1","INDUCTION-JUDGMENT","left","0","","","","","","","","","","","","","","","","","","","","","","","","","","",""
"html-keyboard-response","62","584349","0.0-4.0-1.0-2.13","3","0","kxqh0adr1w0qdgn","","null","","<p style=""color:#054d00;""><b>Correct!</b></p>","","null","","","","","","","","","","","","","","","","","","","","","","","","","","","","","","","",""
"audio-keyboard-response","63","585162","0.0-4.0-1.0-0.14","3","0","kxqh0adr1w0qdgn","","null","","sounds/induction/right_rev/ge_SWS.wav","","null","","","","","","","","","","","","","","","","","","","","","","","","","","","","","","","",""
"html-button-response","64","586043","0.0-4.0-1.0-1.14","3","0","kxqh0adr1w0qdgn","","879.5","","Was the sound coming from the left or the right?","1","","","1","INDUCTION-JUDGMENT","right","1","","","","","","","","","","","","","","","","","","","","","","","","","","",""
"html-keyboard-response","65","587058","0.0-4.0-1.0-2.14","3","0","kxqh0adr1w0qdgn","","null","","<p style=""color:#054d00;""><b>Correct!</b></p>","","null","","","","","","","","","","","","","","","","","","","","","","","","","","","","","","","",""
"audio-keyboard-response","66","587872","0.0-4.0-1.0-0.15","3","0","kxqh0adr1w0qdgn","","null","","sounds/induction/right_rev/pu_SWS.wav","","null","","","","","","","","","","","","","","","","","","","","","","","","","","","","","","","",""
"html-button-response","67","588571","0.0-4.0-1.0-1.15","3","0","kxqh0adr1w0qdgn","","697.2999999523163","","Was the sound coming from the left or the right?","1","","","1","INDUCTION-JUDGMENT","right","1","","","","","","","","","","","","","","","","","","","","","","","","","","",""
"html-keyboard-response","68","589579","0.0-4.0-1.0-2.15","3","0","kxqh0adr1w0qdgn","","null","","<p style=""color:#054d00;""><b>Correct!</b></p>","","null","","","","","","","","","","","","","","","","","","","","","","","","","","","","","","","",""
"audio-keyboard-response","69","590392","0.0-4.0-1.0-0.16","3","0","kxqh0adr1w0qdgn","","null","","sounds/induction/left_rev/ru_SWS.wav","","null","","","","","","","","","","","","","","","","","","","","","","","","","","","","","","","",""
"html-button-response","70","591035","0.0-4.0-1.0-1.16","3","0","kxqh0adr1w0qdgn","","641.8000001907349","","Was the sound coming from the left or the right?","0","","","1","INDUCTION-JUDGMENT","left","0","","","","","","","","","","","","","","","","","","","","","","","","","","",""
"html-keyboard-response","71","592047","0.0-4.0-1.0-2.16","3","0","kxqh0adr1w0qdgn","","null","","<p style=""color:#054d00;""><b>Correct!</b></p>","","null","","","","","","","","","","","","","","","","","","","","","","","","","","","","","","","",""
"audio-keyboard-response","72","592842","0.0-4.0-1.0-0.17","3","0","kxqh0adr1w0qdgn","","null","","sounds/induction/right_rev/ta_SWS.wav","","null","","","","","","","","","","","","","","","","","","","","","","","","","","","","","","","",""
"html-button-response","73","593542","0.0-4.0-1.0-1.17","3","0","kxqh0adr1w0qdgn","","699.1000001430511","","Was the sound coming from the left or the right?","1","","","1","INDUCTION-JUDGMENT","right","1","","","","","","","","","","","","","","","","","","","","","","","","","","",""
"html-keyboard-response","74","594549","0.0-4.0-1.0-2.17","3","0","kxqh0adr1w0qdgn","","null","","<p style=""color:#054d00;""><b>Correct!</b></p>","","null","","","","","","","","","","","","","","","","","","","","","","","","","","","","","","","",""
"audio-keyboard-response","75","595362","0.0-4.0-1.0-0.18","3","0","kxqh0adr1w0qdgn","","null","","sounds/induction/right_rev/fe_SWS.wav","","null","","","","","","","","","","","","","","","","","","","","","","","","","","","","","","","",""
"html-button-response","76","596217","0.0-4.0-1.0-1.18","3","0","kxqh0adr1w0qdgn","","853.4000000953674","","Was the sound coming from the left or the right?","1","","","1","INDUCTION-JUDGMENT","right","1","","","","","","","","","","","","","","","","","","","","","","","","","","",""
"html-keyboard-response","77","597226","0.0-4.0-1.0-2.18","3","0","kxqh0adr1w0qdgn","","null","","<p style=""color:#054d00;""><b>Correct!</b></p>","","null","","","","","","","","","","","","","","","","","","","","","","","","","","","","","","","",""
"audio-keyboard-response","78","598041","0.0-4.0-1.0-0.19","3","0","kxqh0adr1w0qdgn","","null","","sounds/induction/right_rev/ko_SWS.wav","","null","","","","","","","","","","","","","","","","","","","","","","","","","","","","","","","",""
"html-button-response","79","598695","0.0-4.0-1.0-1.19","3","0","kxqh0adr1w0qdgn","","652","","Was the sound coming from the left or the right?","1","","","1","INDUCTION-JUDGMENT","right","1","","","","","","","","","","","","","","","","","","","","","","","","","","",""
"html-keyboard-response","80","599710","0.0-4.0-1.0-2.19","3","0","kxqh0adr1w0qdgn","","null","","<p style=""color:#054d00;""><b>Correct!</b></p>","","null","","","","","","","","","","","","","","","","","","","","","","","","","","","","","","","",""
"audio-keyboard-response","81","600522","0.0-4.0-1.0-0.20","3","0","kxqh0adr1w0qdgn","","null","","sounds/induction/left_rev/fu_SWS.wav","","null","","","","","","","","","","","","","","","","","","","","","","","","","","","","","","","",""
"html-button-response","82","601196","0.0-4.0-1.0-1.20","3","0","kxqh0adr1w0qdgn","","672.7999999523163","","Was the sound coming from the left or the right?","0","","","1","INDUCTION-JUDGMENT","left","0","","","","","","","","","","","","","","","","","","","","","","","","","","",""
"html-keyboard-response","83","602210","0.0-4.0-1.0-2.20","3","0","kxqh0adr1w0qdgn","","null","","<p style=""color:#054d00;""><b>Correct!</b></p>","","null","","","","","","","","","","","","","","","","","","","","","","","","","","","","","","","",""
"audio-keyboard-response","84","603012","0.0-4.0-1.0-0.21","3","0","kxqh0adr1w0qdgn","","null","","sounds/induction/left_rev/me_SWS.wav","","null","","","","","","","","","","","","","","","","","","","","","","","","","","","","","","","",""
"html-button-response","85","603642","0.0-4.0-1.0-1.21","3","0","kxqh0adr1w0qdgn","","628.5999999046326","","Was the sound coming from the left or the right?","0","","","1","INDUCTION-JUDGMENT","left","0","","","","","","","","","","","","","","","","","","","","","","","","","","",""
"html-keyboard-response","86","604658","0.0-4.0-1.0-2.21","3","0","kxqh0adr1w0qdgn","","null","","<p style=""color:#054d00;""><b>Correct!</b></p>","","null","","","","","","","","","","","","","","","","","","","","","","","","","","","","","","","",""
"audio-keyboard-response","87","605482","0.0-4.0-1.0-0.22","3","0","kxqh0adr1w0qdgn","","null","","sounds/induction/right_rev/re_SWS.wav","","null","","","","","","","","","","","","","","","","","","","","","","","","","","","","","","","",""
"html-button-response","88","606176","0.0-4.0-1.0-1.22","3","0","kxqh0adr1w0qdgn","","692.5999999046326","","Was the sound coming from the left or the right?","1","","","1","INDUCTION-JUDGMENT","right","1","","","","","","","","","","","","","","","","","","","","","","","","","","",""
"html-keyboard-response","89","607179","0.0-4.0-1.0-2.22","3","0","kxqh0adr1w0qdgn","","null","","<p style=""color:#054d00;""><b>Correct!</b></p>","","null","","","","","","","","","","","","","","","","","","","","","","","","","","","","","","","",""
"audio-keyboard-response","90","608002","0.0-4.0-1.0-0.23","3","0","kxqh0adr1w0qdgn","","null","","sounds/induction/left_rev/fu_SWS.wav","","null","","","","","","","","","","","","","","","","","","","","","","","","","","","","","","","",""
"html-button-response","91","608845","0.0-4.0-1.0-1.23","3","0","kxqh0adr1w0qdgn","","841","","Was the sound coming from the left or the right?","0","","","1","INDUCTION-JUDGMENT","left","0","","","","","","","","","","","","","","","","","","","","","","","","","","",""
"html-keyboard-response","92","609848","0.0-4.0-1.0-2.23","3","0","kxqh0adr1w0qdgn","","null","","<p style=""color:#054d00;""><b>Correct!</b></p>","","null","","","","","","","","","","","","","","","","","","","","","","","","","","","","","","","",""
"audio-keyboard-response","93","610643","0.0-4.0-1.0-0.24","3","0","kxqh0adr1w0qdgn","","null","","sounds/induction/right_rev/su_SWS.wav","","null","","","","","","","","","","","","","","","","","","","","","","","","","","","","","","","",""
"html-button-response","94","611352","0.0-4.0-1.0-1.24","3","0","kxqh0adr1w0qdgn","","708.2000000476837","","Was the sound coming from the left or the right?","1","","","1","INDUCTION-JUDGMENT","right","1","","","","","","","","","","","","","","","","","","","","","","","","","","",""
"html-keyboard-response","95","612355","0.0-4.0-1.0-2.24","3","0","kxqh0adr1w0qdgn","","null","","<p style=""color:#054d00;""><b>Correct!</b></p>","","null","","","","","","","","","","","","","","","","","","","","","","","","","","","","","","","",""
"audio-keyboard-response","96","613162","0.0-4.0-1.0-0.25","3","0","kxqh0adr1w0qdgn","","null","","sounds/induction/right_rev/ti_SWS.wav","","null","","","","","","","","","","","","","","","","","","","","","","","","","","","","","","","",""
"html-button-response","97","614386","0.0-4.0-1.0-1.25","3","0","kxqh0adr1w0qdgn","","1223","","Was the sound coming from the left or the right?","1","","","1","INDUCTION-JUDGMENT","right","1","","","","","","","","","","","","","","","","","","","","","","","","","","",""
"html-keyboard-response","98","615388","0.0-4.0-1.0-2.25","3","0","kxqh0adr1w0qdgn","","null","","<p style=""color:#054d00;""><b>Correct!</b></p>","","null","","","","","","","","","","","","","","","","","","","","","","","","","","","","","","","",""
"audio-keyboard-response","99","616202","0.0-4.0-1.0-0.26","3","0","kxqh0adr1w0qdgn","","null","","sounds/induction/left_rev/su_SWS.wav","","null","","","","","","","","","","","","","","","","","","","","","","","","","","","","","","","",""
"html-button-response","100","616841","0.0-4.0-1.0-1.26","3","0","kxqh0adr1w0qdgn","","637.2000000476837","","Was the sound coming from the left or the right?","0","","","1","INDUCTION-JUDGMENT","left","0","","","","","","","","","","","","","","","","","","","","","","","","","","",""
"html-keyboard-response","101","617848","0.0-4.0-1.0-2.26","3","0","kxqh0adr1w0qdgn","","null","","<p style=""color:#054d00;""><b>Correct!</b></p>","","null","","","","","","","","","","","","","","","","","","","","","","","","","","","","","","","",""
"audio-keyboard-response","102","618652","0.0-4.0-1.0-0.27","3","0","kxqh0adr1w0qdgn","","null","","sounds/induction/left_rev/ru_SWS.wav","","null","","","","","","","","","","","","","","","","","","","","","","","","","","","","","","","",""
"html-button-response","103","619345","0.0-4.0-1.0-1.27","3","0","kxqh0adr1w0qdgn","","691.7000000476837","","Was the sound coming from the left or the right?","0","","","1","INDUCTION-JUDGMENT","left","0","","","","","","","","","","","","","","","","","","","","","","","","","","",""
"html-keyboard-response","104","620349","0.0-4.0-1.0-2.27","3","0","kxqh0adr1w0qdgn","","null","","<p style=""color:#054d00;""><b>Correct!</b></p>","","null","","","","","","","","","","","","","","","","","","","","","","","","","","","","","","","",""
"audio-keyboard-response","105","621160","0.0-4.0-1.0-0.28","3","0","kxqh0adr1w0qdgn","","null","","sounds/induction/right_rev/fu_SWS.wav","","null","","","","","","","","","","","","","","","","","","","","","","","","","","","","","","","",""
"html-button-response","106","621763","0.0-4.0-1.0-1.28","3","0","kxqh0adr1w0qdgn","","601.2999999523163","","Was the sound coming from the left or the right?","1","","","1","INDUCTION-JUDGMENT","right","1","","","","","","","","","","","","","","","","","","","","","","","","","","",""
"html-keyboard-response","107","622767","0.0-4.0-1.0-2.28","3","0","kxqh0adr1w0qdgn","","null","","<p style=""color:#054d00;""><b>Correct!</b></p>","","null","","","","","","","","","","","","","","","","","","","","","","","","","","","","","","","",""
"audio-keyboard-response","108","623570","0.0-4.0-1.0-0.29","3","0","kxqh0adr1w0qdgn","","null","","sounds/induction/left_rev/re_SWS.wav","","null","","","","","","","","","","","","","","","","","","","","","","","","","","","","","","","",""
"html-button-response","109","624420","0.0-4.0-1.0-1.29","3","0","kxqh0adr1w0qdgn","","848.7000000476837","","Was the sound coming from the left or the right?","0","","","1","INDUCTION-JUDGMENT","left","0","","","","","","","","","","","","","","","","","","","","","","","","","","",""
"html-keyboard-response","110","625424","0.0-4.0-1.0-2.29","3","0","kxqh0adr1w0qdgn","","null","","<p style=""color:#054d00;""><b>Correct!</b></p>","","null","","","","","","","","","","","","","","","","","","","","","","","","","","","","","","","",""
"audio-keyboard-response","111","626230","0.0-4.0-1.0-0.30","3","0","kxqh0adr1w0qdgn","","null","","sounds/induction/left_rev/ko_SWS.wav","","null","","","","","","","","","","","","","","","","","","","","","","","","","","","","","","","",""
"html-button-response","112","626813","0.0-4.0-1.0-1.30","3","0","kxqh0adr1w0qdgn","","580.8999998569489","","Was the sound coming from the left or the right?","0","","","1","INDUCTION-JUDGMENT","left","0","","","","","","","","","","","","","","","","","","","","","","","","","","",""
"html-keyboard-response","113","627825","0.0-4.0-1.0-2.30","3","0","kxqh0adr1w0qdgn","","null","","<p style=""color:#054d00;""><b>Correct!</b></p>","","null","","","","","","","","","","","","","","","","","","","","","","","","","","","","","","","",""
"audio-keyboard-response","114","628640","0.0-4.0-1.0-0.31","3","0","kxqh0adr1w0qdgn","","null","","sounds/induction/right_rev/ge_SWS.wav","","null","","","","","","","","","","","","","","","","","","","","","","","","","","","","","","","",""
"html-button-response","115","629224","0.0-4.0-1.0-1.31","3","0","kxqh0adr1w0qdgn","","582.6000001430511","","Was the sound coming from the left or the right?","1","","","1","INDUCTION-JUDGMENT","right","1","","","","","","","","","","","","","","","","","","","","","","","","","","",""
"html-keyboard-response","116","630228","0.0-4.0-1.0-2.31","3","0","kxqh0adr1w0qdgn","","null","","<p style=""color:#054d00;""><b>Correct!</b></p>","","null","","","","","","","","","","","","","","","","","","","","","","","","","","","","","","","",""
"audio-keyboard-response","117","631040","0.0-4.0-1.0-0.32","3","0","kxqh0adr1w0qdgn","","null","","sounds/induction/left_rev/ni_SWS.wav","","null","","","","","","","","","","","","","","","","","","","","","","","","","","","","","","","",""
"html-button-response","118","631741","0.0-4.0-1.0-1.32","3","0","kxqh0adr1w0qdgn","","698.9000000953674","","Was the sound coming from the left or the right?","0","","","1","INDUCTION-JUDGMENT","left","0","","","","","","","","","","","","","","","","","","","","","","","","","","",""
"html-keyboard-response","119","632757","0.0-4.0-1.0-2.32","3","0","kxqh0adr1w0qdgn","","null","","<p style=""color:#054d00;""><b>Correct!</b></p>","","null","","","","","","","","","","","","","","","","","","","","","","","","","","","","","","","",""
"audio-keyboard-response","120","633570","0.0-4.0-1.0-0.33","3","0","kxqh0adr1w0qdgn","","null","","sounds/induction/right_rev/ko_SWS.wav","","null","","","","","","","","","","","","","","","","","","","","","","","","","","","","","","","",""
"html-button-response","121","634353","0.0-4.0-1.0-1.33","3","0","kxqh0adr1w0qdgn","","781","","Was the sound coming from the left or the right?","1","","","1","INDUCTION-JUDGMENT","right","1","","","","","","","","","","","","","","","","","","","","","","","","","","",""
"html-keyboard-response","122","635358","0.0-4.0-1.0-2.33","3","0","kxqh0adr1w0qdgn","","null","","<p style=""color:#054d00;""><b>Correct!</b></p>","","null","","","","","","","","","","","","","","","","","","","","","","","","","","","","","","","",""
"audio-keyboard-response","123","636160","0.0-4.0-1.0-0.34","3","0","kxqh0adr1w0qdgn","","null","","sounds/induction/right_rev/ta_SWS.wav","","null","","","","","","","","","","","","","","","","","","","","","","","","","","","","","","","",""
"html-button-response","124","636732","0.0-4.0-1.0-1.34","3","0","kxqh0adr1w0qdgn","","569.9000000953674","","Was the sound coming from the left or the right?","1","","","1","INDUCTION-JUDGMENT","right","1","","","","","","","","","","","","","","","","","","","","","","","","","","",""
"html-keyboard-response","125","637747","0.0-4.0-1.0-2.34","3","0","kxqh0adr1w0qdgn","","null","","<p style=""color:#054d00;""><b>Correct!</b></p>","","null","","","","","","","","","","","","","","","","","","","","","","","","","","","","","","","",""
"audio-keyboard-response","126","638560","0.0-4.0-1.0-0.35","3","0","kxqh0adr1w0qdgn","","null","","sounds/induction/left_rev/fe_SWS.wav","","null","","","","","","","","","","","","","","","","","","","","","","","","","","","","","","","",""
"html-button-response","127","639232","0.0-4.0-1.0-1.35","3","0","kxqh0adr1w0qdgn","","670.2000000476837","","Was the sound coming from the left or the right?","0","","","1","INDUCTION-JUDGMENT","left","0","","","","","","","","","","","","","","","","","","","","","","","","","","",""
"html-keyboard-response","128","640237","0.0-4.0-1.0-2.35","3","0","kxqh0adr1w0qdgn","","null","","<p style=""color:#054d00;""><b>Correct!</b></p>","","null","","","","","","","","","","","","","","","","","","","","","","","","","","","","","","","",""
"audio-keyboard-response","129","641040","0.0-4.0-1.0-0.36","3","0","kxqh0adr1w0qdgn","","null","","sounds/induction/right_rev/re_SWS.wav","","null","","","","","","","","","","","","","","","","","","","","","","","","","","","","","","","",""
"html-button-response","130","641590","0.0-4.0-1.0-1.36","3","0","kxqh0adr1w0qdgn","","547.6999998092651","","Was the sound coming from the left or the right?","1","","","1","INDUCTION-JUDGMENT","right","1","","","","","","","","","","","","","","","","","","","","","","","","","","",""
"html-keyboard-response","131","642598","0.0-4.0-1.0-2.36","3","0","kxqh0adr1w0qdgn","","null","","<p style=""color:#054d00;""><b>Correct!</b></p>","","null","","","","","","","","","","","","","","","","","","","","","","","","","","","","","","","",""
"audio-keyboard-response","132","643400","0.0-4.0-1.0-0.37","3","0","kxqh0adr1w0qdgn","","null","","sounds/induction/left_rev/ge_SWS.wav","","null","","","","","","","","","","","","","","","","","","","","","","","","","","","","","","","",""
"html-button-response","133","644045","0.0-4.0-1.0-1.37","3","0","kxqh0adr1w0qdgn","","642.9000000953674","","Was the sound coming from the left or the right?","0","","","1","INDUCTION-JUDGMENT","left","0","","","","","","","","","","","","","","","","","","","","","","","","","","",""
"html-keyboard-response","134","645047","0.0-4.0-1.0-2.37","3","0","kxqh0adr1w0qdgn","","null","","<p style=""color:#054d00;""><b>Correct!</b></p>","","null","","","","","","","","","","","","","","","","","","","","","","","","","","","","","","","",""
"audio-keyboard-response","135","645850","0.0-4.0-1.0-0.38","3","0","kxqh0adr1w0qdgn","","null","","sounds/induction/right_rev/ti_SWS.wav","","null","","","","","","","","","","","","","","","","","","","","","","","","","","","","","","","",""
"html-button-response","136","646337","0.0-4.0-1.0-1.38","3","0","kxqh0adr1w0qdgn","","485","","Was the sound coming from the left or the right?","1","","","1","INDUCTION-JUDGMENT","right","1","","","","","","","","","","","","","","","","","","","","","","","","","","",""
"html-keyboard-response","137","647347","0.0-4.0-1.0-2.38","3","0","kxqh0adr1w0qdgn","","null","","<p style=""color:#054d00;""><b>Correct!</b></p>","","null","","","","","","","","","","","","","","","","","","","","","","","","","","","","","","","",""
"audio-keyboard-response","138","648160","0.0-4.0-1.0-0.39","3","0","kxqh0adr1w0qdgn","","null","","sounds/induction/right_rev/ni_SWS.wav","","null","","","","","","","","","","","","","","","","","","","","","","","","","","","","","","","",""
"html-button-response","139","648719","0.0-4.0-1.0-1.39","3","0","kxqh0adr1w0qdgn","","557.5999999046326","","Was the sound coming from the left or the right?","1","","","1","INDUCTION-JUDGMENT","right","1","","","","","","","","","","","","","","","","","","","","","","","","","","",""
"html-keyboard-response","140","649737","0.0-4.0-1.0-2.39","3","0","kxqh0adr1w0qdgn","","null","","<p style=""color:#054d00;""><b>Correct!</b></p>","","null","","","","","","","","","","","","","","","","","","","","","","","","","","","","","","","",""
"audio-keyboard-response","141","650548","0.0-4.0-1.0-0.40","3","0","kxqh0adr1w0qdgn","","null","","sounds/induction/right_rev/fe_SWS.wav","","null","","","","","","","","","","","","","","","","","","","","","","","","","","","","","","","",""
"html-button-response","142","651222","0.0-4.0-1.0-1.40","3","0","kxqh0adr1w0qdgn","","672.3999998569489","","Was the sound coming from the left or the right?","1","","","1","INDUCTION-JUDGMENT","right","1","","","","","","","","","","","","","","","","","","","","","","","","","","",""
"html-keyboard-response","143","652235","0.0-4.0-1.0-2.40","3","0","kxqh0adr1w0qdgn","","null","","<p style=""color:#054d00;""><b>Correct!</b></p>","","null","","","","","","","","","","","","","","","","","","","","","","","","","","","","","","","",""
"audio-keyboard-response","144","653038","0.0-4.0-1.0-0.41","3","0","kxqh0adr1w0qdgn","","null","","sounds/induction/left_rev/ge_SWS.wav","","null","","","","","","","","","","","","","","","","","","","","","","","","","","","","","","","",""
"html-button-response","145","653770","0.0-4.0-1.0-1.41","3","0","kxqh0adr1w0qdgn","","730.6000001430511","","Was the sound coming from the left or the right?","0","","","1","INDUCTION-JUDGMENT","left","0","","","","","","","","","","","","","","","","","","","","","","","","","","",""
"html-keyboard-response","146","654773","0.0-4.0-1.0-2.41","3","0","kxqh0adr1w0qdgn","","null","","<p style=""color:#054d00;""><b>Correct!</b></p>","","null","","","","","","","","","","","","","","","","","","","","","","","","","","","","","","","",""
"audio-keyboard-response","147","655588","0.0-4.0-1.0-0.42","3","0","kxqh0adr1w0qdgn","","null","","sounds/induction/left_rev/ta_SWS.wav","","null","","","","","","","","","","","","","","","","","","","","","","","","","","","","","","","",""
"html-button-response","148","656114","0.0-4.0-1.0-1.42","3","0","kxqh0adr1w0qdgn","","524.3999998569489","","Was the sound coming from the left or the right?","0","","","1","INDUCTION-JUDGMENT","left","0","","","","","","","","","","","","","","","","","","","","","","","","","","",""
"html-keyboard-response","149","657123","0.0-4.0-1.0-2.42","3","0","kxqh0adr1w0qdgn","","null","","<p style=""color:#054d00;""><b>Correct!</b></p>","","null","","","","","","","","","","","","","","","","","","","","","","","","","","","","","","","",""
"audio-keyboard-response","150","657918","0.0-4.0-1.0-0.43","3","0","kxqh0adr1w0qdgn","","null","","sounds/induction/left_rev/ni_SWS.wav","","null","","","","","","","","","","","","","","","","","","","","","","","","","","","","","","","",""
"html-button-response","151","658550","0.0-4.0-1.0-1.43","3","0","kxqh0adr1w0qdgn","","631","","Was the sound coming from the left or the right?","0","","","1","INDUCTION-JUDGMENT","left","0","","","","","","","","","","","","","","","","","","","","","","","","","","",""
"html-keyboard-response","152","659554","0.0-4.0-1.0-2.43","3","0","kxqh0adr1w0qdgn","","null","","<p style=""color:#054d00;""><b>Correct!</b></p>","","null","","","","","","","","","","","","","","","","","","","","","","","","","","","","","","","",""
"audio-keyboard-response","153","660368","0.0-4.0-1.0-0.44","3","0","kxqh0adr1w0qdgn","","null","","sounds/induction/left_rev/ti_SWS.wav","","null","","","","","","","","","","","","","","","","","","","","","","","","","","","","","","","",""
"html-button-response","154","660815","0.0-4.0-1.0-1.44","3","0","kxqh0adr1w0qdgn","","446.5","","Was the sound coming from the left or the right?","0","","","1","INDUCTION-JUDGMENT","left","0","","","","","","","","","","","","","","","","","","","","","","","","","","",""
"html-keyboard-response","155","661820","0.0-4.0-1.0-2.44","3","0","kxqh0adr1w0qdgn","","null","","<p style=""color:#054d00;""><b>Correct!</b></p>","","null","","","","","","","","","","","","","","","","","","","","","","","","","","","","","","","",""
"audio-keyboard-response","156","662628","0.0-4.0-1.0-0.45","3","0","kxqh0adr1w0qdgn","","null","","sounds/induction/right_rev/fu_SWS.wav","","null","","","","","","","","","","","","","","","","","","","","","","","","","","","","","","","",""
"html-button-response","157","663272","0.0-4.0-1.0-1.45","3","0","kxqh0adr1w0qdgn","","643.2999999523163","","Was the sound coming from the left or the right?","1","","","1","INDUCTION-JUDGMENT","right","1","","","","","","","","","","","","","","","","","","","","","","","","","","",""
"html-keyboard-response","158","664281","0.0-4.0-1.0-2.45","3","0","kxqh0adr1w0qdgn","","null","","<p style=""color:#054d00;""><b>Correct!</b></p>","","null","","","","","","","","","","","","","","","","","","","","","","","","","","","","","","","",""
"audio-keyboard-response","159","665078","0.0-4.0-1.0-0.46","3","0","kxqh0adr1w0qdgn","","null","","sounds/induction/right_rev/su_SWS.wav","","null","","","","","","","","","","","","","","","","","","","","","","","","","","","","","","","",""
"html-button-response","160","665984","0.0-4.0-1.0-1.46","3","0","kxqh0adr1w0qdgn","","904.7999999523163","","Was the sound coming from the left or the right?","1","","","1","INDUCTION-JUDGMENT","right","1","","","","","","","","","","","","","","","","","","","","","","","","","","",""
"html-keyboard-response","161","666992","0.0-4.0-1.0-2.46","3","0","kxqh0adr1w0qdgn","","null","","<p style=""color:#054d00;""><b>Correct!</b></p>","","null","","","","","","","","","","","","","","","","","","","","","","","","","","","","","","","",""
"audio-keyboard-response","162","667799","0.0-4.0-1.0-0.47","3","0","kxqh0adr1w0qdgn","","null","","sounds/induction/right_rev/pu_SWS.wav","","null","","","","","","","","","","","","","","","","","","","","","","","","","","","","","","","",""
"html-button-response","163","668378","0.0-4.0-1.0-1.47","3","0","kxqh0adr1w0qdgn","","578.2999999523163","","Was the sound coming from the left or the right?","1","","","1","INDUCTION-JUDGMENT","right","1","","","","","","","","","","","","","","","","","","","","","","","","","","",""
"html-keyboard-response","164","669385","0.0-4.0-1.0-2.47","3","0","kxqh0adr1w0qdgn","","null","","<p style=""color:#054d00;""><b>Correct!</b></p>","","null","","","","","","","","","","","","","","","","","","","","","","","","","","","","","","","",""
"html-button-response","165","685689","0.0-5.0-0.0","3","0","kxqh0adr1w0qdgn","","15793.700000047684","","<p>Thank you for your answers.</p><p>You will now listen to similar sounds. The main difference is that the sounds will be longer.</p><p>Just as before, you will be asked to judge whether the sound was coming from the left or the right.</p><p>There are 10 of these longer sounds in total.","0","","","","","","","","","","","","","","","","","","","","","","","","","","","","","","","","",""
"audio-keyboard-response","166","688450","0.0-5.0-1.0-0.0","3","0","kxqh0adr1w0qdgn","","null","","sounds/sentences/right_rev/14_08_cfSWS.wav","","null","","","","","","","","","","","","","","","","","","","","","","","","","","","","","","","",""
"html-button-response","167","689461","0.0-5.0-1.0-1.0","3","0","kxqh0adr1w0qdgn","","1010.2999999523163","","Was the sound coming from the left or the right?","1","","","1","INDUCTION-JUDGMENT","right","1","","","","","","","","","","","","","","","","","","","","","","","","","","",""
"html-keyboard-response","168","690465","0.0-5.0-1.0-2.0","3","0","kxqh0adr1w0qdgn","","null","","<p style=""color:#054d00;""><b>Correct!</b></p>","","null","","","","","","","","","","","","","","","","","","","","","","","","","","","","","","","",""
"html-button-response","169","692699","0.0-5.0-1.0-3.0","3","0","kxqh0adr1w0qdgn","","1731.3999998569489","","<p>Press the button below when you are ready to continue.</p>","0","","","","","","","","","","","","","","","","","","","","","","","","","","","","","","","","",""
"audio-keyboard-response","170","695590","0.0-5.0-1.0-0.1","3","0","kxqh0adr1w0qdgn","","null","","sounds/sentences/right_rev/14_07_cfSWS.wav","","null","","","","","","","","","","","","","","","","","","","","","","","","","","","","","","","",""
"html-button-response","171","696581","0.0-5.0-1.0-1.1","3","0","kxqh0adr1w0qdgn","","988.7999999523163","","Was the sound coming from the left or the right?","1","","","1","INDUCTION-JUDGMENT","right","1","","","","","","","","","","","","","","","","","","","","","","","","","","",""
"html-keyboard-response","172","697587","0.0-5.0-1.0-2.1","3","0","kxqh0adr1w0qdgn","","null","","<p style=""color:#054d00;""><b>Correct!</b></p>","","null","","","","","","","","","","","","","","","","","","","","","","","","","","","","","","","",""
"html-button-response","173","698722","0.0-5.0-1.0-3.1","3","0","kxqh0adr1w0qdgn","","633.6000001430511","","<p>Press the button below when you are ready to continue.</p>","0","","","","","","","","","","","","","","","","","","","","","","","","","","","","","","","","",""
"audio-keyboard-response","174","701311","0.0-5.0-1.0-0.2","3","0","kxqh0adr1w0qdgn","","null","","sounds/sentences/left_rev/14_03_cfSWS.wav","","null","","","","","","","","","","","","","","","","","","","","","","","","","","","","","","","",""
"html-button-response","175","702061","0.0-5.0-1.0-1.2","3","0","kxqh0adr1w0qdgn","","747.8999998569489","","Was the sound coming from the left or the right?","0","","","1","INDUCTION-JUDGMENT","left","0","","","","","","","","","","","","","","","","","","","","","","","","","","",""
"html-keyboard-response","176","703063","0.0-5.0-1.0-2.2","3","0","kxqh0adr1w0qdgn","","null","","<p style=""color:#054d00;""><b>Correct!</b></p>","","null","","","","","","","","","","","","","","","","","","","","","","","","","","","","","","","",""
"html-button-response","177","704645","0.0-5.0-1.0-3.2","3","0","kxqh0adr1w0qdgn","","1070","","<p>Press the button below when you are ready to continue.</p>","0","","","","","","","","","","","","","","","","","","","","","","","","","","","","","","","","",""
"audio-keyboard-response","178","707671","0.0-5.0-1.0-0.3","3","0","kxqh0adr1w0qdgn","","null","","sounds/sentences/right_rev/14_10_cfSWS.wav","","null","","","","","","","","","","","","","","","","","","","","","","","","","","","","","","","",""
"html-button-response","179","708442","0.0-5.0-1.0-1.3","3","0","kxqh0adr1w0qdgn","","769.5999999046326","","Was the sound coming from the left or the right?","1","","","1","INDUCTION-JUDGMENT","right","1","","","","","","","","","","","","","","","","","","","","","","","","","","",""
"html-keyboard-response","180","709448","0.0-5.0-1.0-2.3","3","0","kxqh0adr1w0qdgn","","null","","<p style=""color:#054d00;""><b>Correct!</b></p>","","null","","","","","","","","","","","","","","","","","","","","","","","","","","","","","","","",""
"html-button-response","181","710935","0.0-5.0-1.0-3.3","3","0","kxqh0adr1w0qdgn","","975.8999998569489","","<p>Press the button below when you are ready to continue.</p>","0","","","","","","","","","","","","","","","","","","","","","","","","","","","","","","","","",""
"audio-keyboard-response","182","714050","0.0-5.0-1.0-0.4","3","0","kxqh0adr1w0qdgn","","null","","sounds/sentences/left_rev/14_01_cfSWS.wav","","null","","","","","","","","","","","","","","","","","","","","","","","","","","","","","","","",""
"html-button-response","183","714874","0.0-5.0-1.0-1.4","3","0","kxqh0adr1w0qdgn","","822.7999999523163","","Was the sound coming from the left or the right?","0","","","1","INDUCTION-JUDGMENT","left","0","","","","","","","","","","","","","","","","","","","","","","","","","","",""
"html-keyboard-response","184","715878","0.0-5.0-1.0-2.4","3","0","kxqh0adr1w0qdgn","","null","","<p style=""color:#054d00;""><b>Correct!</b></p>","","null","","","","","","","","","","","","","","","","","","","","","","","","","","","","","","","",""
"html-button-response","185","716967","0.0-5.0-1.0-3.4","3","0","kxqh0adr1w0qdgn","","576.2999999523163","","<p>Press the button below when you are ready to continue.</p>","0","","","","","","","","","","","","","","","","","","","","","","","","","","","","","","","","",""
"audio-keyboard-response","186","719701","0.0-5.0-1.0-0.5","3","0","kxqh0adr1w0qdgn","","null","","sounds/sentences/right_rev/14_09_cfSWS.wav","","null","","","","","","","","","","","","","","","","","","","","","","","","","","","","","","","",""
"html-button-response","187","720573","0.0-5.0-1.0-1.5","3","0","kxqh0adr1w0qdgn","","869.3999998569489","","Was the sound coming from the left or the right?","1","","","1","INDUCTION-JUDGMENT","right","1","","","","","","","","","","","","","","","","","","","","","","","","","","",""
"html-keyboard-response","188","721579","0.0-5.0-1.0-2.5","3","0","kxqh0adr1w0qdgn","","null","","<p style=""color:#054d00;""><b>Correct!</b></p>","","null","","","","","","","","","","","","","","","","","","","","","","","","","","","","","","","",""
"html-button-response","189","722572","0.0-5.0-1.0-3.5","3","0","kxqh0adr1w0qdgn","","481.7999999523163","","<p>Press the button below when you are ready to continue.</p>","0","","","","","","","","","","","","","","","","","","","","","","","","","","","","","","","","",""
"audio-keyboard-response","190","725401","0.0-5.0-1.0-0.6","3","0","kxqh0adr1w0qdgn","","null","","sounds/sentences/left_rev/14_02_cfSWS.wav","","null","","","","","","","","","","","","","","","","","","","","","","","","","","","","","","","",""
"html-button-response","191","726157","0.0-5.0-1.0-1.6","3","0","kxqh0adr1w0qdgn","","752.9000000953674","","Was the sound coming from the left or the right?","0","","","1","INDUCTION-JUDGMENT","left","0","","","","","","","","","","","","","","","","","","","","","","","","","","",""
"html-keyboard-response","192","727159","0.0-5.0-1.0-2.6","3","0","kxqh0adr1w0qdgn","","null","","<p style=""color:#054d00;""><b>Correct!</b></p>","","null","","","","","","","","","","","","","","","","","","","","","","","","","","","","","","","",""
"html-button-response","193","728306","0.0-5.0-1.0-3.6","3","0","kxqh0adr1w0qdgn","","625.7999999523163","","<p>Press the button below when you are ready to continue.</p>","0","","","","","","","","","","","","","","","","","","","","","","","","","","","","","","","","",""
"audio-keyboard-response","194","731051","0.0-5.0-1.0-0.7","3","0","kxqh0adr1w0qdgn","","null","","sounds/sentences/right_rev/14_06_cfSWS.wav","","null","","","","","","","","","","","","","","","","","","","","","","","","","","","","","","","",""
"html-button-response","195","731824","0.0-5.0-1.0-1.7","3","0","kxqh0adr1w0qdgn","","769.7999999523163","","Was the sound coming from the left or the right?","1","","","1","INDUCTION-JUDGMENT","right","1","","","","","","","","","","","","","","","","","","","","","","","","","","",""
"html-keyboard-response","196","732839","0.0-5.0-1.0-2.7","3","0","kxqh0adr1w0qdgn","","null","","<p style=""color:#054d00;""><b>Correct!</b></p>","","null","","","","","","","","","","","","","","","","","","","","","","","","","","","","","","","",""
"html-button-response","197","734157","0.0-5.0-1.0-3.7","3","0","kxqh0adr1w0qdgn","","806.1000001430511","","<p>Press the button below when you are ready to continue.</p>","0","","","","","","","","","","","","","","","","","","","","","","","","","","","","","","","","",""
"audio-keyboard-response","198","736722","0.0-5.0-1.0-0.8","3","0","kxqh0adr1w0qdgn","","null","","sounds/sentences/left_rev/14_04_cfSWS.wav","","null","","","","","","","","","","","","","","","","","","","","","","","","","","","","","","","",""
"html-button-response","199","737523","0.0-5.0-1.0-1.8","3","0","kxqh0adr1w0qdgn","","798.7000000476837","","Was the sound coming from the left or the right?","0","","","1","INDUCTION-JUDGMENT","left","0","","","","","","","","","","","","","","","","","","","","","","","","","","",""
"html-keyboard-response","200","738539","0.0-5.0-1.0-2.8","3","0","kxqh0adr1w0qdgn","","null","","<p style=""color:#054d00;""><b>Correct!</b></p>","","null","","","","","","","","","","","","","","","","","","","","","","","","","","","","","","","",""
"html-button-response","201","739652","0.0-5.0-1.0-3.8","3","0","kxqh0adr1w0qdgn","","600.9000000953674","","<p>Press the button below when you are ready to continue.</p>","0","","","","","","","","","","","","","","","","","","","","","","","","","","","","","","","","",""
"audio-keyboard-response","202","742640","0.0-5.0-1.0-0.9","3","0","kxqh0adr1w0qdgn","","null","","sounds/sentences/left_rev/14_05_cfSWS.wav","","null","","","","","","","","","","","","","","","","","","","","","","","","","","","","","","","",""
"html-button-response","203","743388","0.0-5.0-1.0-1.9","3","0","kxqh0adr1w0qdgn","","744.5","","Was the sound coming from the left or the right?","0","","","1","INDUCTION-JUDGMENT","left","0","","","","","","","","","","","","","","","","","","","","","","","","","","",""
"html-keyboard-response","204","744397","0.0-5.0-1.0-2.9","3","0","kxqh0adr1w0qdgn","","null","","<p style=""color:#054d00;""><b>Correct!</b></p>","","null","","","","","","","","","","","","","","","","","","","","","","","","","","","","","","","",""
"html-button-response","205","745787","0.0-5.0-1.0-3.9","3","0","kxqh0adr1w0qdgn","","877.7999999523163","","<p>Press the button below when you are ready to continue.</p>","0","","","","","","","","","","","","","","","","","","","","","","","","","","","","","","","","",""
"html-keyboard-response","206","770924","0.0-6.0-0.0","3","0","kxqh0adr1w0qdgn","","24624.5","","<p>In this part of the study, you will hear sounds similar to those you just heard.</p><p>Please focus on these sounds, as you may be asked questions about them later.</p><p>Occasionally, the sounds will pause for up to two seconds. When this happens, please press SPACEBAR as quickly as you can.</br>This helps ensure that you are paying attention to the sounds.</p><p>This part of the study will take about 12 minutes to complete, and you will be given the opportunity to take a couple of short breaks every few minutes.</p><p><strong>Press SPACEBAR to begin</strong></p>","","32","","","","","","","","","","","","","","","","","","","","","","","","","","","","","","","",""
"html-keyboard-response","207","771927","0.0-6.0-1.0-0.0","3","0","kxqh0adr1w0qdgn","","null","","<p style=""font-size: 40px;"">+</p>","","null","","","","","","","","","","","","","","","","","","","","","","","","","","","","","","","",""
"html-keyboard-response","208","956940","0.0-6.0-1.0-1.0","3","0","kxqh0adr1w0qdgn","","null","","","","null","","","SL-TRAIN","","","1","null","1771.8999998569489","sounds/C/TRAIN/SEQ__02.mp3","9","","","","","","","","","","","","","","","","","","","","","",""
"html-button-response","209","961673","0.0-6.0-1.0-2.0","3","0","kxqh0adr1w0qdgn","","4730.399999856949","","<p>You may take a short break if you wish.</p>","0","","","","","","","","","","","","","","","","","","","","","","","","","","","","","","","","",""
"html-keyboard-response","210","962680","0.0-6.0-1.0-3.0","3","0","kxqh0adr1w0qdgn","","null","","<p style=""font-size: 40px;"">+</p>","","null","","","","","","","","","","","","","","","","","","","","","","","","","","","","","","","",""
"html-keyboard-response","211","1147700","0.0-6.0-1.0-4.0","3","0","kxqh0adr1w0qdgn","","null","","","","null","","","SL-TRAIN","","","0","1956","1952.0999999046326","sounds/C/TRAIN/SEQ__08.mp3","44","","","","","","","","","","","","","","","","","","","","","",""
"html-button-response","212","1149314","0.0-6.0-1.0-5.0","3","0","kxqh0adr1w0qdgn","","1612.2000000476837","","<p>You may take a short break if you wish.</p>","0","","","","","","","","","","","","","","","","","","","","","","","","","","","","","","","","",""
"html-keyboard-response","213","1150330","0.0-6.0-1.0-6.0","3","0","kxqh0adr1w0qdgn","","null","","<p style=""font-size: 40px;"">+</p>","","null","","","","","","","","","","","","","","","","","","","","","","","","","","","","","","","",""
"html-keyboard-response","214","1335340","0.0-6.0-1.0-7.0","3","0","kxqh0adr1w0qdgn","","null","","","","null","","","SL-TRAIN","","","0","1968.5","1959.0999999046326","sounds/C/TRAIN/SEQ__12.mp3","44","","","","","","","","","","","","","","","","","","","","","",""
"html-button-response","215","1338402","0.0-6.0-1.0-8.0","3","0","kxqh0adr1w0qdgn","","3059.9000000953674","","<p>You may take a short break if you wish.</p>","0","","","","","","","","","","","","","","","","","","","","","","","","","","","","","","","","",""
"html-keyboard-response","216","1339410","0.0-6.0-1.0-9.0","3","0","kxqh0adr1w0qdgn","","null","","<p style=""font-size: 40px;"">+</p>","","null","","","","","","","","","","","","","","","","","","","","","","","","","","","","","","","",""
"html-keyboard-response","217","1524422","0.0-6.0-1.0-10.0","3","0","kxqh0adr1w0qdgn","","null","","","","null","","","SL-TRAIN","","","0","1946.5999999046326","1971.6999998092651","sounds/C/TRAIN/SEQ__07.mp3","59","","","","","","","","","","","","","","","","","","","","","",""
"html-button-response","218","1527028","0.0-6.0-1.0-11.0","3","0","kxqh0adr1w0qdgn","","2603.9000000953674","","<p>You may take a short break if you wish.</p>","0","","","","","","","","","","","","","","","","","","","","","","","","","","","","","","","","",""
"html-button-response","219","1535022","0.0-7.0-0.0","3","0","kxqh0adr1w0qdgn","","7992.099999904633","","<p>Welcome to the second part of the study. This is a <u>familiarity task</u>.</p><p>You will now hear short sounds and will be asked to rate how familiar they sound to you <b>based on what you heard in the previous part of the study</b>.</p><p>You will rate 12 sounds in total.</p>","0","","","","","","","","","","","","","","","","","","","","","","","","","","","","","","","","",""
"html-keyboard-response","220","1536034","0.0-7.0-1.0-0.0","3","0","kxqh0adr1w0qdgn","","null","","","","null","","","","","","","","","","","","","","","","","","","","","","","","","","","","","","","",""
"audio-keyboard-response","221","1537126","0.0-7.0-1.0-1.0","3","0","kxqh0adr1w0qdgn","","null","","sounds/C/FAM/W002.mp3","","null","","","","","","","","","","","","","","","","","","","","","","","","","","","","","","","",""
"html-keyboard-response","222","1548924","0.0-7.0-1.0-2.0","3","0","kxqh0adr1w0qdgn","","11289.199999809265","","<p>How familiar did this sound to you?</p><p>1&nbsp;&nbsp;&nbsp;&nbsp;&nbsp;&nbsp;&nbsp;&nbsp;&nbsp;&nbsp;&nbsp;&nbsp;&nbsp;&nbsp;&nbsp;&nbsp;&nbsp;&nbsp;&nbsp;2&nbsp;&nbsp;&nbsp;&nbsp;&nbsp;&nbsp;&nbsp;&nbsp;&nbsp;&nbsp;&nbsp;&nbsp;&nbsp;&nbsp;&nbsp;&nbsp;&nbsp;&nbsp;&nbsp;3&nbsp;&nbsp;&nbsp;&nbsp;&nbsp;&nbsp;&nbsp;&nbsp;&nbsp;&nbsp;&nbsp;&nbsp;&nbsp;&nbsp;&nbsp;&nbsp;&nbsp;&nbsp;&nbsp;4</p><p style=""font-size:14px"">Not at all familiar&nbsp;&nbsp;&nbsp;&nbsp;A little familiar&nbsp;&nbsp;&nbsp;Moderately familiar&nbsp;&nbsp;&nbsp;Extremely familiar</p><p>(press the corresponding number on your keyboard)</p>","","52","","","FAM-RESPONSE","","","","","","","","sounds/C/FAM/W002.mp3","word","","","","","","","","","","","","","","","","","","","",""
"html-keyboard-response","223","1550944","0.0-7.0-1.0-0.1","3","0","kxqh0adr1w0qdgn","","null","","","","null","","","","","","","","","","","","","","","","","","","","","","","","","","","","","","","",""
"audio-keyboard-response","224","1551886","0.0-7.0-1.0-1.1","3","0","kxqh0adr1w0qdgn","","null","","sounds/C/FAM/W003.mp3","","null","","","","","","","","","","","","","","","","","","","","","","","","","","","","","","","",""
"html-keyboard-response","225","1553823","0.0-7.0-1.0-2.1","3","0","kxqh0adr1w0qdgn","","1428.4000000953674","","<p>How familiar did this sound to you?</p><p>1&nbsp;&nbsp;&nbsp;&nbsp;&nbsp;&nbsp;&nbsp;&nbsp;&nbsp;&nbsp;&nbsp;&nbsp;&nbsp;&nbsp;&nbsp;&nbsp;&nbsp;&nbsp;&nbsp;2&nbsp;&nbsp;&nbsp;&nbsp;&nbsp;&nbsp;&nbsp;&nbsp;&nbsp;&nbsp;&nbsp;&nbsp;&nbsp;&nbsp;&nbsp;&nbsp;&nbsp;&nbsp;&nbsp;3&nbsp;&nbsp;&nbsp;&nbsp;&nbsp;&nbsp;&nbsp;&nbsp;&nbsp;&nbsp;&nbsp;&nbsp;&nbsp;&nbsp;&nbsp;&nbsp;&nbsp;&nbsp;&nbsp;4</p><p style=""font-size:14px"">Not at all familiar&nbsp;&nbsp;&nbsp;&nbsp;A little familiar&nbsp;&nbsp;&nbsp;Moderately familiar&nbsp;&nbsp;&nbsp;Extremely familiar</p><p>(press the corresponding number on your keyboard)</p>","","51","","","FAM-RESPONSE","","","","","","","","sounds/C/FAM/W003.mp3","word","","","","","","","","","","","","","","","","","","","",""
"html-keyboard-response","226","1555834","0.0-7.0-1.0-0.2","3","0","kxqh0adr1w0qdgn","","null","","","","null","","","","","","","","","","","","","","","","","","","","","","","","","","","","","","","",""
"audio-keyboard-response","227","1556776","0.0-7.0-1.0-1.2","3","0","kxqh0adr1w0qdgn","","null","","sounds/C/FAM/W001.mp3","","null","","","","","","","","","","","","","","","","","","","","","","","","","","","","","","","",""
"html-keyboard-response","228","1557869","0.0-7.0-1.0-2.2","3","0","kxqh0adr1w0qdgn","","585","","<p>How familiar did this sound to you?</p><p>1&nbsp;&nbsp;&nbsp;&nbsp;&nbsp;&nbsp;&nbsp;&nbsp;&nbsp;&nbsp;&nbsp;&nbsp;&nbsp;&nbsp;&nbsp;&nbsp;&nbsp;&nbsp;&nbsp;2&nbsp;&nbsp;&nbsp;&nbsp;&nbsp;&nbsp;&nbsp;&nbsp;&nbsp;&nbsp;&nbsp;&nbsp;&nbsp;&nbsp;&nbsp;&nbsp;&nbsp;&nbsp;&nbsp;3&nbsp;&nbsp;&nbsp;&nbsp;&nbsp;&nbsp;&nbsp;&nbsp;&nbsp;&nbsp;&nbsp;&nbsp;&nbsp;&nbsp;&nbsp;&nbsp;&nbsp;&nbsp;&nbsp;4</p><p style=""font-size:14px"">Not at all familiar&nbsp;&nbsp;&nbsp;&nbsp;A little familiar&nbsp;&nbsp;&nbsp;Moderately familiar&nbsp;&nbsp;&nbsp;Extremely familiar</p><p>(press the corresponding number on your keyboard)</p>","","50","","","FAM-RESPONSE","","","","","","","","sounds/C/FAM/W001.mp3","word","","","","","","","","","","","","","","","","","","","",""
"html-keyboard-response","229","1559878","0.0-7.0-1.0-0.3","3","0","kxqh0adr1w0qdgn","","null","","","","null","","","","","","","","","","","","","","","","","","","","","","","","","","","","","","","",""
"audio-keyboard-response","230","1560816","0.0-7.0-1.0-1.3","3","0","kxqh0adr1w0qdgn","","null","","sounds/C/FAM/N004.mp3","","null","","","","","","","","","","","","","","","","","","","","","","","","","","","","","","","",""
"html-keyboard-response","231","1561525","0.0-7.0-1.0-2.3","3","0","kxqh0adr1w0qdgn","","199.69999980926514","","<p>How familiar did this sound to you?</p><p>1&nbsp;&nbsp;&nbsp;&nbsp;&nbsp;&nbsp;&nbsp;&nbsp;&nbsp;&nbsp;&nbsp;&nbsp;&nbsp;&nbsp;&nbsp;&nbsp;&nbsp;&nbsp;&nbsp;2&nbsp;&nbsp;&nbsp;&nbsp;&nbsp;&nbsp;&nbsp;&nbsp;&nbsp;&nbsp;&nbsp;&nbsp;&nbsp;&nbsp;&nbsp;&nbsp;&nbsp;&nbsp;&nbsp;3&nbsp;&nbsp;&nbsp;&nbsp;&nbsp;&nbsp;&nbsp;&nbsp;&nbsp;&nbsp;&nbsp;&nbsp;&nbsp;&nbsp;&nbsp;&nbsp;&nbsp;&nbsp;&nbsp;4</p><p style=""font-size:14px"">Not at all familiar&nbsp;&nbsp;&nbsp;&nbsp;A little familiar&nbsp;&nbsp;&nbsp;Moderately familiar&nbsp;&nbsp;&nbsp;Extremely familiar</p><p>(press the corresponding number on your keyboard)</p>","","50","","","FAM-RESPONSE","","","","","","","","sounds/C/FAM/N004.mp3","nonword","","","","","","","","","","","","","","","","","","","",""
"html-keyboard-response","232","1563543","0.0-7.0-1.0-0.4","3","0","kxqh0adr1w0qdgn","","null","","","","null","","","","","","","","","","","","","","","","","","","","","","","","","","","","","","","",""
"audio-keyboard-response","233","1564486","0.0-7.0-1.0-1.4","3","0","kxqh0adr1w0qdgn","","null","","sounds/C/FAM/P002.mp3","","null","","","","","","","","","","","","","","","","","","","","","","","","","","","","","","","",""
"html-keyboard-response","234","1566073","0.0-7.0-1.0-2.4","3","0","kxqh0adr1w0qdgn","","1079.7999999523163","","<p>How familiar did this sound to you?</p><p>1&nbsp;&nbsp;&nbsp;&nbsp;&nbsp;&nbsp;&nbsp;&nbsp;&nbsp;&nbsp;&nbsp;&nbsp;&nbsp;&nbsp;&nbsp;&nbsp;&nbsp;&nbsp;&nbsp;2&nbsp;&nbsp;&nbsp;&nbsp;&nbsp;&nbsp;&nbsp;&nbsp;&nbsp;&nbsp;&nbsp;&nbsp;&nbsp;&nbsp;&nbsp;&nbsp;&nbsp;&nbsp;&nbsp;3&nbsp;&nbsp;&nbsp;&nbsp;&nbsp;&nbsp;&nbsp;&nbsp;&nbsp;&nbsp;&nbsp;&nbsp;&nbsp;&nbsp;&nbsp;&nbsp;&nbsp;&nbsp;&nbsp;4</p><p style=""font-size:14px"">Not at all familiar&nbsp;&nbsp;&nbsp;&nbsp;A little familiar&nbsp;&nbsp;&nbsp;Moderately familiar&nbsp;&nbsp;&nbsp;Extremely familiar</p><p>(press the corresponding number on your keyboard)</p>","","52","","","FAM-RESPONSE","","","","","","","","sounds/C/FAM/P002.mp3","partword","","","","","","","","","","","","","","","","","","","",""
"html-keyboard-response","235","1568094","0.0-7.0-1.0-0.5","3","0","kxqh0adr1w0qdgn","","null","","","","null","","","","","","","","","","","","","","","","","","","","","","","","","","","","","","","",""
"audio-keyboard-response","236","1569046","0.0-7.0-1.0-1.5","3","0","kxqh0adr1w0qdgn","","null","","sounds/C/FAM/N003.mp3","","null","","","","","","","","","","","","","","","","","","","","","","","","","","","","","","","",""
"html-keyboard-response","237","1570113","0.0-7.0-1.0-2.5","3","0","kxqh0adr1w0qdgn","","558.2000000476837","","<p>How familiar did this sound to you?</p><p>1&nbsp;&nbsp;&nbsp;&nbsp;&nbsp;&nbsp;&nbsp;&nbsp;&nbsp;&nbsp;&nbsp;&nbsp;&nbsp;&nbsp;&nbsp;&nbsp;&nbsp;&nbsp;&nbsp;2&nbsp;&nbsp;&nbsp;&nbsp;&nbsp;&nbsp;&nbsp;&nbsp;&nbsp;&nbsp;&nbsp;&nbsp;&nbsp;&nbsp;&nbsp;&nbsp;&nbsp;&nbsp;&nbsp;3&nbsp;&nbsp;&nbsp;&nbsp;&nbsp;&nbsp;&nbsp;&nbsp;&nbsp;&nbsp;&nbsp;&nbsp;&nbsp;&nbsp;&nbsp;&nbsp;&nbsp;&nbsp;&nbsp;4</p><p style=""font-size:14px"">Not at all familiar&nbsp;&nbsp;&nbsp;&nbsp;A little familiar&nbsp;&nbsp;&nbsp;Moderately familiar&nbsp;&nbsp;&nbsp;Extremely familiar</p><p>(press the corresponding number on your keyboard)</p>","","52","","","FAM-RESPONSE","","","","","","","","sounds/C/FAM/N003.mp3","nonword","","","","","","","","","","","","","","","","","","","",""
"html-keyboard-response","238","1572123","0.0-7.0-1.0-0.6","3","0","kxqh0adr1w0qdgn","","null","","","","null","","","","","","","","","","","","","","","","","","","","","","","","","","","","","","","",""
"audio-keyboard-response","239","1573056","0.0-7.0-1.0-1.6","3","0","kxqh0adr1w0qdgn","","null","","sounds/C/FAM/P003.mp3","","null","","","","","","","","","","","","","","","","","","","","","","","","","","","","","","","",""
"html-keyboard-response","240","1574846","0.0-7.0-1.0-2.6","3","0","kxqh0adr1w0qdgn","","1281.7000000476837","","<p>How familiar did this sound to you?</p><p>1&nbsp;&nbsp;&nbsp;&nbsp;&nbsp;&nbsp;&nbsp;&nbsp;&nbsp;&nbsp;&nbsp;&nbsp;&nbsp;&nbsp;&nbsp;&nbsp;&nbsp;&nbsp;&nbsp;2&nbsp;&nbsp;&nbsp;&nbsp;&nbsp;&nbsp;&nbsp;&nbsp;&nbsp;&nbsp;&nbsp;&nbsp;&nbsp;&nbsp;&nbsp;&nbsp;&nbsp;&nbsp;&nbsp;3&nbsp;&nbsp;&nbsp;&nbsp;&nbsp;&nbsp;&nbsp;&nbsp;&nbsp;&nbsp;&nbsp;&nbsp;&nbsp;&nbsp;&nbsp;&nbsp;&nbsp;&nbsp;&nbsp;4</p><p style=""font-size:14px"">Not at all familiar&nbsp;&nbsp;&nbsp;&nbsp;A little familiar&nbsp;&nbsp;&nbsp;Moderately familiar&nbsp;&nbsp;&nbsp;Extremely familiar</p><p>(press the corresponding number on your keyboard)</p>","","50","","","FAM-RESPONSE","","","","","","","","sounds/C/FAM/P003.mp3","partword","","","","","","","","","","","","","","","","","","","",""
"html-keyboard-response","241","1576864","0.0-7.0-1.0-0.7","3","0","kxqh0adr1w0qdgn","","null","","","","null","","","","","","","","","","","","","","","","","","","","","","","","","","","","","","","",""
"audio-keyboard-response","242","1577806","0.0-7.0-1.0-1.7","3","0","kxqh0adr1w0qdgn","","null","","sounds/C/FAM/P004.mp3","","null","","","","","","","","","","","","","","","","","","","","","","","","","","","","","","","",""
"html-keyboard-response","243","1578828","0.0-7.0-1.0-2.7","3","0","kxqh0adr1w0qdgn","","513.3999998569489","","<p>How familiar did this sound to you?</p><p>1&nbsp;&nbsp;&nbsp;&nbsp;&nbsp;&nbsp;&nbsp;&nbsp;&nbsp;&nbsp;&nbsp;&nbsp;&nbsp;&nbsp;&nbsp;&nbsp;&nbsp;&nbsp;&nbsp;2&nbsp;&nbsp;&nbsp;&nbsp;&nbsp;&nbsp;&nbsp;&nbsp;&nbsp;&nbsp;&nbsp;&nbsp;&nbsp;&nbsp;&nbsp;&nbsp;&nbsp;&nbsp;&nbsp;3&nbsp;&nbsp;&nbsp;&nbsp;&nbsp;&nbsp;&nbsp;&nbsp;&nbsp;&nbsp;&nbsp;&nbsp;&nbsp;&nbsp;&nbsp;&nbsp;&nbsp;&nbsp;&nbsp;4</p><p style=""font-size:14px"">Not at all familiar&nbsp;&nbsp;&nbsp;&nbsp;A little familiar&nbsp;&nbsp;&nbsp;Moderately familiar&nbsp;&nbsp;&nbsp;Extremely familiar</p><p>(press the corresponding number on your keyboard)</p>","","50","","","FAM-RESPONSE","","","","","","","","sounds/C/FAM/P004.mp3","partword","","","","","","","","","","","","","","","","","","","",""
"html-keyboard-response","244","1580844","0.0-7.0-1.0-0.8","3","0","kxqh0adr1w0qdgn","","null","","","","null","","","","","","","","","","","","","","","","","","","","","","","","","","","","","","","",""
"audio-keyboard-response","245","1581776","0.0-7.0-1.0-1.8","3","0","kxqh0adr1w0qdgn","","null","","sounds/C/FAM/W004.mp3","","null","","","","","","","","","","","","","","","","","","","","","","","","","","","","","","","",""
"html-keyboard-response","246","1582679","0.0-7.0-1.0-2.8","3","0","kxqh0adr1w0qdgn","","395","","<p>How familiar did this sound to you?</p><p>1&nbsp;&nbsp;&nbsp;&nbsp;&nbsp;&nbsp;&nbsp;&nbsp;&nbsp;&nbsp;&nbsp;&nbsp;&nbsp;&nbsp;&nbsp;&nbsp;&nbsp;&nbsp;&nbsp;2&nbsp;&nbsp;&nbsp;&nbsp;&nbsp;&nbsp;&nbsp;&nbsp;&nbsp;&nbsp;&nbsp;&nbsp;&nbsp;&nbsp;&nbsp;&nbsp;&nbsp;&nbsp;&nbsp;3&nbsp;&nbsp;&nbsp;&nbsp;&nbsp;&nbsp;&nbsp;&nbsp;&nbsp;&nbsp;&nbsp;&nbsp;&nbsp;&nbsp;&nbsp;&nbsp;&nbsp;&nbsp;&nbsp;4</p><p style=""font-size:14px"">Not at all familiar&nbsp;&nbsp;&nbsp;&nbsp;A little familiar&nbsp;&nbsp;&nbsp;Moderately familiar&nbsp;&nbsp;&nbsp;Extremely familiar</p><p>(press the corresponding number on your keyboard)</p>","","51","","","FAM-RESPONSE","","","","","","","","sounds/C/FAM/W004.mp3","word","","","","","","","","","","","","","","","","","","","",""
"html-keyboard-response","247","1584694","0.0-7.0-1.0-0.9","3","0","kxqh0adr1w0qdgn","","null","","","","null","","","","","","","","","","","","","","","","","","","","","","","","","","","","","","","",""
"audio-keyboard-response","248","1585636","0.0-7.0-1.0-1.9","3","0","kxqh0adr1w0qdgn","","null","","sounds/C/FAM/N001.mp3","","null","","","","","","","","","","","","","","","","","","","","","","","","","","","","","","","",""
"html-keyboard-response","249","1586296","0.0-7.0-1.0-2.9","3","0","kxqh0adr1w0qdgn","","152","","<p>How familiar did this sound to you?</p><p>1&nbsp;&nbsp;&nbsp;&nbsp;&nbsp;&nbsp;&nbsp;&nbsp;&nbsp;&nbsp;&nbsp;&nbsp;&nbsp;&nbsp;&nbsp;&nbsp;&nbsp;&nbsp;&nbsp;2&nbsp;&nbsp;&nbsp;&nbsp;&nbsp;&nbsp;&nbsp;&nbsp;&nbsp;&nbsp;&nbsp;&nbsp;&nbsp;&nbsp;&nbsp;&nbsp;&nbsp;&nbsp;&nbsp;3&nbsp;&nbsp;&nbsp;&nbsp;&nbsp;&nbsp;&nbsp;&nbsp;&nbsp;&nbsp;&nbsp;&nbsp;&nbsp;&nbsp;&nbsp;&nbsp;&nbsp;&nbsp;&nbsp;4</p><p style=""font-size:14px"">Not at all familiar&nbsp;&nbsp;&nbsp;&nbsp;A little familiar&nbsp;&nbsp;&nbsp;Moderately familiar&nbsp;&nbsp;&nbsp;Extremely familiar</p><p>(press the corresponding number on your keyboard)</p>","","51","","","FAM-RESPONSE","","","","","","","","sounds/C/FAM/N001.mp3","nonword","","","","","","","","","","","","","","","","","","","",""
"html-keyboard-response","250","1588314","0.0-7.0-1.0-0.10","3","0","kxqh0adr1w0qdgn","","null","","","","null","","","","","","","","","","","","","","","","","","","","","","","","","","","","","","","",""
"audio-keyboard-response","251","1589246","0.0-7.0-1.0-1.10","3","0","kxqh0adr1w0qdgn","","null","","sounds/C/FAM/N002.mp3","","null","","","","","","","","","","","","","","","","","","","","","","","","","","","","","","","",""
"html-keyboard-response","252","1590352","0.0-7.0-1.0-2.10","3","0","kxqh0adr1w0qdgn","","588","","<p>How familiar did this sound to you?</p><p>1&nbsp;&nbsp;&nbsp;&nbsp;&nbsp;&nbsp;&nbsp;&nbsp;&nbsp;&nbsp;&nbsp;&nbsp;&nbsp;&nbsp;&nbsp;&nbsp;&nbsp;&nbsp;&nbsp;2&nbsp;&nbsp;&nbsp;&nbsp;&nbsp;&nbsp;&nbsp;&nbsp;&nbsp;&nbsp;&nbsp;&nbsp;&nbsp;&nbsp;&nbsp;&nbsp;&nbsp;&nbsp;&nbsp;3&nbsp;&nbsp;&nbsp;&nbsp;&nbsp;&nbsp;&nbsp;&nbsp;&nbsp;&nbsp;&nbsp;&nbsp;&nbsp;&nbsp;&nbsp;&nbsp;&nbsp;&nbsp;&nbsp;4</p><p style=""font-size:14px"">Not at all familiar&nbsp;&nbsp;&nbsp;&nbsp;A little familiar&nbsp;&nbsp;&nbsp;Moderately familiar&nbsp;&nbsp;&nbsp;Extremely familiar</p><p>(press the corresponding number on your keyboard)</p>","","51","","","FAM-RESPONSE","","","","","","","","sounds/C/FAM/N002.mp3","nonword","","","","","","","","","","","","","","","","","","","",""
"html-keyboard-response","253","1592374","0.0-7.0-1.0-0.11","3","0","kxqh0adr1w0qdgn","","null","","","","null","","","","","","","","","","","","","","","","","","","","","","","","","","","","","","","",""
"audio-keyboard-response","254","1593316","0.0-7.0-1.0-1.11","3","0","kxqh0adr1w0qdgn","","null","","sounds/C/FAM/P001.mp3","","null","","","","","","","","","","","","","","","","","","","","","","","","","","","","","","","",""
"html-keyboard-response","255","1593882","0.0-7.0-1.0-2.11","3","0","kxqh0adr1w0qdgn","","57.59999990463257","","<p>How familiar did this sound to you?</p><p>1&nbsp;&nbsp;&nbsp;&nbsp;&nbsp;&nbsp;&nbsp;&nbsp;&nbsp;&nbsp;&nbsp;&nbsp;&nbsp;&nbsp;&nbsp;&nbsp;&nbsp;&nbsp;&nbsp;2&nbsp;&nbsp;&nbsp;&nbsp;&nbsp;&nbsp;&nbsp;&nbsp;&nbsp;&nbsp;&nbsp;&nbsp;&nbsp;&nbsp;&nbsp;&nbsp;&nbsp;&nbsp;&nbsp;3&nbsp;&nbsp;&nbsp;&nbsp;&nbsp;&nbsp;&nbsp;&nbsp;&nbsp;&nbsp;&nbsp;&nbsp;&nbsp;&nbsp;&nbsp;&nbsp;&nbsp;&nbsp;&nbsp;4</p><p style=""font-size:14px"">Not at all familiar&nbsp;&nbsp;&nbsp;&nbsp;A little familiar&nbsp;&nbsp;&nbsp;Moderately familiar&nbsp;&nbsp;&nbsp;Extremely familiar</p><p>(press the corresponding number on your keyboard)</p>","","50","","","FAM-RESPONSE","","","","","","","","sounds/C/FAM/P001.mp3","partword","","","","","","","","","","","","","","","","","","","",""
"html-button-response","256","1608006","0.0-8.0-0.0","3","0","kxqh0adr1w0qdgn","","13120.799999952316","","<p>You will now listen to longer sound sequences.</p><p>Each sound sequence will last about 16 seconds.</p><p>On each trial, you will be given a <u>TARGET SOUND</u>. Your task is to listen very carefully for this sound.</p><p>Every time you hear the <u>TARGET SOUND</u>, you will press the <b>SPACEBAR</b> as quickly and accurately as you can.</p>","0","","","","","","","","","","","","","","","","","","","","","","","","","","","","","","","","",""
"html-button-response","257","1615763","0.0-8.0-1.0","3","0","kxqh0adr1w0qdgn","","7497.400000095367","","<p>It is very important that you make your responses as quickly and accurately as possible.</p><p>To help you make your responses, you will be able to listen to the <u>TARGET SOUND</u> at the beginning of each trial.</p><p>There will be 36 total trials.</p><p><b>Note: This is meant to be a difficult task. We simply want you to try your best.</p>","0","","","","","","","","","","","","","","","","","","","","","","","","","","","","","","","","",""
"html-button-response","258","1617677","0.0-8.0-2.0-0.0","3","0","kxqh0adr1w0qdgn","","1650","","<p>Trial 1 of 36</p>","0","","","","","","","","","","","","","","GE","sounds/syllables/ge_SWS.wav","2400,4200,9600,12300","3","","","","","","","","","","","","","","","",""
"html-keyboard-response","259","1621201","0.0-8.0-2.0-1.0","3","0","kxqh0adr1w0qdgn","","3522.600000143051","","","","80","","","","","","","","","","","","","GE","","2400,4200,9600,12300","3","","","","","","","","","","","","","","","",""
"audio-keyboard-response","260","1621496","0.0-8.0-2.0-2.0-0.0","3","0","kxqh0adr1w0qdgn","","null","","sounds/syllables/ge_SWS.wav","","null","","","","","","","","","","","","","","","","","","","","","","","","","","","","","","","",""
"html-keyboard-response","261","1623951","0.0-8.0-2.0-2.0-1.0","3","0","kxqh0adr1w0qdgn","","2454.600000143051","","<p>To replay the <u>TARGET SOUND</u>, press P.</p> When you are ready to begin, press SPACEBAR.","","80","","","","","","","","","","","","","","","","","","","","","","","","","","","","","","","",""
"audio-keyboard-response","262","1624766","0.0-8.0-2.0-2.1-0.1","3","0","kxqh0adr1w0qdgn","","null","","sounds/syllables/ge_SWS.wav","","null","","","","","","","","","","","","","","","","","","","","","","","","","","","","","","","",""
"html-keyboard-response","263","1625799","0.0-8.0-2.0-2.1-1.1","3","0","kxqh0adr1w0qdgn","","1031.5999999046326","","<p>To replay the <u>TARGET SOUND</u>, press P.</p> When you are ready to begin, press SPACEBAR.","","32","","","","","","","","","","","","","","","","","","","","","","","","","","","","","","","",""
"audio-keyboard-response","264","1640756","0.0-8.0-2.0-3.0","3","0","kxqh0adr1w0qdgn","","1880","","sounds/C/TD/GE_07_TD.mp3","","32","","","TD_SUMMARY","","","","","","","","","","GE","","2400,4200,9600,12300","3","2400","4200","9600","12300","684.7000000476837","955.2000000476837","null","null","1875_3084.7000000476837_4288.299999952316_5155.200000047684_6040.700000047684_7137.700000047684_8486.299999952316_9104.400000095367_10842.599999904633_12054.299999952316_13630.200000047684","2","","","","","",""
"html-button-response","265","1643953","0.0-8.0-2.0-0.1","3","0","kxqh0adr1w0qdgn","","3193.100000143051","","<p>Trial 2 of 36</p>","0","","","","","","","","","","","","","","KO","sounds/syllables/ko_SWS.wav","1800,6300,8100,12600","1","","","","","","","","","","","","","","","",""
"html-keyboard-response","266","1645263","0.0-8.0-2.0-1.1","3","0","kxqh0adr1w0qdgn","","1308.3000001907349","","","","80","","","","","","","","","","","","","KO","","1800,6300,8100,12600","1","","","","","","","","","","","","","","","",""
"audio-keyboard-response","267","1645566","0.0-8.0-2.0-2.2-0.2","3","0","kxqh0adr1w0qdgn","","null","","sounds/syllables/ko_SWS.wav","","null","","","","","","","","","","","","","","","","","","","","","","","","","","","","","","","",""
"html-keyboard-response","268","1646467","0.0-8.0-2.0-2.2-1.2","3","0","kxqh0adr1w0qdgn","","900.6999998092651","","<p>To replay the <u>TARGET SOUND</u>, press P.</p> When you are ready to begin, press SPACEBAR.","","80","","","","","","","","","","","","","","","","","","","","","","","","","","","","","","","",""
"audio-keyboard-response","269","1647276","0.0-8.0-2.0-2.3-0.3","3","0","kxqh0adr1w0qdgn","","null","","sounds/syllables/ko_SWS.wav","","null","","","","","","","","","","","","","","","","","","","","","","","","","","","","","","","",""
"html-keyboard-response","270","1647683","0.0-8.0-2.0-2.3-1.3","3","0","kxqh0adr1w0qdgn","","406.39999985694885","","<p>To replay the <u>TARGET SOUND</u>, press P.</p> When you are ready to begin, press SPACEBAR.","","32","","","","","","","","","","","","","","","","","","","","","","","","","","","","","","","",""
"audio-keyboard-response","271","1662627","0.0-8.0-2.0-3.1","3","0","kxqh0adr1w0qdgn","","429","","sounds/C/TD/KO_01_TD.mp3","","32","","","TD_SUMMARY","","","","","","","","","","KO","","1800,6300,8100,12600","1","1800","6300","8100","12600","960.1000001430511","862.9000000953674","null","658","___________426.7999999523163_1179.1000001430511_2123.2999999523163_2760.100000143051_3470.4000000953674_4828.799999952316_5677.299999952316_7162.900000095367_7938.5_9622.5_10505.400000095367_11406.400000095367_12157.600000143051_13258","2","","","","","",""
"html-button-response","272","1664387","0.0-8.0-2.0-0.2","3","0","kxqh0adr1w0qdgn","","1756.5999999046326","","<p>Trial 3 of 36</p>","0","","","","","","","","","","","","","","ME","sounds/syllables/me_SWS.wav","1800,6300,9900,11700","1","","","","","","","","","","","","","","","",""
"html-keyboard-response","273","1665764","0.0-8.0-2.0-1.2","3","0","kxqh0adr1w0qdgn","","1375.5999999046326","","","","80","","","","","","","","","","","","","ME","","1800,6300,9900,11700","1","","","","","","","","","","","","","","","",""
"audio-keyboard-response","274","1666056","0.0-8.0-2.0-2.4-0.4","3","0","kxqh0adr1w0qdgn","","null","","sounds/syllables/me_SWS.wav","","null","","","","","","","","","","","","","","","","","","","","","","","","","","","","","","","",""
"html-keyboard-response","275","1667163","0.0-8.0-2.0-2.4-1.4","3","0","kxqh0adr1w0qdgn","","1105.8999998569489","","<p>To replay the <u>TARGET SOUND</u>, press P.</p> When you are ready to begin, press SPACEBAR.","","32","","","","","","","","","","","","","","","","","","","","","","","","","","","","","","","",""
"audio-keyboard-response","276","1682106","0.0-8.0-2.0-3.2","3","0","kxqh0adr1w0qdgn","","328","","sounds/C/TD/ME_02_TD.mp3","","32","","","TD_SUMMARY","","","","","","","","","","ME","","1800,6300,9900,11700","1","1800","6300","9900","11700","892.4000000953674","1000.9000000953674","850.8000001907349","827.3000001907349","_________________________328.10000014305115_1116.6000001430511_1878.1000001430511_2692.4000000953674_6231.200000047684_6875.100000143051_7061.200000047684_7300.900000095367_10284.400000095367_10520.600000143051_10750.800000190735_12220.400000095367_12401.700000047684_12527.300000190735_13262.200000047684","1","","","","","",""
"html-button-response","277","1683377","0.0-8.0-2.0-0.3","3","0","kxqh0adr1w0qdgn","","1267.0999999046326","","<p>Trial 4 of 36</p>","0","","","","","","","","","","","","","","RU","sounds/syllables/ru_SWS.wav","1200,6600,9300,12000","2","","","","","","","","","","","","","","","",""
"html-keyboard-response","278","1684330","0.0-8.0-2.0-1.3","3","0","kxqh0adr1w0qdgn","","952.3999998569489","","","","80","","","","","","","","","","","","","RU","","1200,6600,9300,12000","2","","","","","","","","","","","","","","","",""
"audio-keyboard-response","279","1684636","0.0-8.0-2.0-2.5-0.5","3","0","kxqh0adr1w0qdgn","","null","","sounds/syllables/ru_SWS.wav","","null","","","","","","","","","","","","","","","","","","","","","","","","","","","","","","","",""
"html-keyboard-response","280","1685401","0.0-8.0-2.0-2.5-1.5","3","0","kxqh0adr1w0qdgn","","764.5","","<p>To replay the <u>TARGET SOUND</u>, press P.</p> When you are ready to begin, press SPACEBAR.","","80","","","","","","","","","","","","","","","","","","","","","","","","","","","","","","","",""
"audio-keyboard-response","281","1686206","0.0-8.0-2.0-2.6-0.6","3","0","kxqh0adr1w0qdgn","","null","","sounds/syllables/ru_SWS.wav","","null","","","","","","","","","","","","","","","","","","","","","","","","","","","","","","","",""
"html-keyboard-response","282","1686690","0.0-8.0-2.0-2.6-1.6","3","0","kxqh0adr1w0qdgn","","483","","<p>To replay the <u>TARGET SOUND</u>, press P.</p> When you are ready to begin, press SPACEBAR.","","32","","","","","","","","","","","","","","","","","","","","","","","","","","","","","","","",""
"audio-keyboard-response","283","1701636","0.0-8.0-2.0-3.3","3","0","kxqh0adr1w0qdgn","","371","","sounds/C/TD/RU_07_TD.mp3","","32","","","TD_SUMMARY","","","","","","","","","","RU","","1200,6600,9300,12000","2","1200","6600","9300","12000","856.5","604","null","706.2000000476837","________________________________________368.10000014305115_1282.4000000953674_2056.5_3749.2000000476837_4188.299999952316_4520.5_5725.299999952316_6656.600000143051_7204_8708.5_9460.700000047684_11956.299999952316_12706.200000047684","2","","","","","",""
"html-button-response","284","1702920","0.0-8.0-2.0-0.4","3","0","kxqh0adr1w0qdgn","","1280.7999999523163","","<p>Trial 5 of 36</p>","0","","","","","","","","","","","","","","GE","sounds/syllables/ge_SWS.wav","2400,6900,10500,13200","3","","","","","","","","","","","","","","","",""
"html-keyboard-response","285","1704124","0.0-8.0-2.0-1.4","3","0","kxqh0adr1w0qdgn","","1202.2000000476837","","","","80","","","","","","","","","","","","","GE","","2400,6900,10500,13200","3","","","","","","","","","","","","","","","",""
"audio-keyboard-response","286","1704416","0.0-8.0-2.0-2.7-0.7","3","0","kxqh0adr1w0qdgn","","null","","sounds/syllables/ge_SWS.wav","","null","","","","","","","","","","","","","","","","","","","","","","","","","","","","","","","",""
"html-keyboard-response","287","1704881","0.0-8.0-2.0-2.7-1.7","3","0","kxqh0adr1w0qdgn","","463.5","","<p>To replay the <u>TARGET SOUND</u>, press P.</p> When you are ready to begin, press SPACEBAR.","","80","","","","","","","","","","","","","","","","","","","","","","","","","","","","","","","",""
"audio-keyboard-response","288","1705683","0.0-8.0-2.0-2.8-0.8","3","0","kxqh0adr1w0qdgn","","null","","sounds/syllables/ge_SWS.wav","","null","","","","","","","","","","","","","","","","","","","","","","","","","","","","","","","",""
"html-keyboard-response","289","1706418","0.0-8.0-2.0-2.8-1.8","3","0","kxqh0adr1w0qdgn","","734.2000000476837","","<p>To replay the <u>TARGET SOUND</u>, press P.</p> When you are ready to begin, press SPACEBAR.","","80","","","","","","","","","","","","","","","","","","","","","","","","","","","","","","","",""
"audio-keyboard-response","290","1707213","0.0-8.0-2.0-2.9-0.9","3","0","kxqh0adr1w0qdgn","","null","","sounds/syllables/ge_SWS.wav","","null","","","","","","","","","","","","","","","","","","","","","","","","","","","","","","","",""
"html-keyboard-response","291","1707684","0.0-8.0-2.0-2.9-1.9","3","0","kxqh0adr1w0qdgn","","469.2000000476837","","<p>To replay the <u>TARGET SOUND</u>, press P.</p> When you are ready to begin, press SPACEBAR.","","32","","","","","","","","","","","","","","","","","","","","","","","","","","","","","","","",""
"audio-keyboard-response","292","1722633","0.0-8.0-2.0-3.4","3","0","kxqh0adr1w0qdgn","","1760","","sounds/C/TD/GE_02_TD.mp3","","32","","","TD_SUMMARY","","","","","","","","","","GE","","2400,6900,10500,13200","3","2400","6900","10500","13200","null","257.90000009536743","1188.5","393.2000000476837","_____________________________________________________1751.5999999046326_2389.5999999046326_3741.9000000953674_4336.299999952316_4836.799999952316_5666.5_6135.5_7157.900000095367_8268.099999904633_9021.5_10031.099999904633_11688.5_12882.200000047684_13260.599999904633_13593.200000047684","3","","","","","",""
"html-button-response","293","1724030","0.0-8.0-2.0-0.5","3","0","kxqh0adr1w0qdgn","","1394.0999999046326","","<p>Trial 6 of 36</p>","0","","","","","","","","","","","","","","RE","sounds/syllables/re_SWS.wav","2100,4800,9300,12900","2","","","","","","","","","","","","","","","",""
"html-keyboard-response","294","1726101","0.0-8.0-2.0-1.5","3","0","kxqh0adr1w0qdgn","","2069","","","","80","","","","","","","","","","","","","RE","","2100,4800,9300,12900","2","","","","","","","","","","","","","","","",""
"audio-keyboard-response","295","1726403","0.0-8.0-2.0-2.10-0.10","3","0","kxqh0adr1w0qdgn","","null","","sounds/syllables/re_SWS.wav","","null","","","","","","","","","","","","","","","","","","","","","","","","","","","","","","","",""
"html-keyboard-response","296","1726853","0.0-8.0-2.0-2.10-1.10","3","0","kxqh0adr1w0qdgn","","449.2999999523163","","<p>To replay the <u>TARGET SOUND</u>, press P.</p> When you are ready to begin, press SPACEBAR.","","80","","","","","","","","","","","","","","","","","","","","","","","","","","","","","","","",""
"audio-keyboard-response","297","1727673","0.0-8.0-2.0-2.11-0.11","3","0","kxqh0adr1w0qdgn","","null","","sounds/syllables/re_SWS.wav","","null","","","","","","","","","","","","","","","","","","","","","","","","","","","","","","","",""
"html-keyboard-response","298","1728013","0.0-8.0-2.0-2.11-1.11","3","0","kxqh0adr1w0qdgn","","339.10000014305115","","<p>To replay the <u>TARGET SOUND</u>, press P.</p> When you are ready to begin, press SPACEBAR.","","32","","","","","","","","","","","","","","","","","","","","","","","","","","","","","","","",""
"audio-keyboard-response","299","1742963","0.0-8.0-2.0-3.5","3","0","kxqh0adr1w0qdgn","","2221","","sounds/C/TD/RE_03_TD.mp3","","32","","","TD_SUMMARY","","","","","","","","","","RE","","2100,4800,9300,12900","2","2100","4800","9300","12900","1121.3000001907349","749.1000001430511","673.5","918.6000001430511","____________________________________________________________________2216.100000143051_2450.5_2685_3221.300000190735_4769.200000047684_5040.200000047684_5287.300000190735_5549.100000143051_6630.200000047684_7128.100000143051_8970.700000047684_9550.600000143051_9734.200000047684_9973.5_12957.800000190735_13236.600000143051_13487.400000095367_13818.600000143051","2","","","","","",""
"html-button-response","300","1744282","0.0-8.0-2.0-0.6","3","0","kxqh0adr1w0qdgn","","1316.1999998092651","","<p>Trial 7 of 36</p>","0","","","","","","","","","","","","","","KO","sounds/syllables/ko_SWS.wav","900,5400,9000,12600","1","","","","","","","","","","","","","","","",""
"html-keyboard-response","301","1745418","0.0-8.0-2.0-1.6","3","0","kxqh0adr1w0qdgn","","1134.2000000476837","","","","80","","","","","","","","","","","","","KO","","900,5400,9000,12600","1","","","","","","","","","","","","","","","",""
"audio-keyboard-response","302","1745724","0.0-8.0-2.0-2.12-0.12","3","0","kxqh0adr1w0qdgn","","null","","sounds/syllables/ko_SWS.wav","","null","","","","","","","","","","","","","","","","","","","","","","","","","","","","","","","",""
"html-keyboard-response","303","1746329","0.0-8.0-2.0-2.12-1.12","3","0","kxqh0adr1w0qdgn","","604.6000001430511","","<p>To replay the <u>TARGET SOUND</u>, press P.</p> When you are ready to begin, press SPACEBAR.","","80","","","","","","","","","","","","","","","","","","","","","","","","","","","","","","","",""
"audio-keyboard-response","304","1747123","0.0-8.0-2.0-2.13-0.13","3","0","kxqh0adr1w0qdgn","","null","","sounds/syllables/ko_SWS.wav","","null","","","","","","","","","","","","","","","","","","","","","","","","","","","","","","","",""
"html-keyboard-response","305","1747554","0.0-8.0-2.0-2.13-1.13","3","0","kxqh0adr1w0qdgn","","430.5","","<p>To replay the <u>TARGET SOUND</u>, press P.</p> When you are ready to begin, press SPACEBAR.","","32","","","","","","","","","","","","","","","","","","","","","","","","","","","","","","","",""
"audio-keyboard-response","306","1762504","0.0-8.0-2.0-3.6","3","0","kxqh0adr1w0qdgn","","1509","","sounds/C/TD/KO_07_TD.mp3","","32","","","TD_SUMMARY","","","","","","","","","","KO","","900,5400,9000,12600","1","900","5400","9000","12600","823.1000001430511","970.9000000953674","1052.7999999523163","null","______________________________________________________________________________________1501.6000001430511_1723.1000001430511_3006.7000000476837_3812.7000000476837_5934.700000047684_6370.900000095367_6613.299999952316_6941.200000047684_7221_7527.900000095367_7861_10052.799999952316_10518.799999952316_10859.600000143051_11181.400000095367_14359.200000047684","2","","","","","",""
"html-button-response","307","1763978","0.0-8.0-2.0-0.7","3","0","kxqh0adr1w0qdgn","","1470.3999998569489","","<p>Trial 8 of 36</p>","0","","","","","","","","","","","","","","KO","sounds/syllables/ko_SWS.wav","4500,7200,9000,11700","1","","","","","","","","","","","","","","","",""
"html-keyboard-response","308","1765443","0.0-8.0-2.0-1.7","3","0","kxqh0adr1w0qdgn","","1463.9000000953674","","","","80","","","","","","","","","","","","","KO","","4500,7200,9000,11700","1","","","","","","","","","","","","","","","",""
"audio-keyboard-response","309","1765754","0.0-8.0-2.0-2.14-0.14","3","0","kxqh0adr1w0qdgn","","null","","sounds/syllables/ko_SWS.wav","","null","","","","","","","","","","","","","","","","","","","","","","","","","","","","","","","",""
"html-keyboard-response","310","1766247","0.0-8.0-2.0-2.14-1.14","3","0","kxqh0adr1w0qdgn","","491.89999985694885","","<p>To replay the <u>TARGET SOUND</u>, press P.</p> When you are ready to begin, press SPACEBAR.","","80","","","","","","","","","","","","","","","","","","","","","","","","","","","","","","","",""
"audio-keyboard-response","311","1767054","0.0-8.0-2.0-2.15-0.15","3","0","kxqh0adr1w0qdgn","","null","","sounds/syllables/ko_SWS.wav","","null","","","","","","","","","","","","","","","","","","","","","","","","","","","","","","","",""
"html-keyboard-response","312","1767470","0.0-8.0-2.0-2.15-1.15","3","0","kxqh0adr1w0qdgn","","415.39999985694885","","<p>To replay the <u>TARGET SOUND</u>, press P.</p> When you are ready to begin, press SPACEBAR.","","32","","","","","","","","","","","","","","","","","","","","","","","","","","","","","","","",""
"audio-keyboard-response","313","1782425","0.0-8.0-2.0-3.7","3","0","kxqh0adr1w0qdgn","","1029","","sounds/C/TD/KO_10_TD.mp3","","32","","","TD_SUMMARY","","","","","","","","","","KO","","4500,7200,9000,11700","1","4500","7200","9000","11700","865.7999999523163","975.5","1148.6999998092651","1116.6999998092651","______________________________________________________________________________________________________1027.7999999523163_2128.5999999046326_2493_2961.199999809265_3944.5_4302.799999952316_4614.699999809265_5365.799999952316_5821.599999904633_6438.899999856949_6850.5_8175.5_8715.199999809265_10148.699999809265_10785.699999809265_11289.899999856949_11856.799999952316_12816.699999809265_14289","2","","","","","",""
"html-button-response","314","1783663","0.0-8.0-2.0-0.8","3","0","kxqh0adr1w0qdgn","","1234.7999999523163","","<p>Trial 9 of 36</p>","0","","","","","","","","","","","","","","RU","sounds/syllables/ru_SWS.wav","3000,5700,10200,12000","2","","","","","","","","","","","","","","","",""
"html-keyboard-response","315","1784759","0.0-8.0-2.0-1.8","3","0","kxqh0adr1w0qdgn","","1094.8000001907349","","","","80","","","","","","","","","","","","","RU","","3000,5700,10200,12000","2","","","","","","","","","","","","","","","",""
"audio-keyboard-response","316","1785054","0.0-8.0-2.0-2.16-0.16","3","0","kxqh0adr1w0qdgn","","null","","sounds/syllables/ru_SWS.wav","","null","","","","","","","","","","","","","","","","","","","","","","","","","","","","","","","",""
"html-keyboard-response","317","1785804","0.0-8.0-2.0-2.16-1.16","3","0","kxqh0adr1w0qdgn","","748.7000000476837","","<p>To replay the <u>TARGET SOUND</u>, press P.</p> When you are ready to begin, press SPACEBAR.","","80","","","","","","","","","","","","","","","","","","","","","","","","","","","","","","","",""
"audio-keyboard-response","318","1786614","0.0-8.0-2.0-2.17-0.17","3","0","kxqh0adr1w0qdgn","","null","","sounds/syllables/ru_SWS.wav","","null","","","","","","","","","","","","","","","","","","","","","","","","","","","","","","","",""
"html-keyboard-response","319","1787053","0.0-8.0-2.0-2.17-1.17","3","0","kxqh0adr1w0qdgn","","437","","<p>To replay the <u>TARGET SOUND</u>, press P.</p> When you are ready to begin, press SPACEBAR.","","32","","","","","","","","","","","","","","","","","","","","","","","","","","","","","","","",""
"audio-keyboard-response","320","1802004","0.0-8.0-2.0-3.8","3","0","kxqh0adr1w0qdgn","","1291","","sounds/C/TD/RU_10_TD.mp3","","32","","","TD_SUMMARY","","","","","","","","","","RU","","3000,5700,10200,12000","2","3000","5700","10200","12000","859","709.2999999523163","858.9000000953674","1172.4000000953674","_________________________________________________________________________________________________________________________1285.2999999523163_2043_3366.4000000953674_3647.2000000476837_3859_5529.299999952316_6149.600000143051_6409.299999952316_8156.400000095367_8482.700000047684_8855.799999952316_9588.600000143051_10693.299999952316_11058.900000095367_11447.200000047684_12315.400000095367_12642.600000143051_13172.400000095367","2","","","","","",""
"html-button-response","321","1803059","0.0-8.0-2.0-0.9","3","0","kxqh0adr1w0qdgn","","1052","","<p>Trial 10 of 36</p>","0","","","","","","","","","","","","","","RE","sounds/syllables/re_SWS.wav","1200,3900,5700,10200","2","","","","","","","","","","","","","","","",""
"html-keyboard-response","322","1804072","0.0-8.0-2.0-1.9","3","0","kxqh0adr1w0qdgn","","1010.9000000953674","","","","80","","","","","","","","","","","","","RE","","1200,3900,5700,10200","2","","","","","","","","","","","","","","","",""
"audio-keyboard-response","323","1804364","0.0-8.0-2.0-2.18-0.18","3","0","kxqh0adr1w0qdgn","","null","","sounds/syllables/re_SWS.wav","","null","","","","","","","","","","","","","","","","","","","","","","","","","","","","","","","",""
"html-keyboard-response","324","1804913","0.0-8.0-2.0-2.18-1.18","3","0","kxqh0adr1w0qdgn","","548.3000001907349","","<p>To replay the <u>TARGET SOUND</u>, press P.</p> When you are ready to begin, press SPACEBAR.","","80","","","","","","","","","","","","","","","","","","","","","","","","","","","","","","","",""
"audio-keyboard-response","325","1805724","0.0-8.0-2.0-2.19-0.19","3","0","kxqh0adr1w0qdgn","","null","","sounds/syllables/re_SWS.wav","","null","","","","","","","","","","","","","","","","","","","","","","","","","","","","","","","",""
"html-keyboard-response","326","1806474","0.0-8.0-2.0-2.19-1.19","3","0","kxqh0adr1w0qdgn","","748.5","","<p>To replay the <u>TARGET SOUND</u>, press P.</p> When you are ready to begin, press SPACEBAR.","","32","","","","","","","","","","","","","","","","","","","","","","","","","","","","","","","",""
"audio-keyboard-response","327","1821424","0.0-8.0-2.0-3.9","3","0","kxqh0adr1w0qdgn","","1248","","sounds/C/TD/RE_07_TD.mp3","","32","","","TD_SUMMARY","","","","","","","","","","RE","","1200,3900,5700,10200","2","1200","3900","5700","10200","821.9000000953674","1043.7000000476837","897.6000001430511","622.6000001430511","___________________________________________________________________________________________________________________________________________1249.4000000953674_1519.3000001907349_1779.8000001907349_2021.9000000953674_2546.7000000476837_3982.7000000476837_4192.800000190735_4442.100000143051_4680.100000143051_4943.700000047684_5926.800000190735_6134_6352.300000190735_6597.600000143051_9728.800000190735_10347.600000143051_10580.5_10822.600000143051_12653.100000143051","2","","","","","",""
"html-button-response","328","1822524","0.0-8.0-2.0-0.10","3","0","kxqh0adr1w0qdgn","","1096.9000000953674","","<p>Trial 11 of 36</p>","0","","","","","","","","","","","","","","FE","sounds/syllables/fe_SWS.wav","2100,5700,9300,12000","2","","","","","","","","","","","","","","","",""
"html-keyboard-response","329","1823425","0.0-8.0-2.0-1.10","3","0","kxqh0adr1w0qdgn","","898.7000000476837","","","","80","","","","","","","","","","","","","FE","","2100,5700,9300,12000","2","","","","","","","","","","","","","","","",""
"audio-keyboard-response","330","1823724","0.0-8.0-2.0-2.20-0.20","3","0","kxqh0adr1w0qdgn","","null","","sounds/syllables/fe_SWS.wav","","null","","","","","","","","","","","","","","","","","","","","","","","","","","","","","","","",""
