"trial_type","trial_index","time_elapsed","internal_node_id","counterbalance","lang_instruct","ParticipantID","view_history","rt","url","stimulus","button_pressed","key_press","correctRESP","correct","designation","location","correctanswer","timeouts","pause_rt01","pause_rt02","train_file","numKeyPress","sound","fam_type","SYLLABLE","EXEMPLAR","TD_LOCS","TD_TYPE","TDLOC_01","TDLOC_02","TDLOC_03","TDLOC_04","TD_RT_01","TD_RT_02","TD_RT_03","TD_RT_04","TD_SUBJ_RTs","number_of_plays","responses","slider_start","response","question_order","syllable","syllable_type"
"pavlovia","0","3","0.0-0.0","3","0","sggdhf7c0wcu2zh","","","","","","","","","","","","","","","","","","","","","","","","","","","","","","","","","","","","","",""
"instructions","1","9013","0.0-1.0","3","0","sggdhf7c0wcu2zh","[{""page_index"":0,""viewing_time"":5907.700000047684},{""page_index"":1,""viewing_time"":3095.5999999046326}]","9009.400000095367","","","","","","","","","","","","","","","","","","","","","","","","","","","","","","","","","","","",""
"external-html","2","12661","0.0-2.0","3","0","sggdhf7c0wcu2zh","","3604.399999856949","consent/consent.html","","","","","","","","","","","","","","","","","","","","","","","","","","","","","","","","","","",""
"html-button-response","3","14011","0.0-3.0-0.0-0.0","3","0","sggdhf7c0wcu2zh","","1345.7000000476837","","<p>Welcome to the study. You will first complete a short volume calibration and headphone check.</p><p>Please make sure you are in a quiet listening environment, that you are wearing headphones, and that your computer's volume is turned on.<p></p>","0","","","","","","","","","","","","","","","","","","","","","","","","","","","","","","","","",""
"html-button-response","4","14702","0.0-3.0-0.0-1.0","3","0","sggdhf7c0wcu2zh","","434.39999985694885","","<p>The volume calibration will be first.</p><p>You will hear a thirty-second noise. Please adjust your computer's volume so that this noise is being presented at a comfortable level.<p></p>","0","","","","","","","","","","","","","","","","","","","","","","","","","","","","","","","","",""
"audio-button-response","5","15886","0.0-3.0-0.0-2.0","3","0","sggdhf7c0wcu2zh","","931","","audCalib/volumetest.mp3","0","","","","","","","","","","","","","","","","","","","","","","","","","","","","","","","","",""
"html-button-response","6","16998","0.0-3.0-1.0-0.0","3","0","sggdhf7c0wcu2zh","","1109.2999999523163","","<p>You will now complete a short headphone check.</p><p>On each trial, you will hear three tones. One of these tones will be quieter than the others. Your task is to identify whether the quiet tone occured first, second, or third.</p><p>There are six trials in total.<p></p>","0","","","","","","","","","","","","","","","","","","","","","","","","","","","","","","","","",""
"html-keyboard-response","7","17759","0.0-3.0-1.0-1.0-0.0","3","0","sggdhf7c0wcu2zh","","null","","<div style=""font-size:60px;"">+</div>","","null","","","","","","","","","","","","","","","","","","","","","","","","","","","","","","","",""
"audio-button-response","8","22110","0.0-3.0-1.0-1.0-1.0","3","0","sggdhf7c0wcu2zh","","4352","","audCalib/t3_1.mp3","2","","2","1","headphone-test","","","","","","","","","","","","","","","","","","","","","","","","","","","","",""
"html-keyboard-response","9","22869","0.0-3.0-1.0-1.0-0.1","3","0","sggdhf7c0wcu2zh","","null","","<div style=""font-size:60px;"">+</div>","","null","","","","","","","","","","","","","","","","","","","","","","","","","","","","","","","",""
"audio-button-response","10","27275","0.0-3.0-1.0-1.0-1.1","3","0","sggdhf7c0wcu2zh","","4408","","audCalib/t1_2.mp3","0","","0","1","headphone-test","","","","","","","","","","","","","","","","","","","","","","","","","","","","",""
"html-keyboard-response","11","28039","0.0-3.0-1.0-1.0-0.2","3","0","sggdhf7c0wcu2zh","","null","","<div style=""font-size:60px;"">+</div>","","null","","","","","","","","","","","","","","","","","","","","","","","","","","","","","","","",""
"audio-button-response","12","32342","0.0-3.0-1.0-1.0-1.2","3","0","sggdhf7c0wcu2zh","","4301","","audCalib/t2_2.mp3","1","","1","1","headphone-test","","","","","","","","","","","","","","","","","","","","","","","","","","","","",""
"html-keyboard-response","13","33095","0.0-3.0-1.0-1.0-0.3","3","0","sggdhf7c0wcu2zh","","null","","<div style=""font-size:60px;"">+</div>","","null","","","","","","","","","","","","","","","","","","","","","","","","","","","","","","","",""
"audio-button-response","14","37337","0.0-3.0-1.0-1.0-1.3","3","0","sggdhf7c0wcu2zh","","4240","","audCalib/t3_2.mp3","2","","2","1","headphone-test","","","","","","","","","","","","","","","","","","","","","","","","","","","","",""
"html-keyboard-response","15","38102","0.0-3.0-1.0-1.0-0.4","3","0","sggdhf7c0wcu2zh","","null","","<div style=""font-size:60px;"">+</div>","","null","","","","","","","","","","","","","","","","","","","","","","","","","","","","","","","",""
"audio-button-response","16","42452","0.0-3.0-1.0-1.0-1.4","3","0","sggdhf7c0wcu2zh","","4349","","audCalib/t1_1.mp3","0","","0","1","headphone-test","","","","","","","","","","","","","","","","","","","","","","","","","","","","",""
"html-keyboard-response","17","43221","0.0-3.0-1.0-1.0-0.5","3","0","sggdhf7c0wcu2zh","","null","","<div style=""font-size:60px;"">+</div>","","null","","","","","","","","","","","","","","","","","","","","","","","","","","","","","","","",""
"audio-button-response","18","48189","0.0-3.0-1.0-1.0-1.5","3","0","sggdhf7c0wcu2zh","","4971","","audCalib/t2_1.mp3","1","","1","1","headphone-test","","","","","","","","","","","","","","","","","","","","","","","","","","","","",""
"html-button-response","19","49324","0.0-3.0-2.0","3","0","sggdhf7c0wcu2zh","","874.2000000476837","","<p>The volume calibration and headphone check are now complete.</p>","0","","","","","","","","","","","","","","","","","","","","","","","","","","","","","","","","",""
"instructions","20","58515","0.0-4.0-0.0","3","0","sggdhf7c0wcu2zh","[{""page_index"":0,""viewing_time"":2234},{""page_index"":1,""viewing_time"":5619.700000047684},{""page_index"":2,""viewing_time"":1335.7000000476837}]","9190.100000143051","","","","","","","","","","","","","","","","","","","","","","","","","","","","","","","","","","","",""
"audio-keyboard-response","21","58814","0.0-4.0-1.0-0.0","3","0","sggdhf7c0wcu2zh","","null","","sounds/induction/left_rev/ru_SWS.wav","","null","","","","","","","","","","","","","","","","","","","","","","","","","","","","","","","",""
"html-button-response","22","60354","0.0-4.0-1.0-1.0","3","0","sggdhf7c0wcu2zh","","1537.1000001430511","","Was the sound coming from the left or the right?","0","","","1","INDUCTION-JUDGMENT","left","0","","","","","","","","","","","","","","","","","","","","","","","","","","",""
"html-keyboard-response","23","61364","0.0-4.0-1.0-2.0","3","0","sggdhf7c0wcu2zh","","null","","<p style=""color:#054d00;""><b>Correct!</b></p>","","null","","","","","","","","","","","","","","","","","","","","","","","","","","","","","","","",""
"audio-keyboard-response","24","62173","0.0-4.0-1.0-0.1","3","0","sggdhf7c0wcu2zh","","null","","sounds/induction/right_rev/ni_SWS.wav","","null","","","","","","","","","","","","","","","","","","","","","","","","","","","","","","","",""
"html-button-response","25","62728","0.0-4.0-1.0-1.1","3","0","sggdhf7c0wcu2zh","","552.1999998092651","","Was the sound coming from the left or the right?","1","","","1","INDUCTION-JUDGMENT","right","1","","","","","","","","","","","","","","","","","","","","","","","","","","",""
"html-keyboard-response","26","63741","0.0-4.0-1.0-2.1","3","0","sggdhf7c0wcu2zh","","null","","<p style=""color:#054d00;""><b>Correct!</b></p>","","null","","","","","","","","","","","","","","","","","","","","","","","","","","","","","","","",""
"audio-keyboard-response","27","64543","0.0-4.0-1.0-0.2","3","0","sggdhf7c0wcu2zh","","null","","sounds/induction/right_rev/ta_SWS.wav","","null","","","","","","","","","","","","","","","","","","","","","","","","","","","","","","","",""
"html-button-response","28","65251","0.0-4.0-1.0-1.2","3","0","sggdhf7c0wcu2zh","","705","","Was the sound coming from the left or the right?","1","","","1","INDUCTION-JUDGMENT","right","1","","","","","","","","","","","","","","","","","","","","","","","","","","",""
"html-keyboard-response","29","66254","0.0-4.0-1.0-2.2","3","0","sggdhf7c0wcu2zh","","null","","<p style=""color:#054d00;""><b>Correct!</b></p>","","null","","","","","","","","","","","","","","","","","","","","","","","","","","","","","","","",""
"audio-keyboard-response","30","67063","0.0-4.0-1.0-0.3","3","0","sggdhf7c0wcu2zh","","null","","sounds/induction/left_rev/ta_SWS.wav","","null","","","","","","","","","","","","","","","","","","","","","","","","","","","","","","","",""
"html-button-response","31","78499","0.0-4.0-1.0-1.3","3","0","sggdhf7c0wcu2zh","","11433.599999904633","","Was the sound coming from the left or the right?","0","","","1","INDUCTION-JUDGMENT","left","0","","","","","","","","","","","","","","","","","","","","","","","","","","",""
"html-keyboard-response","32","79505","0.0-4.0-1.0-2.3","3","0","sggdhf7c0wcu2zh","","null","","<p style=""color:#054d00;""><b>Correct!</b></p>","","null","","","","","","","","","","","","","","","","","","","","","","","","","","","","","","","",""
"audio-keyboard-response","33","80304","0.0-4.0-1.0-0.4","3","0","sggdhf7c0wcu2zh","","null","","sounds/induction/left_rev/ru_SWS.wav","","null","","","","","","","","","","","","","","","","","","","","","","","","","","","","","","","",""
"html-button-response","34","80992","0.0-4.0-1.0-1.4","3","0","sggdhf7c0wcu2zh","","685.1000001430511","","Was the sound coming from the left or the right?","1","","","0","INDUCTION-JUDGMENT","left","0","","","","","","","","","","","","","","","","","","","","","","","","","","",""
"html-keyboard-response","35","82001","0.0-4.0-1.0-2.4","3","0","sggdhf7c0wcu2zh","","null","","<p style=""color:#690000;""><b>Incorrect!</b></p>","","null","","","","","","","","","","","","","","","","","","","","","","","","","","","","","","","",""
"audio-keyboard-response","36","82813","0.0-4.0-1.0-0.5","3","0","sggdhf7c0wcu2zh","","null","","sounds/induction/left_rev/ko_SWS.wav","","null","","","","","","","","","","","","","","","","","","","","","","","","","","","","","","","",""
"html-button-response","37","83404","0.0-4.0-1.0-1.5","3","0","sggdhf7c0wcu2zh","","588.9000000953674","","Was the sound coming from the left or the right?","0","","","1","INDUCTION-JUDGMENT","left","0","","","","","","","","","","","","","","","","","","","","","","","","","","",""
"html-keyboard-response","38","84411","0.0-4.0-1.0-2.5","3","0","sggdhf7c0wcu2zh","","null","","<p style=""color:#054d00;""><b>Correct!</b></p>","","null","","","","","","","","","","","","","","","","","","","","","","","","","","","","","","","",""
"audio-keyboard-response","39","85213","0.0-4.0-1.0-0.6","3","0","sggdhf7c0wcu2zh","","null","","sounds/induction/left_rev/ge_SWS.wav","","null","","","","","","","","","","","","","","","","","","","","","","","","","","","","","","","",""
"html-button-response","40","85859","0.0-4.0-1.0-1.6","3","0","sggdhf7c0wcu2zh","","643.7999999523163","","Was the sound coming from the left or the right?","0","","","1","INDUCTION-JUDGMENT","left","0","","","","","","","","","","","","","","","","","","","","","","","","","","",""
"html-keyboard-response","41","86861","0.0-4.0-1.0-2.6","3","0","sggdhf7c0wcu2zh","","null","","<p style=""color:#054d00;""><b>Correct!</b></p>","","null","","","","","","","","","","","","","","","","","","","","","","","","","","","","","","","",""
"audio-keyboard-response","42","87663","0.0-4.0-1.0-0.7","3","0","sggdhf7c0wcu2zh","","null","","sounds/induction/right_rev/re_SWS.wav","","null","","","","","","","","","","","","","","","","","","","","","","","","","","","","","","","",""
"html-button-response","43","88180","0.0-4.0-1.0-1.7","3","0","sggdhf7c0wcu2zh","","513.4000000953674","","Was the sound coming from the left or the right?","1","","","1","INDUCTION-JUDGMENT","right","1","","","","","","","","","","","","","","","","","","","","","","","","","","",""
"html-keyboard-response","44","89190","0.0-4.0-1.0-2.7","3","0","sggdhf7c0wcu2zh","","null","","<p style=""color:#054d00;""><b>Correct!</b></p>","","null","","","","","","","","","","","","","","","","","","","","","","","","","","","","","","","",""
"audio-keyboard-response","45","90004","0.0-4.0-1.0-0.8","3","0","sggdhf7c0wcu2zh","","null","","sounds/induction/left_rev/ti_SWS.wav","","null","","","","","","","","","","","","","","","","","","","","","","","","","","","","","","","",""
"html-button-response","46","90515","0.0-4.0-1.0-1.8","3","0","sggdhf7c0wcu2zh","","509.09999990463257","","Was the sound coming from the left or the right?","0","","","1","INDUCTION-JUDGMENT","left","0","","","","","","","","","","","","","","","","","","","","","","","","","","",""
"html-keyboard-response","47","91531","0.0-4.0-1.0-2.8","3","0","sggdhf7c0wcu2zh","","null","","<p style=""color:#054d00;""><b>Correct!</b></p>","","null","","","","","","","","","","","","","","","","","","","","","","","","","","","","","","","",""
"audio-keyboard-response","48","92333","0.0-4.0-1.0-0.9","3","0","sggdhf7c0wcu2zh","","null","","sounds/induction/right_rev/fu_SWS.wav","","null","","","","","","","","","","","","","","","","","","","","","","","","","","","","","","","",""
"html-button-response","49","92808","0.0-4.0-1.0-1.9","3","0","sggdhf7c0wcu2zh","","472.7999999523163","","Was the sound coming from the left or the right?","1","","","1","INDUCTION-JUDGMENT","right","1","","","","","","","","","","","","","","","","","","","","","","","","","","",""
"html-keyboard-response","50","93816","0.0-4.0-1.0-2.9","3","0","sggdhf7c0wcu2zh","","null","","<p style=""color:#054d00;""><b>Correct!</b></p>","","null","","","","","","","","","","","","","","","","","","","","","","","","","","","","","","","",""
"audio-keyboard-response","51","94614","0.0-4.0-1.0-0.10","3","0","sggdhf7c0wcu2zh","","null","","sounds/induction/right_rev/me_SWS.wav","","null","","","","","","","","","","","","","","","","","","","","","","","","","","","","","","","",""
"html-button-response","52","95063","0.0-4.0-1.0-1.10","3","0","sggdhf7c0wcu2zh","","446.5","","Was the sound coming from the left or the right?","1","","","1","INDUCTION-JUDGMENT","right","1","","","","","","","","","","","","","","","","","","","","","","","","","","",""
"html-keyboard-response","53","96071","0.0-4.0-1.0-2.10","3","0","sggdhf7c0wcu2zh","","null","","<p style=""color:#054d00;""><b>Correct!</b></p>","","null","","","","","","","","","","","","","","","","","","","","","","","","","","","","","","","",""
"audio-keyboard-response","54","96883","0.0-4.0-1.0-0.11","3","0","sggdhf7c0wcu2zh","","null","","sounds/induction/left_rev/su_SWS.wav","","null","","","","","","","","","","","","","","","","","","","","","","","","","","","","","","","",""
"html-button-response","55","97249","0.0-4.0-1.0-1.11","3","0","sggdhf7c0wcu2zh","","363","","Was the sound coming from the left or the right?","0","","","1","INDUCTION-JUDGMENT","left","0","","","","","","","","","","","","","","","","","","","","","","","","","","",""
"html-keyboard-response","56","98261","0.0-4.0-1.0-2.11","3","0","sggdhf7c0wcu2zh","","null","","<p style=""color:#054d00;""><b>Correct!</b></p>","","null","","","","","","","","","","","","","","","","","","","","","","","","","","","","","","","",""
"audio-keyboard-response","57","99064","0.0-4.0-1.0-0.12","3","0","sggdhf7c0wcu2zh","","null","","sounds/induction/right_rev/ru_SWS.wav","","null","","","","","","","","","","","","","","","","","","","","","","","","","","","","","","","",""
"html-button-response","58","99498","0.0-4.0-1.0-1.12","3","0","sggdhf7c0wcu2zh","","432.59999990463257","","Was the sound coming from the left or the right?","1","","","1","INDUCTION-JUDGMENT","right","1","","","","","","","","","","","","","","","","","","","","","","","","","","",""
"html-keyboard-response","59","100501","0.0-4.0-1.0-2.12","3","0","sggdhf7c0wcu2zh","","null","","<p style=""color:#054d00;""><b>Correct!</b></p>","","null","","","","","","","","","","","","","","","","","","","","","","","","","","","","","","","",""
"audio-keyboard-response","60","101304","0.0-4.0-1.0-0.13","3","0","sggdhf7c0wcu2zh","","null","","sounds/induction/left_rev/fu_SWS.wav","","null","","","","","","","","","","","","","","","","","","","","","","","","","","","","","","","",""
"html-button-response","61","101688","0.0-4.0-1.0-1.13","3","0","sggdhf7c0wcu2zh","","383.2000000476837","","Was the sound coming from the left or the right?","0","","","1","INDUCTION-JUDGMENT","left","0","","","","","","","","","","","","","","","","","","","","","","","","","","",""
"html-keyboard-response","62","102691","0.0-4.0-1.0-2.13","3","0","sggdhf7c0wcu2zh","","null","","<p style=""color:#054d00;""><b>Correct!</b></p>","","null","","","","","","","","","","","","","","","","","","","","","","","","","","","","","","","",""
"audio-keyboard-response","63","103495","0.0-4.0-1.0-0.14","3","0","sggdhf7c0wcu2zh","","null","","sounds/induction/left_rev/su_SWS.wav","","null","","","","","","","","","","","","","","","","","","","","","","","","","","","","","","","",""
"html-button-response","64","103999","0.0-4.0-1.0-1.14","3","0","sggdhf7c0wcu2zh","","502.10000014305115","","Was the sound coming from the left or the right?","0","","","1","INDUCTION-JUDGMENT","left","0","","","","","","","","","","","","","","","","","","","","","","","","","","",""
"html-keyboard-response","65","105001","0.0-4.0-1.0-2.14","3","0","sggdhf7c0wcu2zh","","null","","<p style=""color:#054d00;""><b>Correct!</b></p>","","null","","","","","","","","","","","","","","","","","","","","","","","","","","","","","","","",""
"audio-keyboard-response","66","105803","0.0-4.0-1.0-0.15","3","0","sggdhf7c0wcu2zh","","null","","sounds/induction/left_rev/fe_SWS.wav","","null","","","","","","","","","","","","","","","","","","","","","","","","","","","","","","","",""
"html-button-response","67","106226","0.0-4.0-1.0-1.15","3","0","sggdhf7c0wcu2zh","","420.5","","Was the sound coming from the left or the right?","0","","","1","INDUCTION-JUDGMENT","left","0","","","","","","","","","","","","","","","","","","","","","","","","","","",""
"html-keyboard-response","68","107234","0.0-4.0-1.0-2.15","3","0","sggdhf7c0wcu2zh","","null","","<p style=""color:#054d00;""><b>Correct!</b></p>","","null","","","","","","","","","","","","","","","","","","","","","","","","","","","","","","","",""
"audio-keyboard-response","69","108044","0.0-4.0-1.0-0.16","3","0","sggdhf7c0wcu2zh","","null","","sounds/induction/right_rev/me_SWS.wav","","null","","","","","","","","","","","","","","","","","","","","","","","","","","","","","","","",""
"html-button-response","70","108460","0.0-4.0-1.0-1.16","3","0","sggdhf7c0wcu2zh","","414.5","","Was the sound coming from the left or the right?","1","","","1","INDUCTION-JUDGMENT","right","1","","","","","","","","","","","","","","","","","","","","","","","","","","",""
"html-keyboard-response","71","109464","0.0-4.0-1.0-2.16","3","0","sggdhf7c0wcu2zh","","null","","<p style=""color:#054d00;""><b>Correct!</b></p>","","null","","","","","","","","","","","","","","","","","","","","","","","","","","","","","","","",""
"audio-keyboard-response","72","110264","0.0-4.0-1.0-0.17","3","0","sggdhf7c0wcu2zh","","null","","sounds/induction/right_rev/pu_SWS.wav","","null","","","","","","","","","","","","","","","","","","","","","","","","","","","","","","","",""
"html-button-response","73","110775","0.0-4.0-1.0-1.17","3","0","sggdhf7c0wcu2zh","","508.7999999523163","","Was the sound coming from the left or the right?","1","","","1","INDUCTION-JUDGMENT","right","1","","","","","","","","","","","","","","","","","","","","","","","","","","",""
"html-keyboard-response","74","111778","0.0-4.0-1.0-2.17","3","0","sggdhf7c0wcu2zh","","null","","<p style=""color:#054d00;""><b>Correct!</b></p>","","null","","","","","","","","","","","","","","","","","","","","","","","","","","","","","","","",""
"audio-keyboard-response","75","112573","0.0-4.0-1.0-0.18","3","0","sggdhf7c0wcu2zh","","null","","sounds/induction/right_rev/ru_SWS.wav","","null","","","","","","","","","","","","","","","","","","","","","","","","","","","","","","","",""
"html-button-response","76","113076","0.0-4.0-1.0-1.18","3","0","sggdhf7c0wcu2zh","","501.5","","Was the sound coming from the left or the right?","1","","","1","INDUCTION-JUDGMENT","right","1","","","","","","","","","","","","","","","","","","","","","","","","","","",""
"html-keyboard-response","77","114081","0.0-4.0-1.0-2.18","3","0","sggdhf7c0wcu2zh","","null","","<p style=""color:#054d00;""><b>Correct!</b></p>","","null","","","","","","","","","","","","","","","","","","","","","","","","","","","","","","","",""
"audio-keyboard-response","78","114893","0.0-4.0-1.0-0.19","3","0","sggdhf7c0wcu2zh","","null","","sounds/induction/right_rev/ko_SWS.wav","","null","","","","","","","","","","","","","","","","","","","","","","","","","","","","","","","",""
"html-button-response","79","115523","0.0-4.0-1.0-1.19","3","0","sggdhf7c0wcu2zh","","627.5999999046326","","Was the sound coming from the left or the right?","1","","","1","INDUCTION-JUDGMENT","right","1","","","","","","","","","","","","","","","","","","","","","","","","","","",""
"html-keyboard-response","80","116531","0.0-4.0-1.0-2.19","3","0","sggdhf7c0wcu2zh","","null","","<p style=""color:#054d00;""><b>Correct!</b></p>","","null","","","","","","","","","","","","","","","","","","","","","","","","","","","","","","","",""
"audio-keyboard-response","81","117344","0.0-4.0-1.0-0.20","3","0","sggdhf7c0wcu2zh","","null","","sounds/induction/left_rev/pu_SWS.wav","","null","","","","","","","","","","","","","","","","","","","","","","","","","","","","","","","",""
"html-button-response","82","117746","0.0-4.0-1.0-1.20","3","0","sggdhf7c0wcu2zh","","400.40000009536743","","Was the sound coming from the left or the right?","0","","","1","INDUCTION-JUDGMENT","left","0","","","","","","","","","","","","","","","","","","","","","","","","","","",""
"html-keyboard-response","83","118748","0.0-4.0-1.0-2.20","3","0","sggdhf7c0wcu2zh","","null","","<p style=""color:#054d00;""><b>Correct!</b></p>","","null","","","","","","","","","","","","","","","","","","","","","","","","","","","","","","","",""
"audio-keyboard-response","84","119564","0.0-4.0-1.0-0.21","3","0","sggdhf7c0wcu2zh","","null","","sounds/induction/left_rev/ni_SWS.wav","","null","","","","","","","","","","","","","","","","","","","","","","","","","","","","","","","",""
"html-button-response","85","119947","0.0-4.0-1.0-1.21","3","0","sggdhf7c0wcu2zh","","381.7000000476837","","Was the sound coming from the left or the right?","0","","","1","INDUCTION-JUDGMENT","left","0","","","","","","","","","","","","","","","","","","","","","","","","","","",""
"html-keyboard-response","86","120950","0.0-4.0-1.0-2.21","3","0","sggdhf7c0wcu2zh","","null","","<p style=""color:#054d00;""><b>Correct!</b></p>","","null","","","","","","","","","","","","","","","","","","","","","","","","","","","","","","","",""
"audio-keyboard-response","87","121744","0.0-4.0-1.0-0.22","3","0","sggdhf7c0wcu2zh","","null","","sounds/induction/left_rev/ge_SWS.wav","","null","","","","","","","","","","","","","","","","","","","","","","","","","","","","","","","",""
"html-button-response","88","122172","0.0-4.0-1.0-1.22","3","0","sggdhf7c0wcu2zh","","426.60000014305115","","Was the sound coming from the left or the right?","0","","","1","INDUCTION-JUDGMENT","left","0","","","","","","","","","","","","","","","","","","","","","","","","","","",""
"html-keyboard-response","89","123181","0.0-4.0-1.0-2.22","3","0","sggdhf7c0wcu2zh","","null","","<p style=""color:#054d00;""><b>Correct!</b></p>","","null","","","","","","","","","","","","","","","","","","","","","","","","","","","","","","","",""
"audio-keyboard-response","90","123984","0.0-4.0-1.0-0.23","3","0","sggdhf7c0wcu2zh","","null","","sounds/induction/right_rev/fe_SWS.wav","","null","","","","","","","","","","","","","","","","","","","","","","","","","","","","","","","",""
"html-button-response","91","124413","0.0-4.0-1.0-1.23","3","0","sggdhf7c0wcu2zh","","426.80000019073486","","Was the sound coming from the left or the right?","1","","","1","INDUCTION-JUDGMENT","right","1","","","","","","","","","","","","","","","","","","","","","","","","","","",""
"html-keyboard-response","92","125421","0.0-4.0-1.0-2.23","3","0","sggdhf7c0wcu2zh","","null","","<p style=""color:#054d00;""><b>Correct!</b></p>","","null","","","","","","","","","","","","","","","","","","","","","","","","","","","","","","","",""
"audio-keyboard-response","93","126224","0.0-4.0-1.0-0.24","3","0","sggdhf7c0wcu2zh","","null","","sounds/induction/right_rev/ni_SWS.wav","","null","","","","","","","","","","","","","","","","","","","","","","","","","","","","","","","",""
"html-button-response","94","126663","0.0-4.0-1.0-1.24","3","0","sggdhf7c0wcu2zh","","437.09999990463257","","Was the sound coming from the left or the right?","1","","","1","INDUCTION-JUDGMENT","right","1","","","","","","","","","","","","","","","","","","","","","","","","","","",""
"html-keyboard-response","95","127682","0.0-4.0-1.0-2.24","3","0","sggdhf7c0wcu2zh","","null","","<p style=""color:#054d00;""><b>Correct!</b></p>","","null","","","","","","","","","","","","","","","","","","","","","","","","","","","","","","","",""
"audio-keyboard-response","96","128493","0.0-4.0-1.0-0.25","3","0","sggdhf7c0wcu2zh","","null","","sounds/induction/right_rev/su_SWS.wav","","null","","","","","","","","","","","","","","","","","","","","","","","","","","","","","","","",""
"html-button-response","97","128908","0.0-4.0-1.0-1.25","3","0","sggdhf7c0wcu2zh","","412.7000000476837","","Was the sound coming from the left or the right?","1","","","1","INDUCTION-JUDGMENT","right","1","","","","","","","","","","","","","","","","","","","","","","","","","","",""
"html-keyboard-response","98","129915","0.0-4.0-1.0-2.25","3","0","sggdhf7c0wcu2zh","","null","","<p style=""color:#054d00;""><b>Correct!</b></p>","","null","","","","","","","","","","","","","","","","","","","","","","","","","","","","","","","",""
"audio-keyboard-response","99","130724","0.0-4.0-1.0-0.26","3","0","sggdhf7c0wcu2zh","","null","","sounds/induction/left_rev/re_SWS.wav","","null","","","","","","","","","","","","","","","","","","","","","","","","","","","","","","","",""
"html-button-response","100","131087","0.0-4.0-1.0-1.26","3","0","sggdhf7c0wcu2zh","","360.7000000476837","","Was the sound coming from the left or the right?","0","","","1","INDUCTION-JUDGMENT","left","0","","","","","","","","","","","","","","","","","","","","","","","","","","",""
"html-keyboard-response","101","132090","0.0-4.0-1.0-2.26","3","0","sggdhf7c0wcu2zh","","null","","<p style=""color:#054d00;""><b>Correct!</b></p>","","null","","","","","","","","","","","","","","","","","","","","","","","","","","","","","","","",""
"audio-keyboard-response","102","132893","0.0-4.0-1.0-0.27","3","0","sggdhf7c0wcu2zh","","null","","sounds/induction/right_rev/pu_SWS.wav","","null","","","","","","","","","","","","","","","","","","","","","","","","","","","","","","","",""
"html-button-response","103","133328","0.0-4.0-1.0-1.27","3","0","sggdhf7c0wcu2zh","","432.09999990463257","","Was the sound coming from the left or the right?","1","","","1","INDUCTION-JUDGMENT","right","1","","","","","","","","","","","","","","","","","","","","","","","","","","",""
"html-keyboard-response","104","134330","0.0-4.0-1.0-2.27","3","0","sggdhf7c0wcu2zh","","null","","<p style=""color:#054d00;""><b>Correct!</b></p>","","null","","","","","","","","","","","","","","","","","","","","","","","","","","","","","","","",""
"audio-keyboard-response","105","135133","0.0-4.0-1.0-0.28","3","0","sggdhf7c0wcu2zh","","null","","sounds/induction/left_rev/re_SWS.wav","","null","","","","","","","","","","","","","","","","","","","","","","","","","","","","","","","",""
"html-button-response","106","135547","0.0-4.0-1.0-1.28","3","0","sggdhf7c0wcu2zh","","412.10000014305115","","Was the sound coming from the left or the right?","0","","","1","INDUCTION-JUDGMENT","left","0","","","","","","","","","","","","","","","","","","","","","","","","","","",""
"html-keyboard-response","107","136550","0.0-4.0-1.0-2.28","3","0","sggdhf7c0wcu2zh","","null","","<p style=""color:#054d00;""><b>Correct!</b></p>","","null","","","","","","","","","","","","","","","","","","","","","","","","","","","","","","","",""
"audio-keyboard-response","108","137364","0.0-4.0-1.0-0.29","3","0","sggdhf7c0wcu2zh","","null","","sounds/induction/left_rev/me_SWS.wav","","null","","","","","","","","","","","","","","","","","","","","","","","","","","","","","","","",""
"html-button-response","109","137949","0.0-4.0-1.0-1.29","3","0","sggdhf7c0wcu2zh","","582.7000000476837","","Was the sound coming from the left or the right?","0","","","1","INDUCTION-JUDGMENT","left","0","","","","","","","","","","","","","","","","","","","","","","","","","","",""
"html-keyboard-response","110","138951","0.0-4.0-1.0-2.29","3","0","sggdhf7c0wcu2zh","","null","","<p style=""color:#054d00;""><b>Correct!</b></p>","","null","","","","","","","","","","","","","","","","","","","","","","","","","","","","","","","",""
"audio-keyboard-response","111","139763","0.0-4.0-1.0-0.30","3","0","sggdhf7c0wcu2zh","","null","","sounds/induction/right_rev/su_SWS.wav","","null","","","","","","","","","","","","","","","","","","","","","","","","","","","","","","","",""
"html-button-response","112","140688","0.0-4.0-1.0-1.30","3","0","sggdhf7c0wcu2zh","","922","","Was the sound coming from the left or the right?","1","","","1","INDUCTION-JUDGMENT","right","1","","","","","","","","","","","","","","","","","","","","","","","","","","",""
"html-keyboard-response","113","141691","0.0-4.0-1.0-2.30","3","0","sggdhf7c0wcu2zh","","null","","<p style=""color:#054d00;""><b>Correct!</b></p>","","null","","","","","","","","","","","","","","","","","","","","","","","","","","","","","","","",""
"audio-keyboard-response","114","142493","0.0-4.0-1.0-0.31","3","0","sggdhf7c0wcu2zh","","null","","sounds/induction/right_rev/ti_SWS.wav","","null","","","","","","","","","","","","","","","","","","","","","","","","","","","","","","","",""
"html-button-response","115","143009","0.0-4.0-1.0-1.31","3","0","sggdhf7c0wcu2zh","","513.5","","Was the sound coming from the left or the right?","1","","","1","INDUCTION-JUDGMENT","right","1","","","","","","","","","","","","","","","","","","","","","","","","","","",""
"html-keyboard-response","116","144021","0.0-4.0-1.0-2.31","3","0","sggdhf7c0wcu2zh","","null","","<p style=""color:#054d00;""><b>Correct!</b></p>","","null","","","","","","","","","","","","","","","","","","","","","","","","","","","","","","","",""
"audio-keyboard-response","117","144823","0.0-4.0-1.0-0.32","3","0","sggdhf7c0wcu2zh","","null","","sounds/induction/left_rev/pu_SWS.wav","","null","","","","","","","","","","","","","","","","","","","","","","","","","","","","","","","",""
"html-button-response","118","145265","0.0-4.0-1.0-1.32","3","0","sggdhf7c0wcu2zh","","439.7999999523163","","Was the sound coming from the left or the right?","0","","","1","INDUCTION-JUDGMENT","left","0","","","","","","","","","","","","","","","","","","","","","","","","","","",""
"html-keyboard-response","119","146268","0.0-4.0-1.0-2.32","3","0","sggdhf7c0wcu2zh","","null","","<p style=""color:#054d00;""><b>Correct!</b></p>","","null","","","","","","","","","","","","","","","","","","","","","","","","","","","","","","","",""
"audio-keyboard-response","120","147064","0.0-4.0-1.0-0.33","3","0","sggdhf7c0wcu2zh","","null","","sounds/induction/left_rev/fu_SWS.wav","","null","","","","","","","","","","","","","","","","","","","","","","","","","","","","","","","",""
"html-button-response","121","147613","0.0-4.0-1.0-1.33","3","0","sggdhf7c0wcu2zh","","546.2000000476837","","Was the sound coming from the left or the right?","0","","","1","INDUCTION-JUDGMENT","left","0","","","","","","","","","","","","","","","","","","","","","","","","","","",""
"html-keyboard-response","122","148621","0.0-4.0-1.0-2.33","3","0","sggdhf7c0wcu2zh","","null","","<p style=""color:#054d00;""><b>Correct!</b></p>","","null","","","","","","","","","","","","","","","","","","","","","","","","","","","","","","","",""
"audio-keyboard-response","123","149444","0.0-4.0-1.0-0.34","3","0","sggdhf7c0wcu2zh","","null","","sounds/induction/right_rev/fe_SWS.wav","","null","","","","","","","","","","","","","","","","","","","","","","","","","","","","","","","",""
"html-button-response","124","149956","0.0-4.0-1.0-1.34","3","0","sggdhf7c0wcu2zh","","509.89999985694885","","Was the sound coming from the left or the right?","1","","","1","INDUCTION-JUDGMENT","right","1","","","","","","","","","","","","","","","","","","","","","","","","","","",""
"html-keyboard-response","125","150964","0.0-4.0-1.0-2.34","3","0","sggdhf7c0wcu2zh","","null","","<p style=""color:#054d00;""><b>Correct!</b></p>","","null","","","","","","","","","","","","","","","","","","","","","","","","","","","","","","","",""
"audio-keyboard-response","126","151773","0.0-4.0-1.0-0.35","3","0","sggdhf7c0wcu2zh","","null","","sounds/induction/left_rev/ta_SWS.wav","","null","","","","","","","","","","","","","","","","","","","","","","","","","","","","","","","",""
"html-button-response","127","152183","0.0-4.0-1.0-1.35","3","0","sggdhf7c0wcu2zh","","407.7000000476837","","Was the sound coming from the left or the right?","0","","","1","INDUCTION-JUDGMENT","left","0","","","","","","","","","","","","","","","","","","","","","","","","","","",""
"html-keyboard-response","128","153189","0.0-4.0-1.0-2.35","3","0","sggdhf7c0wcu2zh","","null","","<p style=""color:#054d00;""><b>Correct!</b></p>","","null","","","","","","","","","","","","","","","","","","","","","","","","","","","","","","","",""
"audio-keyboard-response","129","154003","0.0-4.0-1.0-0.36","3","0","sggdhf7c0wcu2zh","","null","","sounds/induction/left_rev/ko_SWS.wav","","null","","","","","","","","","","","","","","","","","","","","","","","","","","","","","","","",""
"html-button-response","130","154415","0.0-4.0-1.0-1.36","3","0","sggdhf7c0wcu2zh","","409.30000019073486","","Was the sound coming from the left or the right?","0","","","1","INDUCTION-JUDGMENT","left","0","","","","","","","","","","","","","","","","","","","","","","","","","","",""
"html-keyboard-response","131","155421","0.0-4.0-1.0-2.36","3","0","sggdhf7c0wcu2zh","","null","","<p style=""color:#054d00;""><b>Correct!</b></p>","","null","","","","","","","","","","","","","","","","","","","","","","","","","","","","","","","",""
"audio-keyboard-response","132","156224","0.0-4.0-1.0-0.37","3","0","sggdhf7c0wcu2zh","","null","","sounds/induction/left_rev/me_SWS.wav","","null","","","","","","","","","","","","","","","","","","","","","","","","","","","","","","","",""
"html-button-response","133","156624","0.0-4.0-1.0-1.37","3","0","sggdhf7c0wcu2zh","","398.2999999523163","","Was the sound coming from the left or the right?","0","","","1","INDUCTION-JUDGMENT","left","0","","","","","","","","","","","","","","","","","","","","","","","","","","",""
"html-keyboard-response","134","157631","0.0-4.0-1.0-2.37","3","0","sggdhf7c0wcu2zh","","null","","<p style=""color:#054d00;""><b>Correct!</b></p>","","null","","","","","","","","","","","","","","","","","","","","","","","","","","","","","","","",""
"audio-keyboard-response","135","158444","0.0-4.0-1.0-0.38","3","0","sggdhf7c0wcu2zh","","null","","sounds/induction/left_rev/ni_SWS.wav","","null","","","","","","","","","","","","","","","","","","","","","","","","","","","","","","","",""
"html-button-response","136","158838","0.0-4.0-1.0-1.38","3","0","sggdhf7c0wcu2zh","","391.09999990463257","","Was the sound coming from the left or the right?","0","","","1","INDUCTION-JUDGMENT","left","0","","","","","","","","","","","","","","","","","","","","","","","","","","",""
"html-keyboard-response","137","159843","0.0-4.0-1.0-2.38","3","0","sggdhf7c0wcu2zh","","null","","<p style=""color:#054d00;""><b>Correct!</b></p>","","null","","","","","","","","","","","","","","","","","","","","","","","","","","","","","","","",""
"audio-keyboard-response","138","160653","0.0-4.0-1.0-0.39","3","0","sggdhf7c0wcu2zh","","null","","sounds/induction/left_rev/fe_SWS.wav","","null","","","","","","","","","","","","","","","","","","","","","","","","","","","","","","","",""
"html-button-response","139","161032","0.0-4.0-1.0-1.39","3","0","sggdhf7c0wcu2zh","","377.40000009536743","","Was the sound coming from the left or the right?","0","","","1","INDUCTION-JUDGMENT","left","0","","","","","","","","","","","","","","","","","","","","","","","","","","",""
"html-keyboard-response","140","162035","0.0-4.0-1.0-2.39","3","0","sggdhf7c0wcu2zh","","null","","<p style=""color:#054d00;""><b>Correct!</b></p>","","null","","","","","","","","","","","","","","","","","","","","","","","","","","","","","","","",""
"audio-keyboard-response","141","162844","0.0-4.0-1.0-0.40","3","0","sggdhf7c0wcu2zh","","null","","sounds/induction/right_rev/ge_SWS.wav","","null","","","","","","","","","","","","","","","","","","","","","","","","","","","","","","","",""
"html-button-response","142","163343","0.0-4.0-1.0-1.40","3","0","sggdhf7c0wcu2zh","","496","","Was the sound coming from the left or the right?","1","","","1","INDUCTION-JUDGMENT","right","1","","","","","","","","","","","","","","","","","","","","","","","","","","",""
"html-keyboard-response","143","164347","0.0-4.0-1.0-2.40","3","0","sggdhf7c0wcu2zh","","null","","<p style=""color:#054d00;""><b>Correct!</b></p>","","null","","","","","","","","","","","","","","","","","","","","","","","","","","","","","","","",""
"audio-keyboard-response","144","165145","0.0-4.0-1.0-0.41","3","0","sggdhf7c0wcu2zh","","null","","sounds/induction/right_rev/fu_SWS.wav","","null","","","","","","","","","","","","","","","","","","","","","","","","","","","","","","","",""
"html-button-response","145","165628","0.0-4.0-1.0-1.41","3","0","sggdhf7c0wcu2zh","","480.7999999523163","","Was the sound coming from the left or the right?","1","","","1","INDUCTION-JUDGMENT","right","1","","","","","","","","","","","","","","","","","","","","","","","","","","",""
"html-keyboard-response","146","166632","0.0-4.0-1.0-2.41","3","0","sggdhf7c0wcu2zh","","null","","<p style=""color:#054d00;""><b>Correct!</b></p>","","null","","","","","","","","","","","","","","","","","","","","","","","","","","","","","","","",""
"audio-keyboard-response","147","167444","0.0-4.0-1.0-0.42","3","0","sggdhf7c0wcu2zh","","null","","sounds/induction/right_rev/ti_SWS.wav","","null","","","","","","","","","","","","","","","","","","","","","","","","","","","","","","","",""
"html-button-response","148","167830","0.0-4.0-1.0-1.42","3","0","sggdhf7c0wcu2zh","","383.7999999523163","","Was the sound coming from the left or the right?","1","","","1","INDUCTION-JUDGMENT","right","1","","","","","","","","","","","","","","","","","","","","","","","","","","",""
"html-keyboard-response","149","168839","0.0-4.0-1.0-2.42","3","0","sggdhf7c0wcu2zh","","null","","<p style=""color:#054d00;""><b>Correct!</b></p>","","null","","","","","","","","","","","","","","","","","","","","","","","","","","","","","","","",""
"audio-keyboard-response","150","169644","0.0-4.0-1.0-0.43","3","0","sggdhf7c0wcu2zh","","null","","sounds/induction/right_rev/ge_SWS.wav","","null","","","","","","","","","","","","","","","","","","","","","","","","","","","","","","","",""
"html-button-response","151","169954","0.0-4.0-1.0-1.43","3","0","sggdhf7c0wcu2zh","","307.2000000476837","","Was the sound coming from the left or the right?","1","","","1","INDUCTION-JUDGMENT","right","1","","","","","","","","","","","","","","","","","","","","","","","","","","",""
"html-keyboard-response","152","170961","0.0-4.0-1.0-2.43","3","0","sggdhf7c0wcu2zh","","null","","<p style=""color:#054d00;""><b>Correct!</b></p>","","null","","","","","","","","","","","","","","","","","","","","","","","","","","","","","","","",""
"audio-keyboard-response","153","171773","0.0-4.0-1.0-0.44","3","0","sggdhf7c0wcu2zh","","null","","sounds/induction/right_rev/ta_SWS.wav","","null","","","","","","","","","","","","","","","","","","","","","","","","","","","","","","","",""
"html-button-response","154","172167","0.0-4.0-1.0-1.44","3","0","sggdhf7c0wcu2zh","","391.7000000476837","","Was the sound coming from the left or the right?","1","","","1","INDUCTION-JUDGMENT","right","1","","","","","","","","","","","","","","","","","","","","","","","","","","",""
"html-keyboard-response","155","173172","0.0-4.0-1.0-2.44","3","0","sggdhf7c0wcu2zh","","null","","<p style=""color:#054d00;""><b>Correct!</b></p>","","null","","","","","","","","","","","","","","","","","","","","","","","","","","","","","","","",""
"audio-keyboard-response","156","173974","0.0-4.0-1.0-0.45","3","0","sggdhf7c0wcu2zh","","null","","sounds/induction/right_rev/ko_SWS.wav","","null","","","","","","","","","","","","","","","","","","","","","","","","","","","","","","","",""
"html-button-response","157","174374","0.0-4.0-1.0-1.45","3","0","sggdhf7c0wcu2zh","","396.89999985694885","","Was the sound coming from the left or the right?","1","","","1","INDUCTION-JUDGMENT","right","1","","","","","","","","","","","","","","","","","","","","","","","","","","",""
"html-keyboard-response","158","175391","0.0-4.0-1.0-2.45","3","0","sggdhf7c0wcu2zh","","null","","<p style=""color:#054d00;""><b>Correct!</b></p>","","null","","","","","","","","","","","","","","","","","","","","","","","","","","","","","","","",""
"audio-keyboard-response","159","176204","0.0-4.0-1.0-0.46","3","0","sggdhf7c0wcu2zh","","null","","sounds/induction/left_rev/ti_SWS.wav","","null","","","","","","","","","","","","","","","","","","","","","","","","","","","","","","","",""
"html-button-response","160","176559","0.0-4.0-1.0-1.46","3","0","sggdhf7c0wcu2zh","","352.10000014305115","","Was the sound coming from the left or the right?","0","","","1","INDUCTION-JUDGMENT","left","0","","","","","","","","","","","","","","","","","","","","","","","","","","",""
"html-keyboard-response","161","177572","0.0-4.0-1.0-2.46","3","0","sggdhf7c0wcu2zh","","null","","<p style=""color:#054d00;""><b>Correct!</b></p>","","null","","","","","","","","","","","","","","","","","","","","","","","","","","","","","","","",""
"audio-keyboard-response","162","178375","0.0-4.0-1.0-0.47","3","0","sggdhf7c0wcu2zh","","null","","sounds/induction/right_rev/re_SWS.wav","","null","","","","","","","","","","","","","","","","","","","","","","","","","","","","","","","",""
"html-button-response","163","178853","0.0-4.0-1.0-1.47","3","0","sggdhf7c0wcu2zh","","475.89999985694885","","Was the sound coming from the left or the right?","1","","","1","INDUCTION-JUDGMENT","right","1","","","","","","","","","","","","","","","","","","","","","","","","","","",""
"html-keyboard-response","164","179860","0.0-4.0-1.0-2.47","3","0","sggdhf7c0wcu2zh","","null","","<p style=""color:#054d00;""><b>Correct!</b></p>","","null","","","","","","","","","","","","","","","","","","","","","","","","","","","","","","","",""
"html-button-response","165","193079","0.0-5.0-0.0","3","0","sggdhf7c0wcu2zh","","12712.400000095367","","<p>Thank you for your answers.</p><p>You will now listen to similar sounds. The main difference is that the sounds will be longer.</p><p>Just as before, you will be asked to judge whether the sound was coming from the left or the right.</p><p>There are 10 of these longer sounds in total.","0","","","","","","","","","","","","","","","","","","","","","","","","","","","","","","","","",""
"audio-keyboard-response","166","195813","0.0-5.0-1.0-0.0","3","0","sggdhf7c0wcu2zh","","null","","sounds/sentences/right_rev/14_09_cfSWS.wav","","null","","","","","","","","","","","","","","","","","","","","","","","","","","","","","","","",""
"html-button-response","167","196808","0.0-5.0-1.0-1.0","3","0","sggdhf7c0wcu2zh","","993.7000000476837","","Was the sound coming from the left or the right?","1","","","1","INDUCTION-JUDGMENT","right","1","","","","","","","","","","","","","","","","","","","","","","","","","","",""
"html-keyboard-response","168","197831","0.0-5.0-1.0-2.0","3","0","sggdhf7c0wcu2zh","","null","","<p style=""color:#054d00;""><b>Correct!</b></p>","","null","","","","","","","","","","","","","","","","","","","","","","","","","","","","","","","",""
"html-button-response","169","199898","0.0-5.0-1.0-3.0","3","0","sggdhf7c0wcu2zh","","1550.2000000476837","","<p>Press the button below when you are ready to continue.</p>","0","","","","","","","","","","","","","","","","","","","","","","","","","","","","","","","","",""
"audio-keyboard-response","170","202714","0.0-5.0-1.0-0.1","3","0","sggdhf7c0wcu2zh","","null","","sounds/sentences/left_rev/14_02_cfSWS.wav","","null","","","","","","","","","","","","","","","","","","","","","","","","","","","","","","","",""
"html-button-response","171","203306","0.0-5.0-1.0-1.1","3","0","sggdhf7c0wcu2zh","","589.5999999046326","","Was the sound coming from the left or the right?","0","","","1","INDUCTION-JUDGMENT","left","0","","","","","","","","","","","","","","","","","","","","","","","","","","",""
"html-keyboard-response","172","204311","0.0-5.0-1.0-2.1","3","0","sggdhf7c0wcu2zh","","null","","<p style=""color:#054d00;""><b>Correct!</b></p>","","null","","","","","","","","","","","","","","","","","","","","","","","","","","","","","","","",""
"html-button-response","173","205806","0.0-5.0-1.0-3.1","3","0","sggdhf7c0wcu2zh","","983.3999998569489","","<p>Press the button below when you are ready to continue.</p>","0","","","","","","","","","","","","","","","","","","","","","","","","","","","","","","","","",""
"audio-keyboard-response","174","208365","0.0-5.0-1.0-0.2","3","0","sggdhf7c0wcu2zh","","null","","sounds/sentences/left_rev/14_04_cfSWS.wav","","null","","","","","","","","","","","","","","","","","","","","","","","","","","","","","","","",""
"html-button-response","175","209032","0.0-5.0-1.0-1.2","3","0","sggdhf7c0wcu2zh","","665.5","","Was the sound coming from the left or the right?","0","","","1","INDUCTION-JUDGMENT","left","0","","","","","","","","","","","","","","","","","","","","","","","","","","",""
"html-keyboard-response","176","210036","0.0-5.0-1.0-2.2","3","0","sggdhf7c0wcu2zh","","null","","<p style=""color:#054d00;""><b>Correct!</b></p>","","null","","","","","","","","","","","","","","","","","","","","","","","","","","","","","","","",""
"html-button-response","177","211500","0.0-5.0-1.0-3.2","3","0","sggdhf7c0wcu2zh","","957","","<p>Press the button below when you are ready to continue.</p>","0","","","","","","","","","","","","","","","","","","","","","","","","","","","","","","","","",""
"audio-keyboard-response","178","214264","0.0-5.0-1.0-0.3","3","0","sggdhf7c0wcu2zh","","null","","sounds/sentences/right_rev/14_08_cfSWS.wav","","null","","","","","","","","","","","","","","","","","","","","","","","","","","","","","","","",""
"html-button-response","179","218188","0.0-5.0-1.0-1.3","3","0","sggdhf7c0wcu2zh","","3921","","Was the sound coming from the left or the right?","1","","","1","INDUCTION-JUDGMENT","right","1","","","","","","","","","","","","","","","","","","","","","","","","","","",""
"html-keyboard-response","180","219192","0.0-5.0-1.0-2.3","3","0","sggdhf7c0wcu2zh","","null","","<p style=""color:#054d00;""><b>Correct!</b></p>","","null","","","","","","","","","","","","","","","","","","","","","","","","","","","","","","","",""
"html-button-response","181","220722","0.0-5.0-1.0-3.3","3","0","sggdhf7c0wcu2zh","","1019.2000000476837","","<p>Press the button below when you are ready to continue.</p>","0","","","","","","","","","","","","","","","","","","","","","","","","","","","","","","","","",""
"audio-keyboard-response","182","223314","0.0-5.0-1.0-0.4","3","0","sggdhf7c0wcu2zh","","null","","sounds/sentences/left_rev/14_03_cfSWS.wav","","null","","","","","","","","","","","","","","","","","","","","","","","","","","","","","","","",""
"html-button-response","183","223815","0.0-5.0-1.0-1.4","3","0","sggdhf7c0wcu2zh","","498.5","","Was the sound coming from the left or the right?","1","","","0","INDUCTION-JUDGMENT","left","0","","","","","","","","","","","","","","","","","","","","","","","","","","",""
"html-keyboard-response","184","224822","0.0-5.0-1.0-2.4","3","0","sggdhf7c0wcu2zh","","null","","<p style=""color:#690000;""><b>Incorrect!</b></p>","","null","","","","","","","","","","","","","","","","","","","","","","","","","","","","","","","",""
"html-button-response","185","226323","0.0-5.0-1.0-3.4","3","0","sggdhf7c0wcu2zh","","990.2000000476837","","<p>Press the button below when you are ready to continue.</p>","0","","","","","","","","","","","","","","","","","","","","","","","","","","","","","","","","",""
"audio-keyboard-response","186","229213","0.0-5.0-1.0-0.5","3","0","sggdhf7c0wcu2zh","","null","","sounds/sentences/right_rev/14_07_cfSWS.wav","","null","","","","","","","","","","","","","","","","","","","","","","","","","","","","","","","",""
"html-button-response","187","230126","0.0-5.0-1.0-1.5","3","0","sggdhf7c0wcu2zh","","910.6000001430511","","Was the sound coming from the left or the right?","1","","","1","INDUCTION-JUDGMENT","right","1","","","","","","","","","","","","","","","","","","","","","","","","","","",""
"html-keyboard-response","188","231132","0.0-5.0-1.0-2.5","3","0","sggdhf7c0wcu2zh","","null","","<p style=""color:#054d00;""><b>Correct!</b></p>","","null","","","","","","","","","","","","","","","","","","","","","","","","","","","","","","","",""
"html-button-response","189","232562","0.0-5.0-1.0-3.5","3","0","sggdhf7c0wcu2zh","","917.2999999523163","","<p>Press the button below when you are ready to continue.</p>","0","","","","","","","","","","","","","","","","","","","","","","","","","","","","","","","","",""
"audio-keyboard-response","190","235546","0.0-5.0-1.0-0.6","3","0","sggdhf7c0wcu2zh","","null","","sounds/sentences/left_rev/14_05_cfSWS.wav","","null","","","","","","","","","","","","","","","","","","","","","","","","","","","","","","","",""
"html-button-response","191","236364","0.0-5.0-1.0-1.6","3","0","sggdhf7c0wcu2zh","","815.9000000953674","","Was the sound coming from the left or the right?","0","","","1","INDUCTION-JUDGMENT","left","0","","","","","","","","","","","","","","","","","","","","","","","","","","",""
"html-keyboard-response","192","237371","0.0-5.0-1.0-2.6","3","0","sggdhf7c0wcu2zh","","null","","<p style=""color:#054d00;""><b>Correct!</b></p>","","null","","","","","","","","","","","","","","","","","","","","","","","","","","","","","","","",""
"html-button-response","193","238860","0.0-5.0-1.0-3.6","3","0","sggdhf7c0wcu2zh","","978.2999999523163","","<p>Press the button below when you are ready to continue.</p>","0","","","","","","","","","","","","","","","","","","","","","","","","","","","","","","","","",""
"audio-keyboard-response","194","241873","0.0-5.0-1.0-0.7","3","0","sggdhf7c0wcu2zh","","null","","sounds/sentences/right_rev/14_10_cfSWS.wav","","null","","","","","","","","","","","","","","","","","","","","","","","","","","","","","","","",""
"html-button-response","195","242450","0.0-5.0-1.0-1.7","3","0","sggdhf7c0wcu2zh","","574.4000000953674","","Was the sound coming from the left or the right?","1","","","1","INDUCTION-JUDGMENT","right","1","","","","","","","","","","","","","","","","","","","","","","","","","","",""
"html-keyboard-response","196","243461","0.0-5.0-1.0-2.7","3","0","sggdhf7c0wcu2zh","","null","","<p style=""color:#054d00;""><b>Correct!</b></p>","","null","","","","","","","","","","","","","","","","","","","","","","","","","","","","","","","",""
"html-button-response","197","244862","0.0-5.0-1.0-3.7","3","0","sggdhf7c0wcu2zh","","889.1999998092651","","<p>Press the button below when you are ready to continue.</p>","0","","","","","","","","","","","","","","","","","","","","","","","","","","","","","","","","",""
"audio-keyboard-response","198","247613","0.0-5.0-1.0-0.8","3","0","sggdhf7c0wcu2zh","","null","","sounds/sentences/right_rev/14_06_cfSWS.wav","","null","","","","","","","","","","","","","","","","","","","","","","","","","","","","","","","",""
"html-button-response","199","248409","0.0-5.0-1.0-1.8","3","0","sggdhf7c0wcu2zh","","793.2999999523163","","Was the sound coming from the left or the right?","1","","","1","INDUCTION-JUDGMENT","right","1","","","","","","","","","","","","","","","","","","","","","","","","","","",""
"html-keyboard-response","200","249412","0.0-5.0-1.0-2.8","3","0","sggdhf7c0wcu2zh","","null","","<p style=""color:#054d00;""><b>Correct!</b></p>","","null","","","","","","","","","","","","","","","","","","","","","","","","","","","","","","","",""
"html-button-response","201","251247","0.0-5.0-1.0-3.8","3","0","sggdhf7c0wcu2zh","","1324.8000001907349","","<p>Press the button below when you are ready to continue.</p>","0","","","","","","","","","","","","","","","","","","","","","","","","","","","","","","","","",""
"audio-keyboard-response","202","254363","0.0-5.0-1.0-0.9","3","0","sggdhf7c0wcu2zh","","null","","sounds/sentences/left_rev/14_01_cfSWS.wav","","null","","","","","","","","","","","","","","","","","","","","","","","","","","","","","","","",""
"html-button-response","203","255176","0.0-5.0-1.0-1.9","3","0","sggdhf7c0wcu2zh","","808.7999999523163","","Was the sound coming from the left or the right?","0","","","1","INDUCTION-JUDGMENT","left","0","","","","","","","","","","","","","","","","","","","","","","","","","","",""
"html-keyboard-response","204","256191","0.0-5.0-1.0-2.9","3","0","sggdhf7c0wcu2zh","","null","","<p style=""color:#054d00;""><b>Correct!</b></p>","","null","","","","","","","","","","","","","","","","","","","","","","","","","","","","","","","",""
"html-button-response","205","257507","0.0-5.0-1.0-3.9","3","0","sggdhf7c0wcu2zh","","803.9000000953674","","<p>Press the button below when you are ready to continue.</p>","0","","","","","","","","","","","","","","","","","","","","","","","","","","","","","","","","",""
"html-keyboard-response","206","264808","0.0-6.0-0.0","3","0","sggdhf7c0wcu2zh","","6792.600000143051","","<p>In this part of the study, you will hear sounds similar to those you just heard.</p><p>Please focus on these sounds, as you may be asked questions about them later.</p><p>Occasionally, the sounds will pause for up to two seconds. When this happens, please press SPACEBAR as quickly as you can.</br>This helps ensure that you are paying attention to the sounds.</p><p>This part of the study will take about 12 minutes to complete, and you will be given the opportunity to take a couple of short breaks every few minutes.</p><p><strong>Press SPACEBAR to begin</strong></p>","","32","","","","","","","","","","","","","","","","","","","","","","","","","","","","","","","",""
"html-keyboard-response","207","265821","0.0-6.0-1.0-0.0","3","0","sggdhf7c0wcu2zh","","null","","<p style=""font-size: 40px;"">+</p>","","null","","","","","","","","","","","","","","","","","","","","","","","","","","","","","","","",""
"html-keyboard-response","208","450832","0.0-6.0-1.0-1.0","3","0","sggdhf7c0wcu2zh","","null","","","","null","","","SL-TRAIN","","","0","886.1999998092651","1608.0999999046326","sounds/C/TRAIN/SEQ__06.mp3","2","","","","","","","","","","","","","","","","","","","","","",""
"html-button-response","209","452466","0.0-6.0-1.0-2.0","3","0","sggdhf7c0wcu2zh","","1630.9000000953674","","<p>You may take a short break if you wish.</p>","0","","","","","","","","","","","","","","","","","","","","","","","","","","","","","","","","",""
"html-keyboard-response","210","453469","0.0-6.0-1.0-3.0","3","0","sggdhf7c0wcu2zh","","null","","<p style=""font-size: 40px;"">+</p>","","null","","","","","","","","","","","","","","","","","","","","","","","","","","","","","","","",""
"html-keyboard-response","211","638474","0.0-6.0-1.0-4.0","3","0","sggdhf7c0wcu2zh","","null","","","","null","","","SL-TRAIN","","","0","1306.5999999046326","1078.0999999046326","sounds/C/TRAIN/SEQ__09.mp3","4","","","","","","","","","","","","","","","","","","","","","",""
"html-button-response","212","640115","0.0-6.0-1.0-5.0","3","0","sggdhf7c0wcu2zh","","1638.7000000476837","","<p>You may take a short break if you wish.</p>","0","","","","","","","","","","","","","","","","","","","","","","","","","","","","","","","","",""
"html-keyboard-response","213","641117","0.0-6.0-1.0-6.0","3","0","sggdhf7c0wcu2zh","","null","","<p style=""font-size: 40px;"">+</p>","","null","","","","","","","","","","","","","","","","","","","","","","","","","","","","","","","",""
"html-keyboard-response","214","826126","0.0-6.0-1.0-7.0","3","0","sggdhf7c0wcu2zh","","null","","","","null","","","SL-TRAIN","","","0","1609.5","1879.7000000476837","sounds/C/TRAIN/SEQ__07.mp3","6","","","","","","","","","","","","","","","","","","","","","",""
"html-button-response","215","827557","0.0-6.0-1.0-8.0","3","0","sggdhf7c0wcu2zh","","1429.7000000476837","","<p>You may take a short break if you wish.</p>","0","","","","","","","","","","","","","","","","","","","","","","","","","","","","","","","","",""
"html-keyboard-response","216","828559","0.0-6.0-1.0-9.0","3","0","sggdhf7c0wcu2zh","","null","","<p style=""font-size: 40px;"">+</p>","","null","","","","","","","","","","","","","","","","","","","","","","","","","","","","","","","",""
"html-keyboard-response","217","1013561","0.0-6.0-1.0-10.0","3","0","sggdhf7c0wcu2zh","","null","","","","null","","","SL-TRAIN","","","0","1674.7000000476837","1506.3000001907349","sounds/C/TRAIN/SEQ__12.mp3","8","","","","","","","","","","","","","","","","","","","","","",""
"html-button-response","218","1015137","0.0-6.0-1.0-11.0","3","0","sggdhf7c0wcu2zh","","1573.7000000476837","","<p>You may take a short break if you wish.</p>","0","","","","","","","","","","","","","","","","","","","","","","","","","","","","","","","","",""
"html-button-response","219","1018661","0.0-7.0-0.0","3","0","sggdhf7c0wcu2zh","","3522.4000000953674","","<p>Welcome to the second part of the study. This is a <u>familiarity task</u>.</p><p>You will now hear short sounds and will be asked to rate how familiar they sound to you <b>based on what you heard in the previous part of the study</b>.</p><p>You will rate 12 sounds in total.</p>","0","","","","","","","","","","","","","","","","","","","","","","","","","","","","","","","","",""
"html-keyboard-response","220","1019663","0.0-7.0-1.0-0.0","3","0","sggdhf7c0wcu2zh","","null","","","","null","","","","","","","","","","","","","","","","","","","","","","","","","","","","","","","",""
"audio-keyboard-response","221","1020625","0.0-7.0-1.0-1.0","3","0","sggdhf7c0wcu2zh","","null","","sounds/C/FAM/W004.mp3","","null","","","","","","","","","","","","","","","","","","","","","","","","","","","","","","","",""
"html-keyboard-response","222","1021532","0.0-7.0-1.0-2.0","3","0","sggdhf7c0wcu2zh","","396.59999990463257","","<p>How familiar did this sound to you?</p><p>1&nbsp;&nbsp;&nbsp;&nbsp;&nbsp;&nbsp;&nbsp;&nbsp;&nbsp;&nbsp;&nbsp;&nbsp;&nbsp;&nbsp;&nbsp;&nbsp;&nbsp;&nbsp;&nbsp;2&nbsp;&nbsp;&nbsp;&nbsp;&nbsp;&nbsp;&nbsp;&nbsp;&nbsp;&nbsp;&nbsp;&nbsp;&nbsp;&nbsp;&nbsp;&nbsp;&nbsp;&nbsp;&nbsp;3&nbsp;&nbsp;&nbsp;&nbsp;&nbsp;&nbsp;&nbsp;&nbsp;&nbsp;&nbsp;&nbsp;&nbsp;&nbsp;&nbsp;&nbsp;&nbsp;&nbsp;&nbsp;&nbsp;4</p><p style=""font-size:14px"">Not at all familiar&nbsp;&nbsp;&nbsp;&nbsp;A little familiar&nbsp;&nbsp;&nbsp;Moderately familiar&nbsp;&nbsp;&nbsp;Extremely familiar</p><p>(press the corresponding number on your keyboard)</p>","","52","","","FAM-RESPONSE","","","","","","","","sounds/C/FAM/W004.mp3","word","","","","","","","","","","","","","","","","","","","",""
"html-keyboard-response","223","1023542","0.0-7.0-1.0-0.1","3","0","sggdhf7c0wcu2zh","","null","","","","null","","","","","","","","","","","","","","","","","","","","","","","","","","","","","","","",""
"audio-keyboard-response","224","1024475","0.0-7.0-1.0-1.1","3","0","sggdhf7c0wcu2zh","","null","","sounds/C/FAM/P004.mp3","","null","","","","","","","","","","","","","","","","","","","","","","","","","","","","","","","",""
"html-keyboard-response","225","1025297","0.0-7.0-1.0-2.1","3","0","sggdhf7c0wcu2zh","","318.2000000476837","","<p>How familiar did this sound to you?</p><p>1&nbsp;&nbsp;&nbsp;&nbsp;&nbsp;&nbsp;&nbsp;&nbsp;&nbsp;&nbsp;&nbsp;&nbsp;&nbsp;&nbsp;&nbsp;&nbsp;&nbsp;&nbsp;&nbsp;2&nbsp;&nbsp;&nbsp;&nbsp;&nbsp;&nbsp;&nbsp;&nbsp;&nbsp;&nbsp;&nbsp;&nbsp;&nbsp;&nbsp;&nbsp;&nbsp;&nbsp;&nbsp;&nbsp;3&nbsp;&nbsp;&nbsp;&nbsp;&nbsp;&nbsp;&nbsp;&nbsp;&nbsp;&nbsp;&nbsp;&nbsp;&nbsp;&nbsp;&nbsp;&nbsp;&nbsp;&nbsp;&nbsp;4</p><p style=""font-size:14px"">Not at all familiar&nbsp;&nbsp;&nbsp;&nbsp;A little familiar&nbsp;&nbsp;&nbsp;Moderately familiar&nbsp;&nbsp;&nbsp;Extremely familiar</p><p>(press the corresponding number on your keyboard)</p>","","51","","","FAM-RESPONSE","","","","","","","","sounds/C/FAM/P004.mp3","partword","","","","","","","","","","","","","","","","","","","",""
"html-keyboard-response","226","1027321","0.0-7.0-1.0-0.2","3","0","sggdhf7c0wcu2zh","","null","","","","null","","","","","","","","","","","","","","","","","","","","","","","","","","","","","","","",""
"audio-keyboard-response","227","1028263","0.0-7.0-1.0-1.2","3","0","sggdhf7c0wcu2zh","","null","","sounds/C/FAM/W003.mp3","","null","","","","","","","","","","","","","","","","","","","","","","","","","","","","","","","",""
"html-keyboard-response","228","1029103","0.0-7.0-1.0-2.2","3","0","sggdhf7c0wcu2zh","","333.7000000476837","","<p>How familiar did this sound to you?</p><p>1&nbsp;&nbsp;&nbsp;&nbsp;&nbsp;&nbsp;&nbsp;&nbsp;&nbsp;&nbsp;&nbsp;&nbsp;&nbsp;&nbsp;&nbsp;&nbsp;&nbsp;&nbsp;&nbsp;2&nbsp;&nbsp;&nbsp;&nbsp;&nbsp;&nbsp;&nbsp;&nbsp;&nbsp;&nbsp;&nbsp;&nbsp;&nbsp;&nbsp;&nbsp;&nbsp;&nbsp;&nbsp;&nbsp;3&nbsp;&nbsp;&nbsp;&nbsp;&nbsp;&nbsp;&nbsp;&nbsp;&nbsp;&nbsp;&nbsp;&nbsp;&nbsp;&nbsp;&nbsp;&nbsp;&nbsp;&nbsp;&nbsp;4</p><p style=""font-size:14px"">Not at all familiar&nbsp;&nbsp;&nbsp;&nbsp;A little familiar&nbsp;&nbsp;&nbsp;Moderately familiar&nbsp;&nbsp;&nbsp;Extremely familiar</p><p>(press the corresponding number on your keyboard)</p>","","50","","","FAM-RESPONSE","","","","","","","","sounds/C/FAM/W003.mp3","word","","","","","","","","","","","","","","","","","","","",""
"html-keyboard-response","229","1031121","0.0-7.0-1.0-0.3","3","0","sggdhf7c0wcu2zh","","null","","","","null","","","","","","","","","","","","","","","","","","","","","","","","","","","","","","","",""
"audio-keyboard-response","230","1032065","0.0-7.0-1.0-1.3","3","0","sggdhf7c0wcu2zh","","null","","sounds/C/FAM/N004.mp3","","null","","","","","","","","","","","","","","","","","","","","","","","","","","","","","","","",""
"html-keyboard-response","231","1032879","0.0-7.0-1.0-2.3","3","0","sggdhf7c0wcu2zh","","306.09999990463257","","<p>How familiar did this sound to you?</p><p>1&nbsp;&nbsp;&nbsp;&nbsp;&nbsp;&nbsp;&nbsp;&nbsp;&nbsp;&nbsp;&nbsp;&nbsp;&nbsp;&nbsp;&nbsp;&nbsp;&nbsp;&nbsp;&nbsp;2&nbsp;&nbsp;&nbsp;&nbsp;&nbsp;&nbsp;&nbsp;&nbsp;&nbsp;&nbsp;&nbsp;&nbsp;&nbsp;&nbsp;&nbsp;&nbsp;&nbsp;&nbsp;&nbsp;3&nbsp;&nbsp;&nbsp;&nbsp;&nbsp;&nbsp;&nbsp;&nbsp;&nbsp;&nbsp;&nbsp;&nbsp;&nbsp;&nbsp;&nbsp;&nbsp;&nbsp;&nbsp;&nbsp;4</p><p style=""font-size:14px"">Not at all familiar&nbsp;&nbsp;&nbsp;&nbsp;A little familiar&nbsp;&nbsp;&nbsp;Moderately familiar&nbsp;&nbsp;&nbsp;Extremely familiar</p><p>(press the corresponding number on your keyboard)</p>","","50","","","FAM-RESPONSE","","","","","","","","sounds/C/FAM/N004.mp3","nonword","","","","","","","","","","","","","","","","","","","",""
"html-keyboard-response","232","1034886","0.0-7.0-1.0-0.4","3","0","sggdhf7c0wcu2zh","","null","","","","null","","","","","","","","","","","","","","","","","","","","","","","","","","","","","","","",""
"audio-keyboard-response","233","1035835","0.0-7.0-1.0-1.4","3","0","sggdhf7c0wcu2zh","","null","","sounds/C/FAM/N001.mp3","","null","","","","","","","","","","","","","","","","","","","","","","","","","","","","","","","",""
"html-keyboard-response","234","1036578","0.0-7.0-1.0-2.4","3","0","sggdhf7c0wcu2zh","","237.70000004768372","","<p>How familiar did this sound to you?</p><p>1&nbsp;&nbsp;&nbsp;&nbsp;&nbsp;&nbsp;&nbsp;&nbsp;&nbsp;&nbsp;&nbsp;&nbsp;&nbsp;&nbsp;&nbsp;&nbsp;&nbsp;&nbsp;&nbsp;2&nbsp;&nbsp;&nbsp;&nbsp;&nbsp;&nbsp;&nbsp;&nbsp;&nbsp;&nbsp;&nbsp;&nbsp;&nbsp;&nbsp;&nbsp;&nbsp;&nbsp;&nbsp;&nbsp;3&nbsp;&nbsp;&nbsp;&nbsp;&nbsp;&nbsp;&nbsp;&nbsp;&nbsp;&nbsp;&nbsp;&nbsp;&nbsp;&nbsp;&nbsp;&nbsp;&nbsp;&nbsp;&nbsp;4</p><p style=""font-size:14px"">Not at all familiar&nbsp;&nbsp;&nbsp;&nbsp;A little familiar&nbsp;&nbsp;&nbsp;Moderately familiar&nbsp;&nbsp;&nbsp;Extremely familiar</p><p>(press the corresponding number on your keyboard)</p>","","49","","","FAM-RESPONSE","","","","","","","","sounds/C/FAM/N001.mp3","nonword","","","","","","","","","","","","","","","","","","","",""
"html-keyboard-response","235","1038597","0.0-7.0-1.0-0.5","3","0","sggdhf7c0wcu2zh","","null","","","","null","","","","","","","","","","","","","","","","","","","","","","","","","","","","","","","",""
"audio-keyboard-response","236","1039542","0.0-7.0-1.0-1.5","3","0","sggdhf7c0wcu2zh","","null","","sounds/C/FAM/W002.mp3","","null","","","","","","","","","","","","","","","","","","","","","","","","","","","","","","","",""
"html-keyboard-response","237","1040396","0.0-7.0-1.0-2.5","3","0","sggdhf7c0wcu2zh","","347.39999985694885","","<p>How familiar did this sound to you?</p><p>1&nbsp;&nbsp;&nbsp;&nbsp;&nbsp;&nbsp;&nbsp;&nbsp;&nbsp;&nbsp;&nbsp;&nbsp;&nbsp;&nbsp;&nbsp;&nbsp;&nbsp;&nbsp;&nbsp;2&nbsp;&nbsp;&nbsp;&nbsp;&nbsp;&nbsp;&nbsp;&nbsp;&nbsp;&nbsp;&nbsp;&nbsp;&nbsp;&nbsp;&nbsp;&nbsp;&nbsp;&nbsp;&nbsp;3&nbsp;&nbsp;&nbsp;&nbsp;&nbsp;&nbsp;&nbsp;&nbsp;&nbsp;&nbsp;&nbsp;&nbsp;&nbsp;&nbsp;&nbsp;&nbsp;&nbsp;&nbsp;&nbsp;4</p><p style=""font-size:14px"">Not at all familiar&nbsp;&nbsp;&nbsp;&nbsp;A little familiar&nbsp;&nbsp;&nbsp;Moderately familiar&nbsp;&nbsp;&nbsp;Extremely familiar</p><p>(press the corresponding number on your keyboard)</p>","","51","","","FAM-RESPONSE","","","","","","","","sounds/C/FAM/W002.mp3","word","","","","","","","","","","","","","","","","","","","",""
"html-keyboard-response","238","1042421","0.0-7.0-1.0-0.6","3","0","sggdhf7c0wcu2zh","","null","","","","null","","","","","","","","","","","","","","","","","","","","","","","","","","","","","","","",""
"audio-keyboard-response","239","1043355","0.0-7.0-1.0-1.6","3","0","sggdhf7c0wcu2zh","","null","","sounds/C/FAM/P003.mp3","","null","","","","","","","","","","","","","","","","","","","","","","","","","","","","","","","",""
"html-keyboard-response","240","1044147","0.0-7.0-1.0-2.6","3","0","sggdhf7c0wcu2zh","","286.2999999523163","","<p>How familiar did this sound to you?</p><p>1&nbsp;&nbsp;&nbsp;&nbsp;&nbsp;&nbsp;&nbsp;&nbsp;&nbsp;&nbsp;&nbsp;&nbsp;&nbsp;&nbsp;&nbsp;&nbsp;&nbsp;&nbsp;&nbsp;2&nbsp;&nbsp;&nbsp;&nbsp;&nbsp;&nbsp;&nbsp;&nbsp;&nbsp;&nbsp;&nbsp;&nbsp;&nbsp;&nbsp;&nbsp;&nbsp;&nbsp;&nbsp;&nbsp;3&nbsp;&nbsp;&nbsp;&nbsp;&nbsp;&nbsp;&nbsp;&nbsp;&nbsp;&nbsp;&nbsp;&nbsp;&nbsp;&nbsp;&nbsp;&nbsp;&nbsp;&nbsp;&nbsp;4</p><p style=""font-size:14px"">Not at all familiar&nbsp;&nbsp;&nbsp;&nbsp;A little familiar&nbsp;&nbsp;&nbsp;Moderately familiar&nbsp;&nbsp;&nbsp;Extremely familiar</p><p>(press the corresponding number on your keyboard)</p>","","50","","","FAM-RESPONSE","","","","","","","","sounds/C/FAM/P003.mp3","partword","","","","","","","","","","","","","","","","","","","",""
"html-keyboard-response","241","1046159","0.0-7.0-1.0-0.7","3","0","sggdhf7c0wcu2zh","","null","","","","null","","","","","","","","","","","","","","","","","","","","","","","","","","","","","","","",""
"audio-keyboard-response","242","1047105","0.0-7.0-1.0-1.7","3","0","sggdhf7c0wcu2zh","","null","","sounds/C/FAM/W001.mp3","","null","","","","","","","","","","","","","","","","","","","","","","","","","","","","","","","",""
"html-keyboard-response","243","1048273","0.0-7.0-1.0-2.7","3","0","sggdhf7c0wcu2zh","","663.6000001430511","","<p>How familiar did this sound to you?</p><p>1&nbsp;&nbsp;&nbsp;&nbsp;&nbsp;&nbsp;&nbsp;&nbsp;&nbsp;&nbsp;&nbsp;&nbsp;&nbsp;&nbsp;&nbsp;&nbsp;&nbsp;&nbsp;&nbsp;2&nbsp;&nbsp;&nbsp;&nbsp;&nbsp;&nbsp;&nbsp;&nbsp;&nbsp;&nbsp;&nbsp;&nbsp;&nbsp;&nbsp;&nbsp;&nbsp;&nbsp;&nbsp;&nbsp;3&nbsp;&nbsp;&nbsp;&nbsp;&nbsp;&nbsp;&nbsp;&nbsp;&nbsp;&nbsp;&nbsp;&nbsp;&nbsp;&nbsp;&nbsp;&nbsp;&nbsp;&nbsp;&nbsp;4</p><p style=""font-size:14px"">Not at all familiar&nbsp;&nbsp;&nbsp;&nbsp;A little familiar&nbsp;&nbsp;&nbsp;Moderately familiar&nbsp;&nbsp;&nbsp;Extremely familiar</p><p>(press the corresponding number on your keyboard)</p>","","50","","","FAM-RESPONSE","","","","","","","","sounds/C/FAM/W001.mp3","word","","","","","","","","","","","","","","","","","","","",""
"html-keyboard-response","244","1050301","0.0-7.0-1.0-0.8","3","0","sggdhf7c0wcu2zh","","null","","","","null","","","","","","","","","","","","","","","","","","","","","","","","","","","","","","","",""
"audio-keyboard-response","245","1051235","0.0-7.0-1.0-1.8","3","0","sggdhf7c0wcu2zh","","null","","sounds/C/FAM/P001.mp3","","null","","","","","","","","","","","","","","","","","","","","","","","","","","","","","","","",""
"html-keyboard-response","246","1051871","0.0-7.0-1.0-2.8","3","0","sggdhf7c0wcu2zh","","119.60000014305115","","<p>How familiar did this sound to you?</p><p>1&nbsp;&nbsp;&nbsp;&nbsp;&nbsp;&nbsp;&nbsp;&nbsp;&nbsp;&nbsp;&nbsp;&nbsp;&nbsp;&nbsp;&nbsp;&nbsp;&nbsp;&nbsp;&nbsp;2&nbsp;&nbsp;&nbsp;&nbsp;&nbsp;&nbsp;&nbsp;&nbsp;&nbsp;&nbsp;&nbsp;&nbsp;&nbsp;&nbsp;&nbsp;&nbsp;&nbsp;&nbsp;&nbsp;3&nbsp;&nbsp;&nbsp;&nbsp;&nbsp;&nbsp;&nbsp;&nbsp;&nbsp;&nbsp;&nbsp;&nbsp;&nbsp;&nbsp;&nbsp;&nbsp;&nbsp;&nbsp;&nbsp;4</p><p style=""font-size:14px"">Not at all familiar&nbsp;&nbsp;&nbsp;&nbsp;A little familiar&nbsp;&nbsp;&nbsp;Moderately familiar&nbsp;&nbsp;&nbsp;Extremely familiar</p><p>(press the corresponding number on your keyboard)</p>","","49","","","FAM-RESPONSE","","","","","","","","sounds/C/FAM/P001.mp3","partword","","","","","","","","","","","","","","","","","","","",""
"html-keyboard-response","247","1053884","0.0-7.0-1.0-0.9","3","0","sggdhf7c0wcu2zh","","null","","","","null","","","","","","","","","","","","","","","","","","","","","","","","","","","","","","","",""
"audio-keyboard-response","248","1054834","0.0-7.0-1.0-1.9","3","0","sggdhf7c0wcu2zh","","null","","sounds/C/FAM/N003.mp3","","null","","","","","","","","","","","","","","","","","","","","","","","","","","","","","","","",""
"html-keyboard-response","249","1055743","0.0-7.0-1.0-2.9","3","0","sggdhf7c0wcu2zh","","405.7000000476837","","<p>How familiar did this sound to you?</p><p>1&nbsp;&nbsp;&nbsp;&nbsp;&nbsp;&nbsp;&nbsp;&nbsp;&nbsp;&nbsp;&nbsp;&nbsp;&nbsp;&nbsp;&nbsp;&nbsp;&nbsp;&nbsp;&nbsp;2&nbsp;&nbsp;&nbsp;&nbsp;&nbsp;&nbsp;&nbsp;&nbsp;&nbsp;&nbsp;&nbsp;&nbsp;&nbsp;&nbsp;&nbsp;&nbsp;&nbsp;&nbsp;&nbsp;3&nbsp;&nbsp;&nbsp;&nbsp;&nbsp;&nbsp;&nbsp;&nbsp;&nbsp;&nbsp;&nbsp;&nbsp;&nbsp;&nbsp;&nbsp;&nbsp;&nbsp;&nbsp;&nbsp;4</p><p style=""font-size:14px"">Not at all familiar&nbsp;&nbsp;&nbsp;&nbsp;A little familiar&nbsp;&nbsp;&nbsp;Moderately familiar&nbsp;&nbsp;&nbsp;Extremely familiar</p><p>(press the corresponding number on your keyboard)</p>","","50","","","FAM-RESPONSE","","","","","","","","sounds/C/FAM/N003.mp3","nonword","","","","","","","","","","","","","","","","","","","",""
"html-keyboard-response","250","1057747","0.0-7.0-1.0-0.10","3","0","sggdhf7c0wcu2zh","","null","","","","null","","","","","","","","","","","","","","","","","","","","","","","","","","","","","","","",""
"audio-keyboard-response","251","1058685","0.0-7.0-1.0-1.10","3","0","sggdhf7c0wcu2zh","","null","","sounds/C/FAM/N002.mp3","","null","","","","","","","","","","","","","","","","","","","","","","","","","","","","","","","",""
"html-keyboard-response","252","1060449","0.0-7.0-1.0-2.10","3","0","sggdhf7c0wcu2zh","","1247.8000001907349","","<p>How familiar did this sound to you?</p><p>1&nbsp;&nbsp;&nbsp;&nbsp;&nbsp;&nbsp;&nbsp;&nbsp;&nbsp;&nbsp;&nbsp;&nbsp;&nbsp;&nbsp;&nbsp;&nbsp;&nbsp;&nbsp;&nbsp;2&nbsp;&nbsp;&nbsp;&nbsp;&nbsp;&nbsp;&nbsp;&nbsp;&nbsp;&nbsp;&nbsp;&nbsp;&nbsp;&nbsp;&nbsp;&nbsp;&nbsp;&nbsp;&nbsp;3&nbsp;&nbsp;&nbsp;&nbsp;&nbsp;&nbsp;&nbsp;&nbsp;&nbsp;&nbsp;&nbsp;&nbsp;&nbsp;&nbsp;&nbsp;&nbsp;&nbsp;&nbsp;&nbsp;4</p><p style=""font-size:14px"">Not at all familiar&nbsp;&nbsp;&nbsp;&nbsp;A little familiar&nbsp;&nbsp;&nbsp;Moderately familiar&nbsp;&nbsp;&nbsp;Extremely familiar</p><p>(press the corresponding number on your keyboard)</p>","","49","","","FAM-RESPONSE","","","","","","","","sounds/C/FAM/N002.mp3","nonword","","","","","","","","","","","","","","","","","","","",""
"html-keyboard-response","253","1062478","0.0-7.0-1.0-0.11","3","0","sggdhf7c0wcu2zh","","null","","","","null","","","","","","","","","","","","","","","","","","","","","","","","","","","","","","","",""
"audio-keyboard-response","254","1063425","0.0-7.0-1.0-1.11","3","0","sggdhf7c0wcu2zh","","null","","sounds/C/FAM/P002.mp3","","null","","","","","","","","","","","","","","","","","","","","","","","","","","","","","","","",""
"html-keyboard-response","255","1064183","0.0-7.0-1.0-2.11","3","0","sggdhf7c0wcu2zh","","254.29999995231628","","<p>How familiar did this sound to you?</p><p>1&nbsp;&nbsp;&nbsp;&nbsp;&nbsp;&nbsp;&nbsp;&nbsp;&nbsp;&nbsp;&nbsp;&nbsp;&nbsp;&nbsp;&nbsp;&nbsp;&nbsp;&nbsp;&nbsp;2&nbsp;&nbsp;&nbsp;&nbsp;&nbsp;&nbsp;&nbsp;&nbsp;&nbsp;&nbsp;&nbsp;&nbsp;&nbsp;&nbsp;&nbsp;&nbsp;&nbsp;&nbsp;&nbsp;3&nbsp;&nbsp;&nbsp;&nbsp;&nbsp;&nbsp;&nbsp;&nbsp;&nbsp;&nbsp;&nbsp;&nbsp;&nbsp;&nbsp;&nbsp;&nbsp;&nbsp;&nbsp;&nbsp;4</p><p style=""font-size:14px"">Not at all familiar&nbsp;&nbsp;&nbsp;&nbsp;A little familiar&nbsp;&nbsp;&nbsp;Moderately familiar&nbsp;&nbsp;&nbsp;Extremely familiar</p><p>(press the corresponding number on your keyboard)</p>","","51","","","FAM-RESPONSE","","","","","","","","sounds/C/FAM/P002.mp3","partword","","","","","","","","","","","","","","","","","","","",""
"html-button-response","256","1068143","0.0-8.0-0.0","3","0","sggdhf7c0wcu2zh","","2954.0999999046326","","<p>You will now listen to longer sound sequences.</p><p>Each sound sequence will last about 16 seconds.</p><p>On each trial, you will be given a <u>TARGET SOUND</u>. Your task is to listen very carefully for this sound.</p><p>Every time you hear the <u>TARGET SOUND</u>, you will press the <b>SPACEBAR</b> as quickly and accurately as you can.</p>","0","","","","","","","","","","","","","","","","","","","","","","","","","","","","","","","","",""
"html-button-response","257","1071423","0.0-8.0-1.0","3","0","sggdhf7c0wcu2zh","","3019.7000000476837","","<p>It is very important that you make your responses as quickly and accurately as possible.</p><p>To help you make your responses, you will be able to listen to the <u>TARGET SOUND</u> at the beginning of each trial.</p><p>There will be 36 total trials.</p><p><b>Note: This is meant to be a difficult task. We simply want you to try your best.</p>","0","","","","","","","","","","","","","","","","","","","","","","","","","","","","","","","","",""
"html-button-response","258","1072303","0.0-8.0-2.0-0.0","3","0","sggdhf7c0wcu2zh","","620.9000000953674","","<p>Trial 1 of 36</p>","0","","","","","","","","","","","","","","ME","sounds/syllables/me_SWS.wav","900,4500,6300,9000","1","","","","","","","","","","","","","","","",""
"html-keyboard-response","259","1073535","0.0-8.0-2.0-1.0","3","0","sggdhf7c0wcu2zh","","1230.1000001430511","","","","80","","","","","","","","","","","","","ME","","900,4500,6300,9000","1","","","","","","","","","","","","","","","",""
"audio-keyboard-response","260","1073835","0.0-8.0-2.0-2.0-0.0","3","0","sggdhf7c0wcu2zh","","null","","sounds/syllables/me_SWS.wav","","null","","","","","","","","","","","","","","","","","","","","","","","","","","","","","","","",""
"html-keyboard-response","261","1074815","0.0-8.0-2.0-2.0-1.0","3","0","sggdhf7c0wcu2zh","","979.2000000476837","","<p>To replay the <u>TARGET SOUND</u>, press P.</p> When you are ready to begin, press SPACEBAR.","","80","","","","","","","","","","","","","","","","","","","","","","","","","","","","","","","",""
"audio-keyboard-response","262","1075634","0.0-8.0-2.0-2.1-0.1","3","0","sggdhf7c0wcu2zh","","null","","sounds/syllables/me_SWS.wav","","null","","","","","","","","","","","","","","","","","","","","","","","","","","","","","","","",""
"html-keyboard-response","263","1076431","0.0-8.0-2.0-2.1-1.1","3","0","sggdhf7c0wcu2zh","","795.7000000476837","","<p>To replay the <u>TARGET SOUND</u>, press P.</p> When you are ready to begin, press SPACEBAR.","","32","","","","","","","","","","","","","","","","","","","","","","","","","","","","","","","",""
"audio-keyboard-response","264","1091397","0.0-8.0-2.0-3.0","3","0","sggdhf7c0wcu2zh","","1621","","sounds/C/TD/ME_05_TD.mp3","","32","","","TD_SUMMARY","","","","","","","","","","ME","","900,4500,6300,9000","1","900","4500","6300","9000","720.7999999523163","834.0999999046326","896.3999998569489","859.7000000476837","1620.7999999523163_5334.099999904633_7196.399999856949_9859.700000047684","2","","","","","",""
"html-button-response","265","1093656","0.0-8.0-2.0-0.1","3","0","sggdhf7c0wcu2zh","","2255.7999999523163","","<p>Trial 2 of 36</p>","0","","","","","","","","","","","","","","PU","sounds/syllables/pu_SWS.wav","1500,8700,11400,13200","3","","","","","","","","","","","","","","","",""
"html-keyboard-response","266","1094749","0.0-8.0-2.0-1.1","3","0","sggdhf7c0wcu2zh","","1092.1999998092651","","","","80","","","","","","","","","","","","","PU","","1500,8700,11400,13200","3","","","","","","","","","","","","","","","",""
"audio-keyboard-response","267","1095045","0.0-8.0-2.0-2.2-0.2","3","0","sggdhf7c0wcu2zh","","null","","sounds/syllables/pu_SWS.wav","","null","","","","","","","","","","","","","","","","","","","","","","","","","","","","","","","",""
"html-keyboard-response","268","1095409","0.0-8.0-2.0-2.2-1.2","3","0","sggdhf7c0wcu2zh","","363.10000014305115","","<p>To replay the <u>TARGET SOUND</u>, press P.</p> When you are ready to begin, press SPACEBAR.","","32","","","","","","","","","","","","","","","","","","","","","","","","","","","","","","","",""
"audio-keyboard-response","269","1110365","0.0-8.0-2.0-3.1","3","0","sggdhf7c0wcu2zh","","null","","sounds/C/TD/PU_05_TD.mp3","","null","","","TD_SUMMARY","","","","","","","","","","PU","","1500,8700,11400,13200","3","1500","8700","11400","13200","null","null","null","null","","1","","","","","",""
"html-button-response","270","1111386","0.0-8.0-2.0-0.2","3","0","sggdhf7c0wcu2zh","","1018.2000000476837","","<p>Trial 3 of 36</p>","0","","","","","","","","","","","","","","PU","sounds/syllables/pu_SWS.wav","3300,6900,8700,10500","3","","","","","","","","","","","","","","","",""
"html-keyboard-response","271","1112118","0.0-8.0-2.0-1.2","3","0","sggdhf7c0wcu2zh","","730.5","","","","80","","","","","","","","","","","","","PU","","3300,6900,8700,10500","3","","","","","","","","","","","","","","","",""
"audio-keyboard-response","272","1112424","0.0-8.0-2.0-2.3-0.3","3","0","sggdhf7c0wcu2zh","","null","","sounds/syllables/pu_SWS.wav","","null","","","","","","","","","","","","","","","","","","","","","","","","","","","","","","","",""
"html-keyboard-response","273","1112609","0.0-8.0-2.0-2.3-1.3","3","0","sggdhf7c0wcu2zh","","183.5","","<p>To replay the <u>TARGET SOUND</u>, press P.</p> When you are ready to begin, press SPACEBAR.","","32","","","","","","","","","","","","","","","","","","","","","","","","","","","","","","","",""
"audio-keyboard-response","274","1127563","0.0-8.0-2.0-3.2","3","0","sggdhf7c0wcu2zh","","null","","sounds/C/TD/PU_08_TD.mp3","","null","","","TD_SUMMARY","","","","","","","","","","PU","","3300,6900,8700,10500","3","3300","6900","8700","10500","null","null","null","null","","1","","","","","",""
"html-button-response","275","1128527","0.0-8.0-2.0-0.3","3","0","sggdhf7c0wcu2zh","","962.2000000476837","","<p>Trial 4 of 36</p>","0","","","","","","","","","","","","","","KO","sounds/syllables/ko_SWS.wav","900,6300,8100,11700","1","","","","","","","","","","","","","","","",""
"html-keyboard-response","276","1129352","0.0-8.0-2.0-1.3","3","0","sggdhf7c0wcu2zh","","824","","","","80","","","","","","","","","","","","","KO","","900,6300,8100,11700","1","","","","","","","","","","","","","","","",""
"audio-keyboard-response","277","1129645","0.0-8.0-2.0-2.4-0.4","3","0","sggdhf7c0wcu2zh","","null","","sounds/syllables/ko_SWS.wav","","null","","","","","","","","","","","","","","","","","","","","","","","","","","","","","","","",""
"html-keyboard-response","278","1130020","0.0-8.0-2.0-2.4-1.4","3","0","sggdhf7c0wcu2zh","","374","","<p>To replay the <u>TARGET SOUND</u>, press P.</p> When you are ready to begin, press SPACEBAR.","","32","","","","","","","","","","","","","","","","","","","","","","","","","","","","","","","",""
"audio-keyboard-response","279","1144975","0.0-8.0-2.0-3.3","3","0","sggdhf7c0wcu2zh","","null","","sounds/C/TD/KO_06_TD.mp3","","null","","","TD_SUMMARY","","","","","","","","","","KO","","900,6300,8100,11700","1","900","6300","8100","11700","null","null","null","null","","1","","","","","",""
"html-button-response","280","1147481","0.0-8.0-2.0-0.4","3","0","sggdhf7c0wcu2zh","","2503.199999809265","","<p>Trial 5 of 36</p>","0","","","","","","","","","","","","","","RE","sounds/syllables/re_SWS.wav","1200,5700,11100,12900","2","","","","","","","","","","","","","","","",""
"html-keyboard-response","281","1148301","0.0-8.0-2.0-1.4","3","0","sggdhf7c0wcu2zh","","817.9000000953674","","","","80","","","","","","","","","","","","","RE","","1200,5700,11100,12900","2","","","","","","","","","","","","","","","",""
"audio-keyboard-response","282","1148595","0.0-8.0-2.0-2.5-0.5","3","0","sggdhf7c0wcu2zh","","null","","sounds/syllables/re_SWS.wav","","null","","","","","","","","","","","","","","","","","","","","","","","","","","","","","","","",""
"html-keyboard-response","283","1148860","0.0-8.0-2.0-2.5-1.5","3","0","sggdhf7c0wcu2zh","","264.09999990463257","","<p>To replay the <u>TARGET SOUND</u>, press P.</p> When you are ready to begin, press SPACEBAR.","","32","","","","","","","","","","","","","","","","","","","","","","","","","","","","","","","",""
"audio-keyboard-response","284","1163815","0.0-8.0-2.0-3.4","3","0","sggdhf7c0wcu2zh","","null","","sounds/C/TD/RE_04_TD.mp3","","null","","","TD_SUMMARY","","","","","","","","","","RE","","1200,5700,11100,12900","2","1200","5700","11100","12900","null","null","null","null","","1","","","","","",""
"html-button-response","285","1165088","0.0-8.0-2.0-0.5","3","0","sggdhf7c0wcu2zh","","1269.7999999523163","","<p>Trial 6 of 36</p>","0","","","","","","","","","","","","","","SU","sounds/syllables/su_SWS.wav","2700,4500,9000,11700","1","","","","","","","","","","","","","","","",""
"html-keyboard-response","286","1165980","0.0-8.0-2.0-1.5","3","0","sggdhf7c0wcu2zh","","890.9000000953674","","","","80","","","","","","","","","","","","","SU","","2700,4500,9000,11700","1","","","","","","","","","","","","","","","",""
"audio-keyboard-response","287","1166275","0.0-8.0-2.0-2.6-0.6","3","0","sggdhf7c0wcu2zh","","null","","sounds/syllables/su_SWS.wav","","null","","","","","","","","","","","","","","","","","","","","","","","","","","","","","","","",""
"html-keyboard-response","288","1166708","0.0-8.0-2.0-2.6-1.6","3","0","sggdhf7c0wcu2zh","","431.5","","<p>To replay the <u>TARGET SOUND</u>, press P.</p> When you are ready to begin, press SPACEBAR.","","32","","","","","","","","","","","","","","","","","","","","","","","","","","","","","","","",""
"audio-keyboard-response","289","1181654","0.0-8.0-2.0-3.5","3","0","sggdhf7c0wcu2zh","","null","","sounds/C/TD/SU_08_TD.mp3","","null","","","TD_SUMMARY","","","","","","","","","","SU","","2700,4500,9000,11700","1","2700","4500","9000","11700","null","null","null","null","","1","","","","","",""
"html-button-response","290","1183011","0.0-8.0-2.0-0.6","3","0","sggdhf7c0wcu2zh","","1353.7000000476837","","<p>Trial 7 of 36</p>","0","","","","","","","","","","","","","","GE","sounds/syllables/ge_SWS.wav","4200,8700,10500,12300","3","","","","","","","","","","","","","","","",""
"html-keyboard-response","291","1183688","0.0-8.0-2.0-1.6","3","0","sggdhf7c0wcu2zh","","675","","","","80","","","","","","","","","","","","","GE","","4200,8700,10500,12300","3","","","","","","","","","","","","","","","",""
"audio-keyboard-response","292","1183994","0.0-8.0-2.0-2.7-0.7","3","0","sggdhf7c0wcu2zh","","null","","sounds/syllables/ge_SWS.wav","","null","","","","","","","","","","","","","","","","","","","","","","","","","","","","","","","",""
"html-keyboard-response","293","1184280","0.0-8.0-2.0-2.7-1.7","3","0","sggdhf7c0wcu2zh","","284.89999985694885","","<p>To replay the <u>TARGET SOUND</u>, press P.</p> When you are ready to begin, press SPACEBAR.","","32","","","","","","","","","","","","","","","","","","","","","","","","","","","","","","","",""
"audio-keyboard-response","294","1199245","0.0-8.0-2.0-3.6","3","0","sggdhf7c0wcu2zh","","null","","sounds/C/TD/GE_01_TD.mp3","","null","","","TD_SUMMARY","","","","","","","","","","GE","","4200,8700,10500,12300","3","4200","8700","10500","12300","null","null","null","null","","1","","","","","",""
"html-button-response","295","1201464","0.0-8.0-2.0-0.7","3","0","sggdhf7c0wcu2zh","","2216.399999856949","","<p>Trial 8 of 36</p>","0","","","","","","","","","","","","","","SU","sounds/syllables/su_SWS.wav","3600,5400,8100,12600","1","","","","","","","","","","","","","","","",""
"html-keyboard-response","296","1202110","0.0-8.0-2.0-1.7","3","0","sggdhf7c0wcu2zh","","644.2999999523163","","","","80","","","","","","","","","","","","","SU","","3600,5400,8100,12600","1","","","","","","","","","","","","","","","",""
"audio-keyboard-response","297","1202404","0.0-8.0-2.0-2.8-0.8","3","0","sggdhf7c0wcu2zh","","null","","sounds/syllables/su_SWS.wav","","null","","","","","","","","","","","","","","","","","","","","","","","","","","","","","","","",""
"html-keyboard-response","298","1202561","0.0-8.0-2.0-2.8-1.8","3","0","sggdhf7c0wcu2zh","","156.20000004768372","","<p>To replay the <u>TARGET SOUND</u>, press P.</p> When you are ready to begin, press SPACEBAR.","","32","","","","","","","","","","","","","","","","","","","","","","","","","","","","","","","",""
"audio-keyboard-response","299","1217514","0.0-8.0-2.0-3.7","3","0","sggdhf7c0wcu2zh","","null","","sounds/C/TD/SU_04_TD.mp3","","null","","","TD_SUMMARY","","","","","","","","","","SU","","3600,5400,8100,12600","1","3600","5400","8100","12600","null","null","null","null","","1","","","","","",""
"html-button-response","300","1218816","0.0-8.0-2.0-0.8","3","0","sggdhf7c0wcu2zh","","1299.2999999523163","","<p>Trial 9 of 36</p>","0","","","","","","","","","","","","","","NI","sounds/syllables/ni_SWS.wav","1800,3600,9000,10800","1","","","","","","","","","","","","","","","",""
"html-keyboard-response","301","1219155","0.0-8.0-2.0-1.8","3","0","sggdhf7c0wcu2zh","","337.5","","","","80","","","","","","","","","","","","","NI","","1800,3600,9000,10800","1","","","","","","","","","","","","","","","",""
"audio-keyboard-response","302","1219463","0.0-8.0-2.0-2.9-0.9","3","0","sggdhf7c0wcu2zh","","null","","sounds/syllables/ni_SWS.wav","","null","","","","","","","","","","","","","","","","","","","","","","","","","","","","","","","",""
"html-keyboard-response","303","1219684","0.0-8.0-2.0-2.9-1.9","3","0","sggdhf7c0wcu2zh","","220.40000009536743","","<p>To replay the <u>TARGET SOUND</u>, press P.</p> When you are ready to begin, press SPACEBAR.","","32","","","","","","","","","","","","","","","","","","","","","","","","","","","","","","","",""
"audio-keyboard-response","304","1234634","0.0-8.0-2.0-3.8","3","0","sggdhf7c0wcu2zh","","null","","sounds/C/TD/NI_05_TD.mp3","","null","","","TD_SUMMARY","","","","","","","","","","NI","","1800,3600,9000,10800","1","1800","3600","9000","10800","null","null","null","null","","1","","","","","",""
"html-button-response","305","1235608","0.0-8.0-2.0-0.9","3","0","sggdhf7c0wcu2zh","","970.1000001430511","","<p>Trial 10 of 36</p>","0","","","","","","","","","","","","","","KO","sounds/syllables/ko_SWS.wav","1800,3600,8100,10800","1","","","","","","","","","","","","","","","",""
"html-keyboard-response","306","1235985","0.0-8.0-2.0-1.9","3","0","sggdhf7c0wcu2zh","","375.09999990463257","","","","80","","","","","","","","","","","","","KO","","1800,3600,8100,10800","1","","","","","","","","","","","","","","","",""
"audio-keyboard-response","307","1236285","0.0-8.0-2.0-2.10-0.10","3","0","sggdhf7c0wcu2zh","","null","","sounds/syllables/ko_SWS.wav","","null","","","","","","","","","","","","","","","","","","","","","","","","","","","","","","","",""
"html-keyboard-response","308","1236766","0.0-8.0-2.0-2.10-1.10","3","0","sggdhf7c0wcu2zh","","479.5","","<p>To replay the <u>TARGET SOUND</u>, press P.</p> When you are ready to begin, press SPACEBAR.","","32","","","","","","","","","","","","","","","","","","","","","","","","","","","","","","","",""
"audio-keyboard-response","309","1251717","0.0-8.0-2.0-3.9","3","0","sggdhf7c0wcu2zh","","null","","sounds/C/TD/KO_02_TD.mp3","","null","","","TD_SUMMARY","","","","","","","","","","KO","","1800,3600,8100,10800","1","1800","3600","8100","10800","null","null","null","null","","1","","","","","",""
"html-button-response","310","1253108","0.0-8.0-2.0-0.10","3","0","sggdhf7c0wcu2zh","","1388.6000001430511","","<p>Trial 11 of 36</p>","0","","","","","","","","","","","","","","TI","sounds/syllables/ti_SWS.wav","1500,4200,6000,12300","3","","","","","","","","","","","","","","","",""
"html-keyboard-response","311","1253627","0.0-8.0-2.0-1.10","3","0","sggdhf7c0wcu2zh","","517.9000000953674","","","","80","","","","","","","","","","","","","TI","","1500,4200,6000,12300","3","","","","","","","","","","","","","","","",""
"audio-keyboard-response","312","1253925","0.0-8.0-2.0-2.11-0.11","3","0","sggdhf7c0wcu2zh","","null","","sounds/syllables/ti_SWS.wav","","null","","","","","","","","","","","","","","","","","","","","","","","","","","","","","","","",""
"html-keyboard-response","313","1254090","0.0-8.0-2.0-2.11-1.11","3","0","sggdhf7c0wcu2zh","","164.40000009536743","","<p>To replay the <u>TARGET SOUND</u>, press P.</p> When you are ready to begin, press SPACEBAR.","","32","","","","","","","","","","","","","","","","","","","","","","","","","","","","","","","",""
"audio-keyboard-response","314","1269034","0.0-8.0-2.0-3.10","3","0","sggdhf7c0wcu2zh","","null","","sounds/C/TD/TI_09_TD.mp3","","null","","","TD_SUMMARY","","","","","","","","","","TI","","1500,4200,6000,12300","3","1500","4200","6000","12300","null","null","null","null","","1","","","","","",""
"html-button-response","315","1270145","0.0-8.0-2.0-0.11","3","0","sggdhf7c0wcu2zh","","1107.2999999523163","","<p>Trial 12 of 36</p>","0","","","","","","","","","","","","","","TI","sounds/syllables/ti_SWS.wav","1500,3300,10500,13200","3","","","","","","","","","","","","","","","",""
"html-keyboard-response","316","1270957","0.0-8.0-2.0-1.11","3","0","sggdhf7c0wcu2zh","","810.3999998569489","","","","80","","","","","","","","","","","","","TI","","1500,3300,10500,13200","3","","","","","","","","","","","","","","","",""
"audio-keyboard-response","317","1271264","0.0-8.0-2.0-2.12-0.12","3","0","sggdhf7c0wcu2zh","","null","","sounds/syllables/ti_SWS.wav","","null","","","","","","","","","","","","","","","","","","","","","","","","","","","","","","","",""
"html-keyboard-response","318","1271494","0.0-8.0-2.0-2.12-1.12","3","0","sggdhf7c0wcu2zh","","228.29999995231628","","<p>To replay the <u>TARGET SOUND</u>, press P.</p> When you are ready to begin, press SPACEBAR.","","32","","","","","","","","","","","","","","","","","","","","","","","","","","","","","","","",""
"audio-keyboard-response","319","1286444","0.0-8.0-2.0-3.11","3","0","sggdhf7c0wcu2zh","","null","","sounds/C/TD/TI_01_TD.mp3","","null","","","TD_SUMMARY","","","","","","","","","","TI","","1500,3300,10500,13200","3","1500","3300","10500","13200","null","null","null","null","","1","","","","","",""
"html-button-response","320","1287682","0.0-8.0-2.0-0.12","3","0","sggdhf7c0wcu2zh","","1236.3999998569489","","<p>Trial 13 of 36</p>","0","","","","","","","","","","","","","","FE","sounds/syllables/fe_SWS.wav","2100,3900,5700,11100","2","","","","","","","","","","","","","","","",""
"html-keyboard-response","321","1288061","0.0-8.0-2.0-1.12","3","0","sggdhf7c0wcu2zh","","377.59999990463257","","","","80","","","","","","","","","","","","","FE","","2100,3900,5700,11100","2","","","","","","","","","","","","","","","",""
"audio-keyboard-response","322","1288355","0.0-8.0-2.0-2.13-0.13","3","0","sggdhf7c0wcu2zh","","null","","sounds/syllables/fe_SWS.wav","","null","","","","","","","","","","","","","","","","","","","","","","","","","","","","","","","",""
"html-keyboard-response","323","1288622","0.0-8.0-2.0-2.13-1.13","3","0","sggdhf7c0wcu2zh","","265.89999985694885","","<p>To replay the <u>TARGET SOUND</u>, press P.</p> When you are ready to begin, press SPACEBAR.","","32","","","","","","","","","","","","","","","","","","","","","","","","","","","","","","","",""
"audio-keyboard-response","324","1303585","0.0-8.0-2.0-3.12","3","0","sggdhf7c0wcu2zh","","null","","sounds/C/TD/FE_06_TD.mp3","","null","","","TD_SUMMARY","","","","","","","","","","FE","","2100,3900,5700,11100","2","2100","3900","5700","11100","null","null","null","null","","1","","","","","",""
"html-button-response","325","1305429","0.0-8.0-2.0-0.13","3","0","sggdhf7c0wcu2zh","","1840.2999999523163","","<p>Trial 14 of 36</p>","0","","","","","","","","","","","","","","NI","sounds/syllables/ni_SWS.wav","3600,5400,7200,10800","1","","","","","","","","","","","","","","","",""
"html-keyboard-response","326","1305830","0.0-8.0-2.0-1.13","3","0","sggdhf7c0wcu2zh","","399","","","","80","","","","","","","","","","","","","NI","","3600,5400,7200,10800","1","","","","","","","","","","","","","","","",""
"audio-keyboard-response","327","1306125","0.0-8.0-2.0-2.14-0.14","3","0","sggdhf7c0wcu2zh","","null","","sounds/syllables/ni_SWS.wav","","null","","","","","","","","","","","","","","","","","","","","","","","","","","","","","","","",""
"html-keyboard-response","328","1307083","0.0-8.0-2.0-2.14-1.14","3","0","sggdhf7c0wcu2zh","","956.7999999523163","","<p>To replay the <u>TARGET SOUND</u>, press P.</p> When you are ready to begin, press SPACEBAR.","","32","","","","","","","","","","","","","","","","","","","","","","","","","","","","","","","",""
"audio-keyboard-response","329","1322035","0.0-8.0-2.0-3.13","3","0","sggdhf7c0wcu2zh","","null","","sounds/C/TD/NI_07_TD.mp3","","null","","","TD_SUMMARY","","","","","","","","","","NI","","3600,5400,7200,10800","1","3600","5400","7200","10800","null","null","null","null","","1","","","","","",""
"html-button-response","330","1322607","0.0-8.0-2.0-0.14","3","0","sggdhf7c0wcu2zh","","567.9000000953674","","<p>Trial 15 of 36</p>","0","","","","","","","","","","","","","","FU","sounds/syllables/fu_SWS.wav","5100,6900,8700,12300","3","","","","","","","","","","","","","","","",""
"html-keyboard-response","331","1323431","0.0-8.0-2.0-1.14","3","0","sggdhf7c0wcu2zh","","823","","","","80","","","","","","","","","","","","","FU","","5100,6900,8700,12300","3","","","","","","","","","","","","","","","",""
"audio-keyboard-response","332","1323724","0.0-8.0-2.0-2.15-0.15","3","0","sggdhf7c0wcu2zh","","null","","sounds/syllables/fu_SWS.wav","","null","","","","","","","","","","","","","","","","","","","","","","","","","","","","","","","",""
"html-keyboard-response","333","1324016","0.0-8.0-2.0-2.15-1.15","3","0","sggdhf7c0wcu2zh","","290.40000009536743","","<p>To replay the <u>TARGET SOUND</u>, press P.</p> When you are ready to begin, press SPACEBAR.","","32","","","","","","","","","","","","","","","","","","","","","","","","","","","","","","","",""
"audio-keyboard-response","334","1338966","0.0-8.0-2.0-3.14","3","0","sggdhf7c0wcu2zh","","null","","sounds/C/TD/FU_06_TD.mp3","","null","","","TD_SUMMARY","","","","","","","","","","FU","","5100,6900,8700,12300","3","5100","6900","8700","12300","null","null","null","null","","1","","","","","",""
"html-button-response","335","1340076","0.0-8.0-2.0-0.15","3","0","sggdhf7c0wcu2zh","","1106.4000000953674","","<p>Trial 16 of 36</p>","0","","","","","","","","","","","","","","FE","sounds/syllables/fe_SWS.wav","4800,6600,8400,10200","2","","","","","","","","","","","","","","","",""
"html-keyboard-response","336","1340426","0.0-8.0-2.0-1.15","3","0","sggdhf7c0wcu2zh","","348.2000000476837","","","","80","","","","","","","","","","","","","FE","","4800,6600,8400,10200","2","","","","","","","","","","","","","","","",""
"audio-keyboard-response","337","1340724","0.0-8.0-2.0-2.16-0.16","3","0","sggdhf7c0wcu2zh","","null","","sounds/syllables/fe_SWS.wav","","null","","","","","","","","","","","","","","","","","","","","","","","","","","","","","","","",""
"html-keyboard-response","338","1340953","0.0-8.0-2.0-2.16-1.16","3","0","sggdhf7c0wcu2zh","","227.79999995231628","","<p>To replay the <u>TARGET SOUND</u>, press P.</p> When you are ready to begin, press SPACEBAR.","","32","","","","","","","","","","","","","","","","","","","","","","","","","","","","","","","",""
"audio-keyboard-response","339","1355915","0.0-8.0-2.0-3.15","3","0","sggdhf7c0wcu2zh","","null","","sounds/C/TD/FE_10_TD.mp3","","null","","","TD_SUMMARY","","","","","","","","","","FE","","4800,6600,8400,10200","2","4800","6600","8400","10200","null","null","null","null","","1","","","","","",""
"html-button-response","340","1357082","0.0-8.0-2.0-0.16","3","0","sggdhf7c0wcu2zh","","1164.6000001430511","","<p>Trial 17 of 36</p>","0","","","","","","","","","","","","","","FU","sounds/syllables/fu_SWS.wav","1500,6900,9600,13200","3","","","","","","","","","","","","","","","",""
"html-keyboard-response","341","1357434","0.0-8.0-2.0-1.16","3","0","sggdhf7c0wcu2zh","","351.2000000476837","","","","80","","","","","","","","","","","","","FU","","1500,6900,9600,13200","3","","","","","","","","","","","","","","","",""
"audio-keyboard-response","342","1357746","0.0-8.0-2.0-2.17-0.17","3","0","sggdhf7c0wcu2zh","","null","","sounds/syllables/fu_SWS.wav","","null","","","","","","","","","","","","","","","","","","","","","","","","","","","","","","","",""
"html-keyboard-response","343","1358316","0.0-8.0-2.0-2.17-1.17","3","0","sggdhf7c0wcu2zh","","568.7999999523163","","<p>To replay the <u>TARGET SOUND</u>, press P.</p> When you are ready to begin, press SPACEBAR.","","32","","","","","","","","","","","","","","","","","","","","","","","","","","","","","","","",""
