"trial_type","trial_index","time_elapsed","internal_node_id","counterbalance","lang_instruct","ParticipantID","view_history","rt","url","stimulus","button_pressed","key_press","correctRESP","correct","designation","location","correctanswer","timeouts","pause_rt01","pause_rt02","train_file","numKeyPress","sound","fam_type","SYLLABLE","EXEMPLAR","TD_LOCS","TD_TYPE","TDLOC_01","TDLOC_02","TDLOC_03","TDLOC_04","TD_RT_01","TD_RT_02","TD_RT_03","TD_RT_04","TD_SUBJ_RTs","number_of_plays","responses","slider_start","response","question_order","syllable","syllable_type"
"pavlovia","0","5","0.0-0.0","1","0","uwkzcgwxxq4k04d","","","","","","","","","","","","","","","","","","","","","","","","","","","","","","","","","","","","","",""
"instructions","1","56682","0.0-1.0","1","0","uwkzcgwxxq4k04d","[{""page_index"":0,""viewing_time"":46940},{""page_index"":1,""viewing_time"":9735.10000000894}]","56677.20000000298","","","","","","","","","","","","","","","","","","","","","","","","","","","","","","","","","","","",""
"external-html","2","68561","0.0-2.0","1","0","uwkzcgwxxq4k04d","","11720.20000000298","consent/consent.html","","","","","","","","","","","","","","","","","","","","","","","","","","","","","","","","","","",""
"html-button-response","3","2261155","0.0-3.0-0.0-0.0","1","0","uwkzcgwxxq4k04d","","217337.20000000298","","<p>Welcome to the study. You will first complete a short volume calibration and headphone check.</p><p>Please make sure you are in a quiet listening environment, that you are wearing headphones, and that your computer's volume is turned on.<p></p>","0","","","","","","","","","","","","","","","","","","","","","","","","","","","","","","","","",""
"html-button-response","4","2274583","0.0-3.0-0.0-1.0","1","0","uwkzcgwxxq4k04d","","13177","","<p>The volume calibration will be first.</p><p>You will hear a thirty-second noise. Please adjust your computer's volume so that this noise is being presented at a comfortable level.<p></p>","0","","","","","","","","","","","","","","","","","","","","","","","","","","","","","","","","",""
"audio-button-response","5","2280846","0.0-3.0-0.0-2.0","1","0","uwkzcgwxxq4k04d","","5472","","audCalib/volumetest.mp3","0","","","","","","","","","","","","","","","","","","","","","","","","","","","","","","","","",""
"html-button-response","6","2290464","0.0-3.0-1.0-0.0","1","0","uwkzcgwxxq4k04d","","9616.70000000298","","<p>You will now complete a short headphone check.</p><p>On each trial, you will hear three tones. One of these tones will be quieter than the others. Your task is to identify whether the quiet tone occured first, second, or third.</p><p>There are six trials in total.<p></p>","0","","","","","","","","","","","","","","","","","","","","","","","","","","","","","","","","",""
"html-keyboard-response","7","2291226","0.0-3.0-1.0-1.0-0.0","1","0","uwkzcgwxxq4k04d","","null","","<div style=""font-size:60px;"">+</div>","","null","","","","","","","","","","","","","","","","","","","","","","","","","","","","","","","",""
"audio-button-response","8","2296374","0.0-3.0-1.0-1.0-1.0","1","0","uwkzcgwxxq4k04d","","5147","","audCalib/t3_1.mp3","2","","2","1","headphone-test","","","","","","","","","","","","","","","","","","","","","","","","","","","","",""
"html-keyboard-response","9","2297134","0.0-3.0-1.0-1.0-0.1","1","0","uwkzcgwxxq4k04d","","null","","<div style=""font-size:60px;"">+</div>","","null","","","","","","","","","","","","","","","","","","","","","","","","","","","","","","","",""
"audio-button-response","10","2301732","0.0-3.0-1.0-1.0-1.1","1","0","uwkzcgwxxq4k04d","","4597","","audCalib/t2_2.mp3","1","","1","1","headphone-test","","","","","","","","","","","","","","","","","","","","","","","","","","","","",""
"html-keyboard-response","11","2302492","0.0-3.0-1.0-1.0-0.2","1","0","uwkzcgwxxq4k04d","","null","","<div style=""font-size:60px;"">+</div>","","null","","","","","","","","","","","","","","","","","","","","","","","","","","","","","","","",""
"audio-button-response","12","2307484","0.0-3.0-1.0-1.0-1.2","1","0","uwkzcgwxxq4k04d","","4987","","audCalib/t1_2.mp3","0","","0","1","headphone-test","","","","","","","","","","","","","","","","","","","","","","","","","","","","",""
"html-keyboard-response","13","2308242","0.0-3.0-1.0-1.0-0.3","1","0","uwkzcgwxxq4k04d","","null","","<div style=""font-size:60px;"">+</div>","","null","","","","","","","","","","","","","","","","","","","","","","","","","","","","","","","",""
"audio-button-response","14","2312883","0.0-3.0-1.0-1.0-1.3","1","0","uwkzcgwxxq4k04d","","4640","","audCalib/t3_2.mp3","2","","2","1","headphone-test","","","","","","","","","","","","","","","","","","","","","","","","","","","","",""
"html-keyboard-response","15","2313642","0.0-3.0-1.0-1.0-0.4","1","0","uwkzcgwxxq4k04d","","null","","<div style=""font-size:60px;"">+</div>","","null","","","","","","","","","","","","","","","","","","","","","","","","","","","","","","","",""
"audio-button-response","16","2318635","0.0-3.0-1.0-1.0-1.4","1","0","uwkzcgwxxq4k04d","","4992","","audCalib/t1_1.mp3","0","","0","1","headphone-test","","","","","","","","","","","","","","","","","","","","","","","","","","","","",""
"html-keyboard-response","17","2319393","0.0-3.0-1.0-1.0-0.5","1","0","uwkzcgwxxq4k04d","","null","","<div style=""font-size:60px;"">+</div>","","null","","","","","","","","","","","","","","","","","","","","","","","","","","","","","","","",""
"audio-button-response","18","2323714","0.0-3.0-1.0-1.0-1.5","1","0","uwkzcgwxxq4k04d","","4315","","audCalib/t2_1.mp3","1","","1","1","headphone-test","","","","","","","","","","","","","","","","","","","","","","","","","","","","",""
"html-button-response","19","2326349","0.0-3.0-2.0","1","0","uwkzcgwxxq4k04d","","2378.9000000059605","","<p>The volume calibration and headphone check are now complete.</p>","0","","","","","","","","","","","","","","","","","","","","","","","","","","","","","","","","",""
"instructions","20","2348553","0.0-4.0-0.0","1","0","uwkzcgwxxq4k04d","[{""page_index"":0,""viewing_time"":3259.2000000029802},{""page_index"":1,""viewing_time"":15557.199999988079},{""page_index"":2,""viewing_time"":3387.1000000089407}]","22204.39999999106","","","","","","","","","","","","","","","","","","","","","","","","","","","","","","","","","","","",""
"audio-keyboard-response","21","2348859","0.0-4.0-1.0-0.0","1","0","uwkzcgwxxq4k04d","","null","","sounds/induction/right_rev/ko_SWS.wav","","null","","","","","","","","","","","","","","","","","","","","","","","","","","","","","","","",""
"html-button-response","22","2350540","0.0-4.0-1.0-1.0","1","0","uwkzcgwxxq4k04d","","1678.6000000089407","","Was the sound coming from the left or the right?","1","","","1","INDUCTION-JUDGMENT","right","1","","","","","","","","","","","","","","","","","","","","","","","","","","",""
"html-keyboard-response","23","2351547","0.0-4.0-1.0-2.0","1","0","uwkzcgwxxq4k04d","","null","","<p style=""color:#054d00;""><b>Correct!</b></p>","","null","","","","","","","","","","","","","","","","","","","","","","","","","","","","","","","",""
"audio-keyboard-response","24","2352352","0.0-4.0-1.0-0.1","1","0","uwkzcgwxxq4k04d","","null","","sounds/induction/left_rev/pu_SWS.wav","","null","","","","","","","","","","","","","","","","","","","","","","","","","","","","","","","",""
"html-button-response","25","2354097","0.0-4.0-1.0-1.1","1","0","uwkzcgwxxq4k04d","","1743.2000000029802","","Was the sound coming from the left or the right?","0","","","1","INDUCTION-JUDGMENT","left","0","","","","","","","","","","","","","","","","","","","","","","","","","","",""
"html-keyboard-response","26","2355100","0.0-4.0-1.0-2.1","1","0","uwkzcgwxxq4k04d","","null","","<p style=""color:#054d00;""><b>Correct!</b></p>","","null","","","","","","","","","","","","","","","","","","","","","","","","","","","","","","","",""
"audio-keyboard-response","27","2355909","0.0-4.0-1.0-0.2","1","0","uwkzcgwxxq4k04d","","null","","sounds/induction/left_rev/ge_SWS.wav","","null","","","","","","","","","","","","","","","","","","","","","","","","","","","","","","","",""
"html-button-response","28","2356957","0.0-4.0-1.0-1.2","1","0","uwkzcgwxxq4k04d","","1046.5999999940395","","Was the sound coming from the left or the right?","0","","","1","INDUCTION-JUDGMENT","left","0","","","","","","","","","","","","","","","","","","","","","","","","","","",""
"html-keyboard-response","29","2357960","0.0-4.0-1.0-2.2","1","0","uwkzcgwxxq4k04d","","null","","<p style=""color:#054d00;""><b>Correct!</b></p>","","null","","","","","","","","","","","","","","","","","","","","","","","","","","","","","","","",""
"audio-keyboard-response","30","2358768","0.0-4.0-1.0-0.3","1","0","uwkzcgwxxq4k04d","","null","","sounds/induction/left_rev/ni_SWS.wav","","null","","","","","","","","","","","","","","","","","","","","","","","","","","","","","","","",""
"html-button-response","31","2359977","0.0-4.0-1.0-1.3","1","0","uwkzcgwxxq4k04d","","1208.0999999940395","","Was the sound coming from the left or the right?","0","","","1","INDUCTION-JUDGMENT","left","0","","","","","","","","","","","","","","","","","","","","","","","","","","",""
"html-keyboard-response","32","2360984","0.0-4.0-1.0-2.3","1","0","uwkzcgwxxq4k04d","","null","","<p style=""color:#054d00;""><b>Correct!</b></p>","","null","","","","","","","","","","","","","","","","","","","","","","","","","","","","","","","",""
"audio-keyboard-response","33","2361786","0.0-4.0-1.0-0.4","1","0","uwkzcgwxxq4k04d","","null","","sounds/induction/right_rev/fu_SWS.wav","","null","","","","","","","","","","","","","","","","","","","","","","","","","","","","","","","",""
"html-button-response","34","2363656","0.0-4.0-1.0-1.4","1","0","uwkzcgwxxq4k04d","","1869.5","","Was the sound coming from the left or the right?","1","","","1","INDUCTION-JUDGMENT","right","1","","","","","","","","","","","","","","","","","","","","","","","","","","",""
"html-keyboard-response","35","2364658","0.0-4.0-1.0-2.4","1","0","uwkzcgwxxq4k04d","","null","","<p style=""color:#054d00;""><b>Correct!</b></p>","","null","","","","","","","","","","","","","","","","","","","","","","","","","","","","","","","",""
"audio-keyboard-response","36","2365466","0.0-4.0-1.0-0.5","1","0","uwkzcgwxxq4k04d","","null","","sounds/induction/left_rev/su_SWS.wav","","null","","","","","","","","","","","","","","","","","","","","","","","","","","","","","","","",""
"html-button-response","37","2366740","0.0-4.0-1.0-1.5","1","0","uwkzcgwxxq4k04d","","1272.5","","Was the sound coming from the left or the right?","0","","","1","INDUCTION-JUDGMENT","left","0","","","","","","","","","","","","","","","","","","","","","","","","","","",""
"html-keyboard-response","38","2367741","0.0-4.0-1.0-2.5","1","0","uwkzcgwxxq4k04d","","null","","<p style=""color:#054d00;""><b>Correct!</b></p>","","null","","","","","","","","","","","","","","","","","","","","","","","","","","","","","","","",""
"audio-keyboard-response","39","2368548","0.0-4.0-1.0-0.6","1","0","uwkzcgwxxq4k04d","","null","","sounds/induction/right_rev/re_SWS.wav","","null","","","","","","","","","","","","","","","","","","","","","","","","","","","","","","","",""
"html-button-response","40","2369392","0.0-4.0-1.0-1.6","1","0","uwkzcgwxxq4k04d","","841.9000000059605","","Was the sound coming from the left or the right?","1","","","1","INDUCTION-JUDGMENT","right","1","","","","","","","","","","","","","","","","","","","","","","","","","","",""
"html-keyboard-response","41","2370393","0.0-4.0-1.0-2.6","1","0","uwkzcgwxxq4k04d","","null","","<p style=""color:#054d00;""><b>Correct!</b></p>","","null","","","","","","","","","","","","","","","","","","","","","","","","","","","","","","","",""
"audio-keyboard-response","42","2371199","0.0-4.0-1.0-0.7","1","0","uwkzcgwxxq4k04d","","null","","sounds/induction/right_rev/me_SWS.wav","","null","","","","","","","","","","","","","","","","","","","","","","","","","","","","","","","",""
"html-button-response","43","2371859","0.0-4.0-1.0-1.7","1","0","uwkzcgwxxq4k04d","","658.0999999940395","","Was the sound coming from the left or the right?","1","","","1","INDUCTION-JUDGMENT","right","1","","","","","","","","","","","","","","","","","","","","","","","","","","",""
"html-keyboard-response","44","2372865","0.0-4.0-1.0-2.7","1","0","uwkzcgwxxq4k04d","","null","","<p style=""color:#054d00;""><b>Correct!</b></p>","","null","","","","","","","","","","","","","","","","","","","","","","","","","","","","","","","",""
"audio-keyboard-response","45","2373668","0.0-4.0-1.0-0.8","1","0","uwkzcgwxxq4k04d","","null","","sounds/induction/left_rev/ta_SWS.wav","","null","","","","","","","","","","","","","","","","","","","","","","","","","","","","","","","",""
"html-button-response","46","2374446","0.0-4.0-1.0-1.8","1","0","uwkzcgwxxq4k04d","","776","","Was the sound coming from the left or the right?","0","","","1","INDUCTION-JUDGMENT","left","0","","","","","","","","","","","","","","","","","","","","","","","","","","",""
"html-keyboard-response","47","2375450","0.0-4.0-1.0-2.8","1","0","uwkzcgwxxq4k04d","","null","","<p style=""color:#054d00;""><b>Correct!</b></p>","","null","","","","","","","","","","","","","","","","","","","","","","","","","","","","","","","",""
"audio-keyboard-response","48","2376260","0.0-4.0-1.0-0.9","1","0","uwkzcgwxxq4k04d","","null","","sounds/induction/right_rev/ta_SWS.wav","","null","","","","","","","","","","","","","","","","","","","","","","","","","","","","","","","",""
"html-button-response","49","2377122","0.0-4.0-1.0-1.9","1","0","uwkzcgwxxq4k04d","","860.2999999970198","","Was the sound coming from the left or the right?","1","","","1","INDUCTION-JUDGMENT","right","1","","","","","","","","","","","","","","","","","","","","","","","","","","",""
"html-keyboard-response","50","2378125","0.0-4.0-1.0-2.9","1","0","uwkzcgwxxq4k04d","","null","","<p style=""color:#054d00;""><b>Correct!</b></p>","","null","","","","","","","","","","","","","","","","","","","","","","","","","","","","","","","",""
"audio-keyboard-response","51","2378927","0.0-4.0-1.0-0.10","1","0","uwkzcgwxxq4k04d","","null","","sounds/induction/right_rev/ta_SWS.wav","","null","","","","","","","","","","","","","","","","","","","","","","","","","","","","","","","",""
"html-button-response","52","2380239","0.0-4.0-1.0-1.10","1","0","uwkzcgwxxq4k04d","","1310.5","","Was the sound coming from the left or the right?","1","","","1","INDUCTION-JUDGMENT","right","1","","","","","","","","","","","","","","","","","","","","","","","","","","",""
"html-keyboard-response","53","2381242","0.0-4.0-1.0-2.10","1","0","uwkzcgwxxq4k04d","","null","","<p style=""color:#054d00;""><b>Correct!</b></p>","","null","","","","","","","","","","","","","","","","","","","","","","","","","","","","","","","",""
"audio-keyboard-response","54","2382046","0.0-4.0-1.0-0.11","1","0","uwkzcgwxxq4k04d","","null","","sounds/induction/left_rev/ni_SWS.wav","","null","","","","","","","","","","","","","","","","","","","","","","","","","","","","","","","",""
"html-button-response","55","2382842","0.0-4.0-1.0-1.11","1","0","uwkzcgwxxq4k04d","","794.1999999880791","","Was the sound coming from the left or the right?","0","","","1","INDUCTION-JUDGMENT","left","0","","","","","","","","","","","","","","","","","","","","","","","","","","",""
"html-keyboard-response","56","2383849","0.0-4.0-1.0-2.11","1","0","uwkzcgwxxq4k04d","","null","","<p style=""color:#054d00;""><b>Correct!</b></p>","","null","","","","","","","","","","","","","","","","","","","","","","","","","","","","","","","",""
"audio-keyboard-response","57","2384649","0.0-4.0-1.0-0.12","1","0","uwkzcgwxxq4k04d","","null","","sounds/induction/left_rev/ko_SWS.wav","","null","","","","","","","","","","","","","","","","","","","","","","","","","","","","","","","",""
"html-button-response","58","2385366","0.0-4.0-1.0-1.12","1","0","uwkzcgwxxq4k04d","","715.8999999910593","","Was the sound coming from the left or the right?","0","","","1","INDUCTION-JUDGMENT","left","0","","","","","","","","","","","","","","","","","","","","","","","","","","",""
"html-keyboard-response","59","2386370","0.0-4.0-1.0-2.12","1","0","uwkzcgwxxq4k04d","","null","","<p style=""color:#054d00;""><b>Correct!</b></p>","","null","","","","","","","","","","","","","","","","","","","","","","","","","","","","","","","",""
"audio-keyboard-response","60","2387177","0.0-4.0-1.0-0.13","1","0","uwkzcgwxxq4k04d","","null","","sounds/induction/left_rev/ru_SWS.wav","","null","","","","","","","","","","","","","","","","","","","","","","","","","","","","","","","",""
"html-button-response","61","2387815","0.0-4.0-1.0-1.13","1","0","uwkzcgwxxq4k04d","","637.1000000089407","","Was the sound coming from the left or the right?","0","","","1","INDUCTION-JUDGMENT","left","0","","","","","","","","","","","","","","","","","","","","","","","","","","",""
"html-keyboard-response","62","2388818","0.0-4.0-1.0-2.13","1","0","uwkzcgwxxq4k04d","","null","","<p style=""color:#054d00;""><b>Correct!</b></p>","","null","","","","","","","","","","","","","","","","","","","","","","","","","","","","","","","",""
"audio-keyboard-response","63","2389625","0.0-4.0-1.0-0.14","1","0","uwkzcgwxxq4k04d","","null","","sounds/induction/right_rev/ni_SWS.wav","","null","","","","","","","","","","","","","","","","","","","","","","","","","","","","","","","",""
"html-button-response","64","2390438","0.0-4.0-1.0-1.14","1","0","uwkzcgwxxq4k04d","","811.2000000029802","","Was the sound coming from the left or the right?","1","","","1","INDUCTION-JUDGMENT","right","1","","","","","","","","","","","","","","","","","","","","","","","","","","",""
"html-keyboard-response","65","2391442","0.0-4.0-1.0-2.14","1","0","uwkzcgwxxq4k04d","","null","","<p style=""color:#054d00;""><b>Correct!</b></p>","","null","","","","","","","","","","","","","","","","","","","","","","","","","","","","","","","",""
"audio-keyboard-response","66","2392249","0.0-4.0-1.0-0.15","1","0","uwkzcgwxxq4k04d","","null","","sounds/induction/left_rev/ti_SWS.wav","","null","","","","","","","","","","","","","","","","","","","","","","","","","","","","","","","",""
"html-button-response","67","2392857","0.0-4.0-1.0-1.15","1","0","uwkzcgwxxq4k04d","","606.8000000119209","","Was the sound coming from the left or the right?","0","","","1","INDUCTION-JUDGMENT","left","0","","","","","","","","","","","","","","","","","","","","","","","","","","",""
"html-keyboard-response","68","2393860","0.0-4.0-1.0-2.15","1","0","uwkzcgwxxq4k04d","","null","","<p style=""color:#054d00;""><b>Correct!</b></p>","","null","","","","","","","","","","","","","","","","","","","","","","","","","","","","","","","",""
"audio-keyboard-response","69","2394664","0.0-4.0-1.0-0.16","1","0","uwkzcgwxxq4k04d","","null","","sounds/induction/right_rev/ti_SWS.wav","","null","","","","","","","","","","","","","","","","","","","","","","","","","","","","","","","",""
"html-button-response","70","2395309","0.0-4.0-1.0-1.16","1","0","uwkzcgwxxq4k04d","","640","","Was the sound coming from the left or the right?","1","","","1","INDUCTION-JUDGMENT","right","1","","","","","","","","","","","","","","","","","","","","","","","","","","",""
"html-keyboard-response","71","2396311","0.0-4.0-1.0-2.16","1","0","uwkzcgwxxq4k04d","","null","","<p style=""color:#054d00;""><b>Correct!</b></p>","","null","","","","","","","","","","","","","","","","","","","","","","","","","","","","","","","",""
"audio-keyboard-response","72","2397118","0.0-4.0-1.0-0.17","1","0","uwkzcgwxxq4k04d","","null","","sounds/induction/right_rev/pu_SWS.wav","","null","","","","","","","","","","","","","","","","","","","","","","","","","","","","","","","",""
"html-button-response","73","2397800","0.0-4.0-1.0-1.17","1","0","uwkzcgwxxq4k04d","","679.9000000059605","","Was the sound coming from the left or the right?","1","","","1","INDUCTION-JUDGMENT","right","1","","","","","","","","","","","","","","","","","","","","","","","","","","",""
"html-keyboard-response","74","2398806","0.0-4.0-1.0-2.17","1","0","uwkzcgwxxq4k04d","","null","","<p style=""color:#054d00;""><b>Correct!</b></p>","","null","","","","","","","","","","","","","","","","","","","","","","","","","","","","","","","",""
"audio-keyboard-response","75","2399608","0.0-4.0-1.0-0.18","1","0","uwkzcgwxxq4k04d","","null","","sounds/induction/left_rev/ru_SWS.wav","","null","","","","","","","","","","","","","","","","","","","","","","","","","","","","","","","",""
"html-button-response","76","2400275","0.0-4.0-1.0-1.18","1","0","uwkzcgwxxq4k04d","","664.5999999940395","","Was the sound coming from the left or the right?","0","","","1","INDUCTION-JUDGMENT","left","0","","","","","","","","","","","","","","","","","","","","","","","","","","",""
"html-keyboard-response","77","2401279","0.0-4.0-1.0-2.18","1","0","uwkzcgwxxq4k04d","","null","","<p style=""color:#054d00;""><b>Correct!</b></p>","","null","","","","","","","","","","","","","","","","","","","","","","","","","","","","","","","",""
"audio-keyboard-response","78","2402088","0.0-4.0-1.0-0.19","1","0","uwkzcgwxxq4k04d","","null","","sounds/induction/right_rev/ru_SWS.wav","","null","","","","","","","","","","","","","","","","","","","","","","","","","","","","","","","",""
"html-button-response","79","2402824","0.0-4.0-1.0-1.19","1","0","uwkzcgwxxq4k04d","","733.5","","Was the sound coming from the left or the right?","1","","","1","INDUCTION-JUDGMENT","right","1","","","","","","","","","","","","","","","","","","","","","","","","","","",""
"html-keyboard-response","80","2403829","0.0-4.0-1.0-2.19","1","0","uwkzcgwxxq4k04d","","null","","<p style=""color:#054d00;""><b>Correct!</b></p>","","null","","","","","","","","","","","","","","","","","","","","","","","","","","","","","","","",""
"audio-keyboard-response","81","2404632","0.0-4.0-1.0-0.20","1","0","uwkzcgwxxq4k04d","","null","","sounds/induction/right_rev/ko_SWS.wav","","null","","","","","","","","","","","","","","","","","","","","","","","","","","","","","","","",""
"html-button-response","82","2405315","0.0-4.0-1.0-1.20","1","0","uwkzcgwxxq4k04d","","680.8999999910593","","Was the sound coming from the left or the right?","1","","","1","INDUCTION-JUDGMENT","right","1","","","","","","","","","","","","","","","","","","","","","","","","","","",""
"html-keyboard-response","83","2406318","0.0-4.0-1.0-2.20","1","0","uwkzcgwxxq4k04d","","null","","<p style=""color:#054d00;""><b>Correct!</b></p>","","null","","","","","","","","","","","","","","","","","","","","","","","","","","","","","","","",""
"audio-keyboard-response","84","2407122","0.0-4.0-1.0-0.21","1","0","uwkzcgwxxq4k04d","","null","","sounds/induction/left_rev/fe_SWS.wav","","null","","","","","","","","","","","","","","","","","","","","","","","","","","","","","","","",""
"html-button-response","85","2407758","0.0-4.0-1.0-1.21","1","0","uwkzcgwxxq4k04d","","633.7000000029802","","Was the sound coming from the left or the right?","0","","","1","INDUCTION-JUDGMENT","left","0","","","","","","","","","","","","","","","","","","","","","","","","","","",""
"html-keyboard-response","86","2408764","0.0-4.0-1.0-2.21","1","0","uwkzcgwxxq4k04d","","null","","<p style=""color:#054d00;""><b>Correct!</b></p>","","null","","","","","","","","","","","","","","","","","","","","","","","","","","","","","","","",""
"audio-keyboard-response","87","2409565","0.0-4.0-1.0-0.22","1","0","uwkzcgwxxq4k04d","","null","","sounds/induction/right_rev/ru_SWS.wav","","null","","","","","","","","","","","","","","","","","","","","","","","","","","","","","","","",""
"html-button-response","88","2410186","0.0-4.0-1.0-1.22","1","0","uwkzcgwxxq4k04d","","618.5","","Was the sound coming from the left or the right?","1","","","1","INDUCTION-JUDGMENT","right","1","","","","","","","","","","","","","","","","","","","","","","","","","","",""
"html-keyboard-response","89","2411192","0.0-4.0-1.0-2.22","1","0","uwkzcgwxxq4k04d","","null","","<p style=""color:#054d00;""><b>Correct!</b></p>","","null","","","","","","","","","","","","","","","","","","","","","","","","","","","","","","","",""
"audio-keyboard-response","90","2411992","0.0-4.0-1.0-0.23","1","0","uwkzcgwxxq4k04d","","null","","sounds/induction/left_rev/pu_SWS.wav","","null","","","","","","","","","","","","","","","","","","","","","","","","","","","","","","","",""
"html-button-response","91","2412685","0.0-4.0-1.0-1.23","1","0","uwkzcgwxxq4k04d","","691.2999999970198","","Was the sound coming from the left or the right?","0","","","1","INDUCTION-JUDGMENT","left","0","","","","","","","","","","","","","","","","","","","","","","","","","","",""
"html-keyboard-response","92","2413692","0.0-4.0-1.0-2.23","1","0","uwkzcgwxxq4k04d","","null","","<p style=""color:#054d00;""><b>Correct!</b></p>","","null","","","","","","","","","","","","","","","","","","","","","","","","","","","","","","","",""
"audio-keyboard-response","93","2414498","0.0-4.0-1.0-0.24","1","0","uwkzcgwxxq4k04d","","null","","sounds/induction/left_rev/ti_SWS.wav","","null","","","","","","","","","","","","","","","","","","","","","","","","","","","","","","","",""
"html-button-response","94","2415305","0.0-4.0-1.0-1.24","1","0","uwkzcgwxxq4k04d","","804.6000000089407","","Was the sound coming from the left or the right?","0","","","1","INDUCTION-JUDGMENT","left","0","","","","","","","","","","","","","","","","","","","","","","","","","","",""
"html-keyboard-response","95","2416309","0.0-4.0-1.0-2.24","1","0","uwkzcgwxxq4k04d","","null","","<p style=""color:#054d00;""><b>Correct!</b></p>","","null","","","","","","","","","","","","","","","","","","","","","","","","","","","","","","","",""
"audio-keyboard-response","96","2417117","0.0-4.0-1.0-0.25","1","0","uwkzcgwxxq4k04d","","null","","sounds/induction/right_rev/ti_SWS.wav","","null","","","","","","","","","","","","","","","","","","","","","","","","","","","","","","","",""
"html-button-response","97","2417717","0.0-4.0-1.0-1.25","1","0","uwkzcgwxxq4k04d","","597.7000000029802","","Was the sound coming from the left or the right?","1","","","1","INDUCTION-JUDGMENT","right","1","","","","","","","","","","","","","","","","","","","","","","","","","","",""
"html-keyboard-response","98","2418721","0.0-4.0-1.0-2.25","1","0","uwkzcgwxxq4k04d","","null","","<p style=""color:#054d00;""><b>Correct!</b></p>","","null","","","","","","","","","","","","","","","","","","","","","","","","","","","","","","","",""
"audio-keyboard-response","99","2419527","0.0-4.0-1.0-0.26","1","0","uwkzcgwxxq4k04d","","null","","sounds/induction/left_rev/re_SWS.wav","","null","","","","","","","","","","","","","","","","","","","","","","","","","","","","","","","",""
"html-button-response","100","2420368","0.0-4.0-1.0-1.26","1","0","uwkzcgwxxq4k04d","","838.2999999970198","","Was the sound coming from the left or the right?","0","","","1","INDUCTION-JUDGMENT","left","0","","","","","","","","","","","","","","","","","","","","","","","","","","",""
"html-keyboard-response","101","2421375","0.0-4.0-1.0-2.26","1","0","uwkzcgwxxq4k04d","","null","","<p style=""color:#054d00;""><b>Correct!</b></p>","","null","","","","","","","","","","","","","","","","","","","","","","","","","","","","","","","",""
"audio-keyboard-response","102","2422178","0.0-4.0-1.0-0.27","1","0","uwkzcgwxxq4k04d","","null","","sounds/induction/right_rev/su_SWS.wav","","null","","","","","","","","","","","","","","","","","","","","","","","","","","","","","","","",""
"html-button-response","103","2423013","0.0-4.0-1.0-1.27","1","0","uwkzcgwxxq4k04d","","833.2999999970198","","Was the sound coming from the left or the right?","1","","","1","INDUCTION-JUDGMENT","right","1","","","","","","","","","","","","","","","","","","","","","","","","","","",""
"html-keyboard-response","104","2424017","0.0-4.0-1.0-2.27","1","0","uwkzcgwxxq4k04d","","null","","<p style=""color:#054d00;""><b>Correct!</b></p>","","null","","","","","","","","","","","","","","","","","","","","","","","","","","","","","","","",""
"audio-keyboard-response","105","2424823","0.0-4.0-1.0-0.28","1","0","uwkzcgwxxq4k04d","","null","","sounds/induction/right_rev/fe_SWS.wav","","null","","","","","","","","","","","","","","","","","","","","","","","","","","","","","","","",""
"html-button-response","106","2425807","0.0-4.0-1.0-1.28","1","0","uwkzcgwxxq4k04d","","981.5999999940395","","Was the sound coming from the left or the right?","1","","","1","INDUCTION-JUDGMENT","right","1","","","","","","","","","","","","","","","","","","","","","","","","","","",""
"html-keyboard-response","107","2426813","0.0-4.0-1.0-2.28","1","0","uwkzcgwxxq4k04d","","null","","<p style=""color:#054d00;""><b>Correct!</b></p>","","null","","","","","","","","","","","","","","","","","","","","","","","","","","","","","","","",""
"audio-keyboard-response","108","2427617","0.0-4.0-1.0-0.29","1","0","uwkzcgwxxq4k04d","","null","","sounds/induction/left_rev/fu_SWS.wav","","null","","","","","","","","","","","","","","","","","","","","","","","","","","","","","","","",""
"html-button-response","109","2428274","0.0-4.0-1.0-1.29","1","0","uwkzcgwxxq4k04d","","654.3000000119209","","Was the sound coming from the left or the right?","0","","","1","INDUCTION-JUDGMENT","left","0","","","","","","","","","","","","","","","","","","","","","","","","","","",""
"html-keyboard-response","110","2429281","0.0-4.0-1.0-2.29","1","0","uwkzcgwxxq4k04d","","null","","<p style=""color:#054d00;""><b>Correct!</b></p>","","null","","","","","","","","","","","","","","","","","","","","","","","","","","","","","","","",""
"audio-keyboard-response","111","2430086","0.0-4.0-1.0-0.30","1","0","uwkzcgwxxq4k04d","","null","","sounds/induction/left_rev/me_SWS.wav","","null","","","","","","","","","","","","","","","","","","","","","","","","","","","","","","","",""
"html-button-response","112","2430677","0.0-4.0-1.0-1.30","1","0","uwkzcgwxxq4k04d","","588.2999999970198","","Was the sound coming from the left or the right?","0","","","1","INDUCTION-JUDGMENT","left","0","","","","","","","","","","","","","","","","","","","","","","","","","","",""
"html-keyboard-response","113","2431683","0.0-4.0-1.0-2.30","1","0","uwkzcgwxxq4k04d","","null","","<p style=""color:#054d00;""><b>Correct!</b></p>","","null","","","","","","","","","","","","","","","","","","","","","","","","","","","","","","","",""
"audio-keyboard-response","114","2432492","0.0-4.0-1.0-0.31","1","0","uwkzcgwxxq4k04d","","null","","sounds/induction/left_rev/fu_SWS.wav","","null","","","","","","","","","","","","","","","","","","","","","","","","","","","","","","","",""
"html-button-response","115","2433168","0.0-4.0-1.0-1.31","1","0","uwkzcgwxxq4k04d","","673.7000000029802","","Was the sound coming from the left or the right?","0","","","1","INDUCTION-JUDGMENT","left","0","","","","","","","","","","","","","","","","","","","","","","","","","","",""
"html-keyboard-response","116","2434171","0.0-4.0-1.0-2.31","1","0","uwkzcgwxxq4k04d","","null","","<p style=""color:#054d00;""><b>Correct!</b></p>","","null","","","","","","","","","","","","","","","","","","","","","","","","","","","","","","","",""
"audio-keyboard-response","117","2434977","0.0-4.0-1.0-0.32","1","0","uwkzcgwxxq4k04d","","null","","sounds/induction/right_rev/me_SWS.wav","","null","","","","","","","","","","","","","","","","","","","","","","","","","","","","","","","",""
"html-button-response","118","2435644","0.0-4.0-1.0-1.32","1","0","uwkzcgwxxq4k04d","","664","","Was the sound coming from the left or the right?","1","","","1","INDUCTION-JUDGMENT","right","1","","","","","","","","","","","","","","","","","","","","","","","","","","",""
"html-keyboard-response","119","2436650","0.0-4.0-1.0-2.32","1","0","uwkzcgwxxq4k04d","","null","","<p style=""color:#054d00;""><b>Correct!</b></p>","","null","","","","","","","","","","","","","","","","","","","","","","","","","","","","","","","",""
"audio-keyboard-response","120","2437457","0.0-4.0-1.0-0.33","1","0","uwkzcgwxxq4k04d","","null","","sounds/induction/right_rev/fu_SWS.wav","","null","","","","","","","","","","","","","","","","","","","","","","","","","","","","","","","",""
"html-button-response","121","2438151","0.0-4.0-1.0-1.33","1","0","uwkzcgwxxq4k04d","","691.7999999970198","","Was the sound coming from the left or the right?","1","","","1","INDUCTION-JUDGMENT","right","1","","","","","","","","","","","","","","","","","","","","","","","","","","",""
"html-keyboard-response","122","2439155","0.0-4.0-1.0-2.33","1","0","uwkzcgwxxq4k04d","","null","","<p style=""color:#054d00;""><b>Correct!</b></p>","","null","","","","","","","","","","","","","","","","","","","","","","","","","","","","","","","",""
"audio-keyboard-response","123","2439963","0.0-4.0-1.0-0.34","1","0","uwkzcgwxxq4k04d","","null","","sounds/induction/right_rev/ni_SWS.wav","","null","","","","","","","","","","","","","","","","","","","","","","","","","","","","","","","",""
"html-button-response","124","2440594","0.0-4.0-1.0-1.34","1","0","uwkzcgwxxq4k04d","","627.5999999940395","","Was the sound coming from the left or the right?","1","","","1","INDUCTION-JUDGMENT","right","1","","","","","","","","","","","","","","","","","","","","","","","","","","",""
"html-keyboard-response","125","2441600","0.0-4.0-1.0-2.34","1","0","uwkzcgwxxq4k04d","","null","","<p style=""color:#054d00;""><b>Correct!</b></p>","","null","","","","","","","","","","","","","","","","","","","","","","","","","","","","","","","",""
"audio-keyboard-response","126","2442406","0.0-4.0-1.0-0.35","1","0","uwkzcgwxxq4k04d","","null","","sounds/induction/left_rev/su_SWS.wav","","null","","","","","","","","","","","","","","","","","","","","","","","","","","","","","","","",""
"html-button-response","127","2443453","0.0-4.0-1.0-1.35","1","0","uwkzcgwxxq4k04d","","1044.7999999970198","","Was the sound coming from the left or the right?","0","","","1","INDUCTION-JUDGMENT","left","0","","","","","","","","","","","","","","","","","","","","","","","","","","",""
"html-keyboard-response","128","2444459","0.0-4.0-1.0-2.35","1","0","uwkzcgwxxq4k04d","","null","","<p style=""color:#054d00;""><b>Correct!</b></p>","","null","","","","","","","","","","","","","","","","","","","","","","","","","","","","","","","",""
"audio-keyboard-response","129","2445264","0.0-4.0-1.0-0.36","1","0","uwkzcgwxxq4k04d","","null","","sounds/induction/left_rev/me_SWS.wav","","null","","","","","","","","","","","","","","","","","","","","","","","","","","","","","","","",""
"html-button-response","130","2445888","0.0-4.0-1.0-1.36","1","0","uwkzcgwxxq4k04d","","621.2999999970198","","Was the sound coming from the left or the right?","0","","","1","INDUCTION-JUDGMENT","left","0","","","","","","","","","","","","","","","","","","","","","","","","","","",""
"html-keyboard-response","131","2446891","0.0-4.0-1.0-2.36","1","0","uwkzcgwxxq4k04d","","null","","<p style=""color:#054d00;""><b>Correct!</b></p>","","null","","","","","","","","","","","","","","","","","","","","","","","","","","","","","","","",""
"audio-keyboard-response","132","2447696","0.0-4.0-1.0-0.37","1","0","uwkzcgwxxq4k04d","","null","","sounds/induction/right_rev/pu_SWS.wav","","null","","","","","","","","","","","","","","","","","","","","","","","","","","","","","","","",""
"html-button-response","133","2448307","0.0-4.0-1.0-1.37","1","0","uwkzcgwxxq4k04d","","609.2999999970198","","Was the sound coming from the left or the right?","1","","","1","INDUCTION-JUDGMENT","right","1","","","","","","","","","","","","","","","","","","","","","","","","","","",""
"html-keyboard-response","134","2449314","0.0-4.0-1.0-2.37","1","0","uwkzcgwxxq4k04d","","null","","<p style=""color:#054d00;""><b>Correct!</b></p>","","null","","","","","","","","","","","","","","","","","","","","","","","","","","","","","","","",""
"audio-keyboard-response","135","2450117","0.0-4.0-1.0-0.38","1","0","uwkzcgwxxq4k04d","","null","","sounds/induction/left_rev/ge_SWS.wav","","null","","","","","","","","","","","","","","","","","","","","","","","","","","","","","","","",""
"html-button-response","136","2450742","0.0-4.0-1.0-1.38","1","0","uwkzcgwxxq4k04d","","623.0999999940395","","Was the sound coming from the left or the right?","0","","","1","INDUCTION-JUDGMENT","left","0","","","","","","","","","","","","","","","","","","","","","","","","","","",""
"html-keyboard-response","137","2451744","0.0-4.0-1.0-2.38","1","0","uwkzcgwxxq4k04d","","null","","<p style=""color:#054d00;""><b>Correct!</b></p>","","null","","","","","","","","","","","","","","","","","","","","","","","","","","","","","","","",""
"audio-keyboard-response","138","2452549","0.0-4.0-1.0-0.39","1","0","uwkzcgwxxq4k04d","","null","","sounds/induction/left_rev/fe_SWS.wav","","null","","","","","","","","","","","","","","","","","","","","","","","","","","","","","","","",""
"html-button-response","139","2453153","0.0-4.0-1.0-1.39","1","0","uwkzcgwxxq4k04d","","602.4000000059605","","Was the sound coming from the left or the right?","0","","","1","INDUCTION-JUDGMENT","left","0","","","","","","","","","","","","","","","","","","","","","","","","","","",""
"html-keyboard-response","140","2454158","0.0-4.0-1.0-2.39","1","0","uwkzcgwxxq4k04d","","null","","<p style=""color:#054d00;""><b>Correct!</b></p>","","null","","","","","","","","","","","","","","","","","","","","","","","","","","","","","","","",""
"audio-keyboard-response","141","2454960","0.0-4.0-1.0-0.40","1","0","uwkzcgwxxq4k04d","","null","","sounds/induction/right_rev/fe_SWS.wav","","null","","","","","","","","","","","","","","","","","","","","","","","","","","","","","","","",""
"html-button-response","142","2455548","0.0-4.0-1.0-1.40","1","0","uwkzcgwxxq4k04d","","586.8000000119209","","Was the sound coming from the left or the right?","1","","","1","INDUCTION-JUDGMENT","right","1","","","","","","","","","","","","","","","","","","","","","","","","","","",""
"html-keyboard-response","143","2456550","0.0-4.0-1.0-2.40","1","0","uwkzcgwxxq4k04d","","null","","<p style=""color:#054d00;""><b>Correct!</b></p>","","null","","","","","","","","","","","","","","","","","","","","","","","","","","","","","","","",""
"audio-keyboard-response","144","2457354","0.0-4.0-1.0-0.41","1","0","uwkzcgwxxq4k04d","","null","","sounds/induction/right_rev/su_SWS.wav","","null","","","","","","","","","","","","","","","","","","","","","","","","","","","","","","","",""
"html-button-response","145","2458008","0.0-4.0-1.0-1.41","1","0","uwkzcgwxxq4k04d","","652","","Was the sound coming from the left or the right?","1","","","1","INDUCTION-JUDGMENT","right","1","","","","","","","","","","","","","","","","","","","","","","","","","","",""
"html-keyboard-response","146","2459014","0.0-4.0-1.0-2.41","1","0","uwkzcgwxxq4k04d","","null","","<p style=""color:#054d00;""><b>Correct!</b></p>","","null","","","","","","","","","","","","","","","","","","","","","","","","","","","","","","","",""
"audio-keyboard-response","147","2459824","0.0-4.0-1.0-0.42","1","0","uwkzcgwxxq4k04d","","null","","sounds/induction/left_rev/re_SWS.wav","","null","","","","","","","","","","","","","","","","","","","","","","","","","","","","","","","",""
"html-button-response","148","2460451","0.0-4.0-1.0-1.42","1","0","uwkzcgwxxq4k04d","","625.7000000029802","","Was the sound coming from the left or the right?","0","","","1","INDUCTION-JUDGMENT","left","0","","","","","","","","","","","","","","","","","","","","","","","","","","",""
"html-keyboard-response","149","2461457","0.0-4.0-1.0-2.42","1","0","uwkzcgwxxq4k04d","","null","","<p style=""color:#054d00;""><b>Correct!</b></p>","","null","","","","","","","","","","","","","","","","","","","","","","","","","","","","","","","",""
"audio-keyboard-response","150","2462261","0.0-4.0-1.0-0.43","1","0","uwkzcgwxxq4k04d","","null","","sounds/induction/left_rev/ko_SWS.wav","","null","","","","","","","","","","","","","","","","","","","","","","","","","","","","","","","",""
"html-button-response","151","2462855","0.0-4.0-1.0-1.43","1","0","uwkzcgwxxq4k04d","","592.4000000059605","","Was the sound coming from the left or the right?","0","","","1","INDUCTION-JUDGMENT","left","0","","","","","","","","","","","","","","","","","","","","","","","","","","",""
"html-keyboard-response","152","2463861","0.0-4.0-1.0-2.43","1","0","uwkzcgwxxq4k04d","","null","","<p style=""color:#054d00;""><b>Correct!</b></p>","","null","","","","","","","","","","","","","","","","","","","","","","","","","","","","","","","",""
"audio-keyboard-response","153","2464661","0.0-4.0-1.0-0.44","1","0","uwkzcgwxxq4k04d","","null","","sounds/induction/right_rev/re_SWS.wav","","null","","","","","","","","","","","","","","","","","","","","","","","","","","","","","","","",""
"html-button-response","154","2465282","0.0-4.0-1.0-1.44","1","0","uwkzcgwxxq4k04d","","619.7999999970198","","Was the sound coming from the left or the right?","1","","","1","INDUCTION-JUDGMENT","right","1","","","","","","","","","","","","","","","","","","","","","","","","","","",""
"html-keyboard-response","155","2466284","0.0-4.0-1.0-2.44","1","0","uwkzcgwxxq4k04d","","null","","<p style=""color:#054d00;""><b>Correct!</b></p>","","null","","","","","","","","","","","","","","","","","","","","","","","","","","","","","","","",""
"audio-keyboard-response","156","2467093","0.0-4.0-1.0-0.45","1","0","uwkzcgwxxq4k04d","","null","","sounds/induction/left_rev/ta_SWS.wav","","null","","","","","","","","","","","","","","","","","","","","","","","","","","","","","","","",""
"html-button-response","157","2468014","0.0-4.0-1.0-1.45","1","0","uwkzcgwxxq4k04d","","919.3000000119209","","Was the sound coming from the left or the right?","0","","","1","INDUCTION-JUDGMENT","left","0","","","","","","","","","","","","","","","","","","","","","","","","","","",""
"html-keyboard-response","158","2469016","0.0-4.0-1.0-2.45","1","0","uwkzcgwxxq4k04d","","null","","<p style=""color:#054d00;""><b>Correct!</b></p>","","null","","","","","","","","","","","","","","","","","","","","","","","","","","","","","","","",""
"audio-keyboard-response","159","2469818","0.0-4.0-1.0-0.46","1","0","uwkzcgwxxq4k04d","","null","","sounds/induction/right_rev/ge_SWS.wav","","null","","","","","","","","","","","","","","","","","","","","","","","","","","","","","","","",""
"html-button-response","160","2470457","0.0-4.0-1.0-1.46","1","0","uwkzcgwxxq4k04d","","638","","Was the sound coming from the left or the right?","1","","","1","INDUCTION-JUDGMENT","right","1","","","","","","","","","","","","","","","","","","","","","","","","","","",""
"html-keyboard-response","161","2471463","0.0-4.0-1.0-2.46","1","0","uwkzcgwxxq4k04d","","null","","<p style=""color:#054d00;""><b>Correct!</b></p>","","null","","","","","","","","","","","","","","","","","","","","","","","","","","","","","","","",""
"audio-keyboard-response","162","2472266","0.0-4.0-1.0-0.47","1","0","uwkzcgwxxq4k04d","","null","","sounds/induction/right_rev/ge_SWS.wav","","null","","","","","","","","","","","","","","","","","","","","","","","","","","","","","","","",""
"html-button-response","163","2473287","0.0-4.0-1.0-1.47","1","0","uwkzcgwxxq4k04d","","1020","","Was the sound coming from the left or the right?","1","","","1","INDUCTION-JUDGMENT","right","1","","","","","","","","","","","","","","","","","","","","","","","","","","",""
"html-keyboard-response","164","2474289","0.0-4.0-1.0-2.47","1","0","uwkzcgwxxq4k04d","","null","","<p style=""color:#054d00;""><b>Correct!</b></p>","","null","","","","","","","","","","","","","","","","","","","","","","","","","","","","","","","",""
"html-button-response","165","2483781","0.0-5.0-0.0","1","0","uwkzcgwxxq4k04d","","8989.29999999702","","<p>Thank you for your answers.</p><p>You will now listen to similar sounds. The main difference is that the sounds will be longer.</p><p>Just as before, you will be asked to judge whether the sound was coming from the left or the right.</p><p>There are 10 of these longer sounds in total.","0","","","","","","","","","","","","","","","","","","","","","","","","","","","","","","","","",""
"audio-keyboard-response","166","2486670","0.0-5.0-1.0-0.0","1","0","uwkzcgwxxq4k04d","","null","","sounds/sentences/right_rev/14_07_cfSWS.wav","","null","","","","","","","","","","","","","","","","","","","","","","","","","","","","","","","",""
"html-button-response","167","2487764","0.0-5.0-1.0-1.0","1","0","uwkzcgwxxq4k04d","","1091.2999999970198","","Was the sound coming from the left or the right?","1","","","1","INDUCTION-JUDGMENT","right","1","","","","","","","","","","","","","","","","","","","","","","","","","","",""
"html-keyboard-response","168","2488766","0.0-5.0-1.0-2.0","1","0","uwkzcgwxxq4k04d","","null","","<p style=""color:#054d00;""><b>Correct!</b></p>","","null","","","","","","","","","","","","","","","","","","","","","","","","","","","","","","","",""
"html-button-response","169","2491669","0.0-5.0-1.0-3.0","1","0","uwkzcgwxxq4k04d","","2396.5999999940395","","<p>Press the button below when you are ready to continue.</p>","0","","","","","","","","","","","","","","","","","","","","","","","","","","","","","","","","",""
"audio-keyboard-response","170","2494414","0.0-5.0-1.0-0.1","1","0","uwkzcgwxxq4k04d","","null","","sounds/sentences/right_rev/14_06_cfSWS.wav","","null","","","","","","","","","","","","","","","","","","","","","","","","","","","","","","","",""
"html-button-response","171","2495115","0.0-5.0-1.0-1.1","1","0","uwkzcgwxxq4k04d","","698.2999999970198","","Was the sound coming from the left or the right?","1","","","1","INDUCTION-JUDGMENT","right","1","","","","","","","","","","","","","","","","","","","","","","","","","","",""
"html-keyboard-response","172","2496122","0.0-5.0-1.0-2.1","1","0","uwkzcgwxxq4k04d","","null","","<p style=""color:#054d00;""><b>Correct!</b></p>","","null","","","","","","","","","","","","","","","","","","","","","","","","","","","","","","","",""
"html-button-response","173","2497662","0.0-5.0-1.0-3.1","1","0","uwkzcgwxxq4k04d","","1036.4000000059605","","<p>Press the button below when you are ready to continue.</p>","0","","","","","","","","","","","","","","","","","","","","","","","","","","","","","","","","",""
"audio-keyboard-response","174","2500392","0.0-5.0-1.0-0.2","1","0","uwkzcgwxxq4k04d","","null","","sounds/sentences/right_rev/14_09_cfSWS.wav","","null","","","","","","","","","","","","","","","","","","","","","","","","","","","","","","","",""
"html-button-response","175","2501235","0.0-5.0-1.0-1.2","1","0","uwkzcgwxxq4k04d","","840.4000000059605","","Was the sound coming from the left or the right?","1","","","1","INDUCTION-JUDGMENT","right","1","","","","","","","","","","","","","","","","","","","","","","","","","","",""
"html-keyboard-response","176","2502238","0.0-5.0-1.0-2.2","1","0","uwkzcgwxxq4k04d","","null","","<p style=""color:#054d00;""><b>Correct!</b></p>","","null","","","","","","","","","","","","","","","","","","","","","","","","","","","","","","","",""
"html-button-response","177","2503364","0.0-5.0-1.0-3.2","1","0","uwkzcgwxxq4k04d","","622.1000000089407","","<p>Press the button below when you are ready to continue.</p>","0","","","","","","","","","","","","","","","","","","","","","","","","","","","","","","","","",""
"audio-keyboard-response","178","2506482","0.0-5.0-1.0-0.3","1","0","uwkzcgwxxq4k04d","","null","","sounds/sentences/left_rev/14_01_cfSWS.wav","","null","","","","","","","","","","","","","","","","","","","","","","","","","","","","","","","",""
"html-button-response","179","2507019","0.0-5.0-1.0-1.3","1","0","uwkzcgwxxq4k04d","","533.7000000029802","","Was the sound coming from the left or the right?","0","","","1","INDUCTION-JUDGMENT","left","0","","","","","","","","","","","","","","","","","","","","","","","","","","",""
"html-keyboard-response","180","2508023","0.0-5.0-1.0-2.3","1","0","uwkzcgwxxq4k04d","","null","","<p style=""color:#054d00;""><b>Correct!</b></p>","","null","","","","","","","","","","","","","","","","","","","","","","","","","","","","","","","",""
"html-button-response","181","2509549","0.0-5.0-1.0-3.3","1","0","uwkzcgwxxq4k04d","","1023.5999999940395","","<p>Press the button below when you are ready to continue.</p>","0","","","","","","","","","","","","","","","","","","","","","","","","","","","","","","","","",""
"audio-keyboard-response","182","2512567","0.0-5.0-1.0-0.4","1","0","uwkzcgwxxq4k04d","","null","","sounds/sentences/right_rev/14_10_cfSWS.wav","","null","","","","","","","","","","","","","","","","","","","","","","","","","","","","","","","",""
"html-button-response","183","2513058","0.0-5.0-1.0-1.4","1","0","uwkzcgwxxq4k04d","","487.40000000596046","","Was the sound coming from the left or the right?","1","","","1","INDUCTION-JUDGMENT","right","1","","","","","","","","","","","","","","","","","","","","","","","","","","",""
"html-keyboard-response","184","2514064","0.0-5.0-1.0-2.4","1","0","uwkzcgwxxq4k04d","","null","","<p style=""color:#054d00;""><b>Correct!</b></p>","","null","","","","","","","","","","","","","","","","","","","","","","","","","","","","","","","",""
"html-button-response","185","2515749","0.0-5.0-1.0-3.4","1","0","uwkzcgwxxq4k04d","","1178.300000011921","","<p>Press the button below when you are ready to continue.</p>","0","","","","","","","","","","","","","","","","","","","","","","","","","","","","","","","","",""
"audio-keyboard-response","186","2518300","0.0-5.0-1.0-0.5","1","0","uwkzcgwxxq4k04d","","null","","sounds/sentences/left_rev/14_04_cfSWS.wav","","null","","","","","","","","","","","","","","","","","","","","","","","","","","","","","","","",""
"html-button-response","187","2518712","0.0-5.0-1.0-1.5","1","0","uwkzcgwxxq4k04d","","409.8999999910593","","Was the sound coming from the left or the right?","0","","","1","INDUCTION-JUDGMENT","left","0","","","","","","","","","","","","","","","","","","","","","","","","","","",""
"html-keyboard-response","188","2519715","0.0-5.0-1.0-2.5","1","0","uwkzcgwxxq4k04d","","null","","<p style=""color:#054d00;""><b>Correct!</b></p>","","null","","","","","","","","","","","","","","","","","","","","","","","","","","","","","","","",""
"html-button-response","189","2520820","0.0-5.0-1.0-3.5","1","0","uwkzcgwxxq4k04d","","597.7000000029802","","<p>Press the button below when you are ready to continue.</p>","0","","","","","","","","","","","","","","","","","","","","","","","","","","","","","","","","",""
"audio-keyboard-response","190","2523404","0.0-5.0-1.0-0.6","1","0","uwkzcgwxxq4k04d","","null","","sounds/sentences/left_rev/14_03_cfSWS.wav","","null","","","","","","","","","","","","","","","","","","","","","","","","","","","","","","","",""
"html-button-response","191","2523799","0.0-5.0-1.0-1.6","1","0","uwkzcgwxxq4k04d","","393.29999999701977","","Was the sound coming from the left or the right?","0","","","1","INDUCTION-JUDGMENT","left","0","","","","","","","","","","","","","","","","","","","","","","","","","","",""
"html-keyboard-response","192","2524801","0.0-5.0-1.0-2.6","1","0","uwkzcgwxxq4k04d","","null","","<p style=""color:#054d00;""><b>Correct!</b></p>","","null","","","","","","","","","","","","","","","","","","","","","","","","","","","","","","","",""
"html-button-response","193","2526147","0.0-5.0-1.0-3.6","1","0","uwkzcgwxxq4k04d","","838.5","","<p>Press the button below when you are ready to continue.</p>","0","","","","","","","","","","","","","","","","","","","","","","","","","","","","","","","","",""
"audio-keyboard-response","194","2528903","0.0-5.0-1.0-0.7","1","0","uwkzcgwxxq4k04d","","null","","sounds/sentences/right_rev/14_08_cfSWS.wav","","null","","","","","","","","","","","","","","","","","","","","","","","","","","","","","","","",""
"html-button-response","195","2529312","0.0-5.0-1.0-1.7","1","0","uwkzcgwxxq4k04d","","406.90000000596046","","Was the sound coming from the left or the right?","1","","","1","INDUCTION-JUDGMENT","right","1","","","","","","","","","","","","","","","","","","","","","","","","","","",""
"html-keyboard-response","196","2530313","0.0-5.0-1.0-2.7","1","0","uwkzcgwxxq4k04d","","null","","<p style=""color:#054d00;""><b>Correct!</b></p>","","null","","","","","","","","","","","","","","","","","","","","","","","","","","","","","","","",""
"html-button-response","197","2531979","0.0-5.0-1.0-3.7","1","0","uwkzcgwxxq4k04d","","1158.5999999940395","","<p>Press the button below when you are ready to continue.</p>","0","","","","","","","","","","","","","","","","","","","","","","","","","","","","","","","","",""
"audio-keyboard-response","198","2534966","0.0-5.0-1.0-0.8","1","0","uwkzcgwxxq4k04d","","null","","sounds/sentences/left_rev/14_05_cfSWS.wav","","null","","","","","","","","","","","","","","","","","","","","","","","","","","","","","","","",""
"html-button-response","199","2535329","0.0-5.0-1.0-1.8","1","0","uwkzcgwxxq4k04d","","361.30000001192093","","Was the sound coming from the left or the right?","0","","","1","INDUCTION-JUDGMENT","left","0","","","","","","","","","","","","","","","","","","","","","","","","","","",""
"html-keyboard-response","200","2536333","0.0-5.0-1.0-2.8","1","0","uwkzcgwxxq4k04d","","null","","<p style=""color:#054d00;""><b>Correct!</b></p>","","null","","","","","","","","","","","","","","","","","","","","","","","","","","","","","","","",""
"html-button-response","201","2537506","0.0-5.0-1.0-3.8","1","0","uwkzcgwxxq4k04d","","669.3999999910593","","<p>Press the button below when you are ready to continue.</p>","0","","","","","","","","","","","","","","","","","","","","","","","","","","","","","","","","",""
"audio-keyboard-response","202","2540326","0.0-5.0-1.0-0.9","1","0","uwkzcgwxxq4k04d","","null","","sounds/sentences/left_rev/14_02_cfSWS.wav","","null","","","","","","","","","","","","","","","","","","","","","","","","","","","","","","","",""
"html-button-response","203","2540711","0.0-5.0-1.0-1.9","1","0","uwkzcgwxxq4k04d","","382.3999999910593","","Was the sound coming from the left or the right?","0","","","1","INDUCTION-JUDGMENT","left","0","","","","","","","","","","","","","","","","","","","","","","","","","","",""
"html-keyboard-response","204","2541712","0.0-5.0-1.0-2.9","1","0","uwkzcgwxxq4k04d","","null","","<p style=""color:#054d00;""><b>Correct!</b></p>","","null","","","","","","","","","","","","","","","","","","","","","","","","","","","","","","","",""
"html-button-response","205","2542779","0.0-5.0-1.0-3.9","1","0","uwkzcgwxxq4k04d","","564.7000000029802","","<p>Press the button below when you are ready to continue.</p>","0","","","","","","","","","","","","","","","","","","","","","","","","","","","","","","","","",""
"html-keyboard-response","206","2628491","0.0-6.0-0.0","1","0","uwkzcgwxxq4k04d","","85212.89999999106","","<p>In this part of the study, you will hear sounds similar to those you just heard.</p><p>Please focus on these sounds, as you may be asked questions about them later.</p><p>Occasionally, the sounds will pause for up to two seconds. When this happens, please press SPACEBAR as quickly as you can.</br>This helps ensure that you are paying attention to the sounds.</p><p>This part of the study will take about 12 minutes to complete, and you will be given the opportunity to take a couple of short breaks every few minutes.</p><p><strong>Press SPACEBAR to begin</strong></p>","","32","","","","","","","","","","","","","","","","","","","","","","","","","","","","","","","",""
"html-keyboard-response","207","2629496","0.0-6.0-1.0-0.0","1","0","uwkzcgwxxq4k04d","","null","","<p style=""font-size: 40px;"">+</p>","","null","","","","","","","","","","","","","","","","","","","","","","","","","","","","","","","",""
"html-keyboard-response","208","2814499","0.0-6.0-1.0-1.0","1","0","uwkzcgwxxq4k04d","","null","","","","null","","","SL-TRAIN","","","0","711.7999999970198","877.0999999940395","sounds/A/TRAIN/SEQ__12.mp3","2","","","","","","","","","","","","","","","","","","","","","",""
"html-button-response","209","2961165","0.0-6.0-1.0-2.0","1","0","uwkzcgwxxq4k04d","","146670.5","","<p>You may take a short break if you wish.</p>","0","","","","","","","","","","","","","","","","","","","","","","","","","","","","","","","","",""
"html-keyboard-response","210","2962166","0.0-6.0-1.0-3.0","1","0","uwkzcgwxxq4k04d","","null","","<p style=""font-size: 40px;"">+</p>","","null","","","","","","","","","","","","","","","","","","","","","","","","","","","","","","","",""
"html-keyboard-response","211","3147164","0.0-6.0-1.0-4.0","1","0","uwkzcgwxxq4k04d","","null","","","","null","","","SL-TRAIN","","","0","620.1000000089407","573.5","sounds/A/TRAIN/SEQ__10.mp3","5","","","","","","","","","","","","","","","","","","","","","",""
"html-button-response","212","3149524","0.0-6.0-1.0-5.0","1","0","uwkzcgwxxq4k04d","","2357.5","","<p>You may take a short break if you wish.</p>","0","","","","","","","","","","","","","","","","","","","","","","","","","","","","","","","","",""
"html-keyboard-response","213","3150526","0.0-6.0-1.0-6.0","1","0","uwkzcgwxxq4k04d","","null","","<p style=""font-size: 40px;"">+</p>","","null","","","","","","","","","","","","","","","","","","","","","","","","","","","","","","","",""
"html-keyboard-response","214","3335522","0.0-6.0-1.0-7.0","1","0","uwkzcgwxxq4k04d","","null","","","","null","","","SL-TRAIN","","","0","596.4000000059605","673.9000000059605","sounds/A/TRAIN/SEQ__02.mp3","10","","","","","","","","","","","","","","","","","","","","","",""
"html-button-response","215","3367651","0.0-6.0-1.0-8.0","1","0","uwkzcgwxxq4k04d","","32128.70000000298","","<p>You may take a short break if you wish.</p>","0","","","","","","","","","","","","","","","","","","","","","","","","","","","","","","","","",""
"html-keyboard-response","216","3368656","0.0-6.0-1.0-9.0","1","0","uwkzcgwxxq4k04d","","null","","<p style=""font-size: 40px;"">+</p>","","null","","","","","","","","","","","","","","","","","","","","","","","","","","","","","","","",""
"html-keyboard-response","217","3553655","0.0-6.0-1.0-10.0","1","0","uwkzcgwxxq4k04d","","null","","","","null","","","SL-TRAIN","","","0","904.5999999940395","812.2000000029802","sounds/A/TRAIN/SEQ__07.mp3","19","","","","","","","","","","","","","","","","","","","","","",""
"html-button-response","218","3555555","0.0-6.0-1.0-11.0","1","0","uwkzcgwxxq4k04d","","1898.2000000029802","","<p>You may take a short break if you wish.</p>","0","","","","","","","","","","","","","","","","","","","","","","","","","","","","","","","","",""
"html-button-response","219","3564228","0.0-7.0-0.0","1","0","uwkzcgwxxq4k04d","","8671.90000000596","","<p>Welcome to the second part of the study. This is a <u>familiarity task</u>.</p><p>You will now hear short sounds and will be asked to rate how familiar they sound to you <b>based on what you heard in the previous part of the study</b>.</p><p>You will rate 12 sounds in total.</p>","0","","","","","","","","","","","","","","","","","","","","","","","","","","","","","","","","",""
"html-keyboard-response","220","3565233","0.0-7.0-1.0-0.0","1","0","uwkzcgwxxq4k04d","","null","","","","null","","","","","","","","","","","","","","","","","","","","","","","","","","","","","","","",""
"audio-keyboard-response","221","3566200","0.0-7.0-1.0-1.0","1","0","uwkzcgwxxq4k04d","","null","","sounds/A/FAM/P003.mp3","","null","","","","","","","","","","","","","","","","","","","","","","","","","","","","","","","",""
"html-keyboard-response","222","3575668","0.0-7.0-1.0-2.0","1","0","uwkzcgwxxq4k04d","","8965.699999988079","","<p>How familiar did this sound to you?</p><p>1&nbsp;&nbsp;&nbsp;&nbsp;&nbsp;&nbsp;&nbsp;&nbsp;&nbsp;&nbsp;&nbsp;&nbsp;&nbsp;&nbsp;&nbsp;&nbsp;&nbsp;&nbsp;&nbsp;2&nbsp;&nbsp;&nbsp;&nbsp;&nbsp;&nbsp;&nbsp;&nbsp;&nbsp;&nbsp;&nbsp;&nbsp;&nbsp;&nbsp;&nbsp;&nbsp;&nbsp;&nbsp;&nbsp;3&nbsp;&nbsp;&nbsp;&nbsp;&nbsp;&nbsp;&nbsp;&nbsp;&nbsp;&nbsp;&nbsp;&nbsp;&nbsp;&nbsp;&nbsp;&nbsp;&nbsp;&nbsp;&nbsp;4</p><p style=""font-size:14px"">Not at all familiar&nbsp;&nbsp;&nbsp;&nbsp;A little familiar&nbsp;&nbsp;&nbsp;Moderately familiar&nbsp;&nbsp;&nbsp;Extremely familiar</p><p>(press the corresponding number on your keyboard)</p>","","52","","","FAM-RESPONSE","","","","","","","","sounds/A/FAM/P003.mp3","partword","","","","","","","","","","","","","","","","","","","",""
"html-keyboard-response","223","3577678","0.0-7.0-1.0-0.1","1","0","uwkzcgwxxq4k04d","","null","","","","null","","","","","","","","","","","","","","","","","","","","","","","","","","","","","","","",""
"audio-keyboard-response","224","3578620","0.0-7.0-1.0-1.1","1","0","uwkzcgwxxq4k04d","","null","","sounds/A/FAM/W003.mp3","","null","","","","","","","","","","","","","","","","","","","","","","","","","","","","","","","",""
"html-keyboard-response","225","3580180","0.0-7.0-1.0-2.1","1","0","uwkzcgwxxq4k04d","","1057.5","","<p>How familiar did this sound to you?</p><p>1&nbsp;&nbsp;&nbsp;&nbsp;&nbsp;&nbsp;&nbsp;&nbsp;&nbsp;&nbsp;&nbsp;&nbsp;&nbsp;&nbsp;&nbsp;&nbsp;&nbsp;&nbsp;&nbsp;2&nbsp;&nbsp;&nbsp;&nbsp;&nbsp;&nbsp;&nbsp;&nbsp;&nbsp;&nbsp;&nbsp;&nbsp;&nbsp;&nbsp;&nbsp;&nbsp;&nbsp;&nbsp;&nbsp;3&nbsp;&nbsp;&nbsp;&nbsp;&nbsp;&nbsp;&nbsp;&nbsp;&nbsp;&nbsp;&nbsp;&nbsp;&nbsp;&nbsp;&nbsp;&nbsp;&nbsp;&nbsp;&nbsp;4</p><p style=""font-size:14px"">Not at all familiar&nbsp;&nbsp;&nbsp;&nbsp;A little familiar&nbsp;&nbsp;&nbsp;Moderately familiar&nbsp;&nbsp;&nbsp;Extremely familiar</p><p>(press the corresponding number on your keyboard)</p>","","52","","","FAM-RESPONSE","","","","","","","","sounds/A/FAM/W003.mp3","word","","","","","","","","","","","","","","","","","","","",""
"html-keyboard-response","226","3582185","0.0-7.0-1.0-0.2","1","0","uwkzcgwxxq4k04d","","null","","","","null","","","","","","","","","","","","","","","","","","","","","","","","","","","","","","","",""
"audio-keyboard-response","227","3583127","0.0-7.0-1.0-1.2","1","0","uwkzcgwxxq4k04d","","null","","sounds/A/FAM/W002.mp3","","null","","","","","","","","","","","","","","","","","","","","","","","","","","","","","","","",""
"html-keyboard-response","228","3585610","0.0-7.0-1.0-2.2","1","0","uwkzcgwxxq4k04d","","1977.1000000089407","","<p>How familiar did this sound to you?</p><p>1&nbsp;&nbsp;&nbsp;&nbsp;&nbsp;&nbsp;&nbsp;&nbsp;&nbsp;&nbsp;&nbsp;&nbsp;&nbsp;&nbsp;&nbsp;&nbsp;&nbsp;&nbsp;&nbsp;2&nbsp;&nbsp;&nbsp;&nbsp;&nbsp;&nbsp;&nbsp;&nbsp;&nbsp;&nbsp;&nbsp;&nbsp;&nbsp;&nbsp;&nbsp;&nbsp;&nbsp;&nbsp;&nbsp;3&nbsp;&nbsp;&nbsp;&nbsp;&nbsp;&nbsp;&nbsp;&nbsp;&nbsp;&nbsp;&nbsp;&nbsp;&nbsp;&nbsp;&nbsp;&nbsp;&nbsp;&nbsp;&nbsp;4</p><p style=""font-size:14px"">Not at all familiar&nbsp;&nbsp;&nbsp;&nbsp;A little familiar&nbsp;&nbsp;&nbsp;Moderately familiar&nbsp;&nbsp;&nbsp;Extremely familiar</p><p>(press the corresponding number on your keyboard)</p>","","50","","","FAM-RESPONSE","","","","","","","","sounds/A/FAM/W002.mp3","word","","","","","","","","","","","","","","","","","","","",""
"html-keyboard-response","229","3587622","0.0-7.0-1.0-0.3","1","0","uwkzcgwxxq4k04d","","null","","","","null","","","","","","","","","","","","","","","","","","","","","","","","","","","","","","","",""
"audio-keyboard-response","230","3588567","0.0-7.0-1.0-1.3","1","0","uwkzcgwxxq4k04d","","null","","sounds/A/FAM/N004.mp3","","null","","","","","","","","","","","","","","","","","","","","","","","","","","","","","","","",""
"html-keyboard-response","231","3589469","0.0-7.0-1.0-2.3","1","0","uwkzcgwxxq4k04d","","395.70000000298023","","<p>How familiar did this sound to you?</p><p>1&nbsp;&nbsp;&nbsp;&nbsp;&nbsp;&nbsp;&nbsp;&nbsp;&nbsp;&nbsp;&nbsp;&nbsp;&nbsp;&nbsp;&nbsp;&nbsp;&nbsp;&nbsp;&nbsp;2&nbsp;&nbsp;&nbsp;&nbsp;&nbsp;&nbsp;&nbsp;&nbsp;&nbsp;&nbsp;&nbsp;&nbsp;&nbsp;&nbsp;&nbsp;&nbsp;&nbsp;&nbsp;&nbsp;3&nbsp;&nbsp;&nbsp;&nbsp;&nbsp;&nbsp;&nbsp;&nbsp;&nbsp;&nbsp;&nbsp;&nbsp;&nbsp;&nbsp;&nbsp;&nbsp;&nbsp;&nbsp;&nbsp;4</p><p style=""font-size:14px"">Not at all familiar&nbsp;&nbsp;&nbsp;&nbsp;A little familiar&nbsp;&nbsp;&nbsp;Moderately familiar&nbsp;&nbsp;&nbsp;Extremely familiar</p><p>(press the corresponding number on your keyboard)</p>","","51","","","FAM-RESPONSE","","","","","","","","sounds/A/FAM/N004.mp3","nonword","","","","","","","","","","","","","","","","","","","",""
"html-keyboard-response","232","3591481","0.0-7.0-1.0-0.4","1","0","uwkzcgwxxq4k04d","","null","","","","null","","","","","","","","","","","","","","","","","","","","","","","","","","","","","","","",""
"audio-keyboard-response","233","3592422","0.0-7.0-1.0-1.4","1","0","uwkzcgwxxq4k04d","","null","","sounds/A/FAM/P002.mp3","","null","","","","","","","","","","","","","","","","","","","","","","","","","","","","","","","",""
"html-keyboard-response","234","3593363","0.0-7.0-1.0-2.4","1","0","uwkzcgwxxq4k04d","","433.59999999403954","","<p>How familiar did this sound to you?</p><p>1&nbsp;&nbsp;&nbsp;&nbsp;&nbsp;&nbsp;&nbsp;&nbsp;&nbsp;&nbsp;&nbsp;&nbsp;&nbsp;&nbsp;&nbsp;&nbsp;&nbsp;&nbsp;&nbsp;2&nbsp;&nbsp;&nbsp;&nbsp;&nbsp;&nbsp;&nbsp;&nbsp;&nbsp;&nbsp;&nbsp;&nbsp;&nbsp;&nbsp;&nbsp;&nbsp;&nbsp;&nbsp;&nbsp;3&nbsp;&nbsp;&nbsp;&nbsp;&nbsp;&nbsp;&nbsp;&nbsp;&nbsp;&nbsp;&nbsp;&nbsp;&nbsp;&nbsp;&nbsp;&nbsp;&nbsp;&nbsp;&nbsp;4</p><p style=""font-size:14px"">Not at all familiar&nbsp;&nbsp;&nbsp;&nbsp;A little familiar&nbsp;&nbsp;&nbsp;Moderately familiar&nbsp;&nbsp;&nbsp;Extremely familiar</p><p>(press the corresponding number on your keyboard)</p>","","51","","","FAM-RESPONSE","","","","","","","","sounds/A/FAM/P002.mp3","partword","","","","","","","","","","","","","","","","","","","",""
"html-keyboard-response","235","3595365","0.0-7.0-1.0-0.5","1","0","uwkzcgwxxq4k04d","","null","","","","null","","","","","","","","","","","","","","","","","","","","","","","","","","","","","","","",""
"audio-keyboard-response","236","3596310","0.0-7.0-1.0-1.5","1","0","uwkzcgwxxq4k04d","","null","","sounds/A/FAM/W001.mp3","","null","","","","","","","","","","","","","","","","","","","","","","","","","","","","","","","",""
"html-keyboard-response","237","3597076","0.0-7.0-1.0-2.5","1","0","uwkzcgwxxq4k04d","","262.20000000298023","","<p>How familiar did this sound to you?</p><p>1&nbsp;&nbsp;&nbsp;&nbsp;&nbsp;&nbsp;&nbsp;&nbsp;&nbsp;&nbsp;&nbsp;&nbsp;&nbsp;&nbsp;&nbsp;&nbsp;&nbsp;&nbsp;&nbsp;2&nbsp;&nbsp;&nbsp;&nbsp;&nbsp;&nbsp;&nbsp;&nbsp;&nbsp;&nbsp;&nbsp;&nbsp;&nbsp;&nbsp;&nbsp;&nbsp;&nbsp;&nbsp;&nbsp;3&nbsp;&nbsp;&nbsp;&nbsp;&nbsp;&nbsp;&nbsp;&nbsp;&nbsp;&nbsp;&nbsp;&nbsp;&nbsp;&nbsp;&nbsp;&nbsp;&nbsp;&nbsp;&nbsp;4</p><p style=""font-size:14px"">Not at all familiar&nbsp;&nbsp;&nbsp;&nbsp;A little familiar&nbsp;&nbsp;&nbsp;Moderately familiar&nbsp;&nbsp;&nbsp;Extremely familiar</p><p>(press the corresponding number on your keyboard)</p>","","52","","","FAM-RESPONSE","","","","","","","","sounds/A/FAM/W001.mp3","word","","","","","","","","","","","","","","","","","","","",""
"html-keyboard-response","238","3599082","0.0-7.0-1.0-0.6","1","0","uwkzcgwxxq4k04d","","null","","","","null","","","","","","","","","","","","","","","","","","","","","","","","","","","","","","","",""
"audio-keyboard-response","239","3600027","0.0-7.0-1.0-1.6","1","0","uwkzcgwxxq4k04d","","null","","sounds/A/FAM/W004.mp3","","null","","","","","","","","","","","","","","","","","","","","","","","","","","","","","","","",""
"html-keyboard-response","240","3602537","0.0-7.0-1.0-2.6","1","0","uwkzcgwxxq4k04d","","2003.7000000029802","","<p>How familiar did this sound to you?</p><p>1&nbsp;&nbsp;&nbsp;&nbsp;&nbsp;&nbsp;&nbsp;&nbsp;&nbsp;&nbsp;&nbsp;&nbsp;&nbsp;&nbsp;&nbsp;&nbsp;&nbsp;&nbsp;&nbsp;2&nbsp;&nbsp;&nbsp;&nbsp;&nbsp;&nbsp;&nbsp;&nbsp;&nbsp;&nbsp;&nbsp;&nbsp;&nbsp;&nbsp;&nbsp;&nbsp;&nbsp;&nbsp;&nbsp;3&nbsp;&nbsp;&nbsp;&nbsp;&nbsp;&nbsp;&nbsp;&nbsp;&nbsp;&nbsp;&nbsp;&nbsp;&nbsp;&nbsp;&nbsp;&nbsp;&nbsp;&nbsp;&nbsp;4</p><p style=""font-size:14px"">Not at all familiar&nbsp;&nbsp;&nbsp;&nbsp;A little familiar&nbsp;&nbsp;&nbsp;Moderately familiar&nbsp;&nbsp;&nbsp;Extremely familiar</p><p>(press the corresponding number on your keyboard)</p>","","52","","","FAM-RESPONSE","","","","","","","","sounds/A/FAM/W004.mp3","word","","","","","","","","","","","","","","","","","","","",""
"html-keyboard-response","241","3604544","0.0-7.0-1.0-0.7","1","0","uwkzcgwxxq4k04d","","null","","","","null","","","","","","","","","","","","","","","","","","","","","","","","","","","","","","","",""
"audio-keyboard-response","242","3605488","0.0-7.0-1.0-1.7","1","0","uwkzcgwxxq4k04d","","null","","sounds/A/FAM/P001.mp3","","null","","","","","","","","","","","","","","","","","","","","","","","","","","","","","","","",""
"html-keyboard-response","243","3606035","0.0-7.0-1.0-2.7","1","0","uwkzcgwxxq4k04d","","39.599999994039536","","<p>How familiar did this sound to you?</p><p>1&nbsp;&nbsp;&nbsp;&nbsp;&nbsp;&nbsp;&nbsp;&nbsp;&nbsp;&nbsp;&nbsp;&nbsp;&nbsp;&nbsp;&nbsp;&nbsp;&nbsp;&nbsp;&nbsp;2&nbsp;&nbsp;&nbsp;&nbsp;&nbsp;&nbsp;&nbsp;&nbsp;&nbsp;&nbsp;&nbsp;&nbsp;&nbsp;&nbsp;&nbsp;&nbsp;&nbsp;&nbsp;&nbsp;3&nbsp;&nbsp;&nbsp;&nbsp;&nbsp;&nbsp;&nbsp;&nbsp;&nbsp;&nbsp;&nbsp;&nbsp;&nbsp;&nbsp;&nbsp;&nbsp;&nbsp;&nbsp;&nbsp;4</p><p style=""font-size:14px"">Not at all familiar&nbsp;&nbsp;&nbsp;&nbsp;A little familiar&nbsp;&nbsp;&nbsp;Moderately familiar&nbsp;&nbsp;&nbsp;Extremely familiar</p><p>(press the corresponding number on your keyboard)</p>","","52","","","FAM-RESPONSE","","","","","","","","sounds/A/FAM/P001.mp3","partword","","","","","","","","","","","","","","","","","","","",""
"html-keyboard-response","244","3608046","0.0-7.0-1.0-0.8","1","0","uwkzcgwxxq4k04d","","null","","","","null","","","","","","","","","","","","","","","","","","","","","","","","","","","","","","","",""
"audio-keyboard-response","245","3608987","0.0-7.0-1.0-1.8","1","0","uwkzcgwxxq4k04d","","null","","sounds/A/FAM/N002.mp3","","null","","","","","","","","","","","","","","","","","","","","","","","","","","","","","","","",""
"html-keyboard-response","246","3609691","0.0-7.0-1.0-2.8","1","0","uwkzcgwxxq4k04d","","200.20000000298023","","<p>How familiar did this sound to you?</p><p>1&nbsp;&nbsp;&nbsp;&nbsp;&nbsp;&nbsp;&nbsp;&nbsp;&nbsp;&nbsp;&nbsp;&nbsp;&nbsp;&nbsp;&nbsp;&nbsp;&nbsp;&nbsp;&nbsp;2&nbsp;&nbsp;&nbsp;&nbsp;&nbsp;&nbsp;&nbsp;&nbsp;&nbsp;&nbsp;&nbsp;&nbsp;&nbsp;&nbsp;&nbsp;&nbsp;&nbsp;&nbsp;&nbsp;3&nbsp;&nbsp;&nbsp;&nbsp;&nbsp;&nbsp;&nbsp;&nbsp;&nbsp;&nbsp;&nbsp;&nbsp;&nbsp;&nbsp;&nbsp;&nbsp;&nbsp;&nbsp;&nbsp;4</p><p style=""font-size:14px"">Not at all familiar&nbsp;&nbsp;&nbsp;&nbsp;A little familiar&nbsp;&nbsp;&nbsp;Moderately familiar&nbsp;&nbsp;&nbsp;Extremely familiar</p><p>(press the corresponding number on your keyboard)</p>","","52","","","FAM-RESPONSE","","","","","","","","sounds/A/FAM/N002.mp3","nonword","","","","","","","","","","","","","","","","","","","",""
"html-keyboard-response","247","3611698","0.0-7.0-1.0-0.9","1","0","uwkzcgwxxq4k04d","","null","","","","null","","","","","","","","","","","","","","","","","","","","","","","","","","","","","","","",""
"audio-keyboard-response","248","3612640","0.0-7.0-1.0-1.9","1","0","uwkzcgwxxq4k04d","","null","","sounds/A/FAM/N001.mp3","","null","","","","","","","","","","","","","","","","","","","","","","","","","","","","","","","",""
"html-keyboard-response","249","3613615","0.0-7.0-1.0-2.9","1","0","uwkzcgwxxq4k04d","","468.20000000298023","","<p>How familiar did this sound to you?</p><p>1&nbsp;&nbsp;&nbsp;&nbsp;&nbsp;&nbsp;&nbsp;&nbsp;&nbsp;&nbsp;&nbsp;&nbsp;&nbsp;&nbsp;&nbsp;&nbsp;&nbsp;&nbsp;&nbsp;2&nbsp;&nbsp;&nbsp;&nbsp;&nbsp;&nbsp;&nbsp;&nbsp;&nbsp;&nbsp;&nbsp;&nbsp;&nbsp;&nbsp;&nbsp;&nbsp;&nbsp;&nbsp;&nbsp;3&nbsp;&nbsp;&nbsp;&nbsp;&nbsp;&nbsp;&nbsp;&nbsp;&nbsp;&nbsp;&nbsp;&nbsp;&nbsp;&nbsp;&nbsp;&nbsp;&nbsp;&nbsp;&nbsp;4</p><p style=""font-size:14px"">Not at all familiar&nbsp;&nbsp;&nbsp;&nbsp;A little familiar&nbsp;&nbsp;&nbsp;Moderately familiar&nbsp;&nbsp;&nbsp;Extremely familiar</p><p>(press the corresponding number on your keyboard)</p>","","51","","","FAM-RESPONSE","","","","","","","","sounds/A/FAM/N001.mp3","nonword","","","","","","","","","","","","","","","","","","","",""
"html-keyboard-response","250","3615623","0.0-7.0-1.0-0.10","1","0","uwkzcgwxxq4k04d","","null","","","","null","","","","","","","","","","","","","","","","","","","","","","","","","","","","","","","",""
"audio-keyboard-response","251","3616565","0.0-7.0-1.0-1.10","1","0","uwkzcgwxxq4k04d","","null","","sounds/A/FAM/P004.mp3","","null","","","","","","","","","","","","","","","","","","","","","","","","","","","","","","","",""
"html-keyboard-response","252","3617351","0.0-7.0-1.0-2.10","1","0","uwkzcgwxxq4k04d","","282.5","","<p>How familiar did this sound to you?</p><p>1&nbsp;&nbsp;&nbsp;&nbsp;&nbsp;&nbsp;&nbsp;&nbsp;&nbsp;&nbsp;&nbsp;&nbsp;&nbsp;&nbsp;&nbsp;&nbsp;&nbsp;&nbsp;&nbsp;2&nbsp;&nbsp;&nbsp;&nbsp;&nbsp;&nbsp;&nbsp;&nbsp;&nbsp;&nbsp;&nbsp;&nbsp;&nbsp;&nbsp;&nbsp;&nbsp;&nbsp;&nbsp;&nbsp;3&nbsp;&nbsp;&nbsp;&nbsp;&nbsp;&nbsp;&nbsp;&nbsp;&nbsp;&nbsp;&nbsp;&nbsp;&nbsp;&nbsp;&nbsp;&nbsp;&nbsp;&nbsp;&nbsp;4</p><p style=""font-size:14px"">Not at all familiar&nbsp;&nbsp;&nbsp;&nbsp;A little familiar&nbsp;&nbsp;&nbsp;Moderately familiar&nbsp;&nbsp;&nbsp;Extremely familiar</p><p>(press the corresponding number on your keyboard)</p>","","50","","","FAM-RESPONSE","","","","","","","","sounds/A/FAM/P004.mp3","partword","","","","","","","","","","","","","","","","","","","",""
"html-keyboard-response","253","3619359","0.0-7.0-1.0-0.11","1","0","uwkzcgwxxq4k04d","","null","","","","null","","","","","","","","","","","","","","","","","","","","","","","","","","","","","","","",""
"audio-keyboard-response","254","3620304","0.0-7.0-1.0-1.11","1","0","uwkzcgwxxq4k04d","","null","","sounds/A/FAM/N003.mp3","","null","","","","","","","","","","","","","","","","","","","","","","","","","","","","","","","",""
"html-keyboard-response","255","3620944","0.0-7.0-1.0-2.11","1","0","uwkzcgwxxq4k04d","","133.30000001192093","","<p>How familiar did this sound to you?</p><p>1&nbsp;&nbsp;&nbsp;&nbsp;&nbsp;&nbsp;&nbsp;&nbsp;&nbsp;&nbsp;&nbsp;&nbsp;&nbsp;&nbsp;&nbsp;&nbsp;&nbsp;&nbsp;&nbsp;2&nbsp;&nbsp;&nbsp;&nbsp;&nbsp;&nbsp;&nbsp;&nbsp;&nbsp;&nbsp;&nbsp;&nbsp;&nbsp;&nbsp;&nbsp;&nbsp;&nbsp;&nbsp;&nbsp;3&nbsp;&nbsp;&nbsp;&nbsp;&nbsp;&nbsp;&nbsp;&nbsp;&nbsp;&nbsp;&nbsp;&nbsp;&nbsp;&nbsp;&nbsp;&nbsp;&nbsp;&nbsp;&nbsp;4</p><p style=""font-size:14px"">Not at all familiar&nbsp;&nbsp;&nbsp;&nbsp;A little familiar&nbsp;&nbsp;&nbsp;Moderately familiar&nbsp;&nbsp;&nbsp;Extremely familiar</p><p>(press the corresponding number on your keyboard)</p>","","51","","","FAM-RESPONSE","","","","","","","","sounds/A/FAM/N003.mp3","nonword","","","","","","","","","","","","","","","","","","","",""
"html-button-response","256","3650947","0.0-8.0-0.0","1","0","uwkzcgwxxq4k04d","","28998.29999999702","","<p>You will now listen to longer sound sequences.</p><p>Each sound sequence will last about 16 seconds.</p><p>On each trial, you will be given a <u>TARGET SOUND</u>. Your task is to listen very carefully for this sound.</p><p>Every time you hear the <u>TARGET SOUND</u>, you will press the <b>SPACEBAR</b> as quickly and accurately as you can.</p>","0","","","","","","","","","","","","","","","","","","","","","","","","","","","","","","","","",""
"html-button-response","257","3710989","0.0-8.0-1.0","1","0","uwkzcgwxxq4k04d","","59791.29999999702","","<p>It is very important that you make your responses as quickly and accurately as possible.</p><p>To help you make your responses, you will be able to listen to the <u>TARGET SOUND</u> at the beginning of each trial.</p><p>There will be 36 total trials.</p><p><b>Note: This is meant to be a difficult task. We simply want you to try your best.</p>","0","","","","","","","","","","","","","","","","","","","","","","","","","","","","","","","","",""
"html-button-response","258","3714668","0.0-8.0-2.0-0.0","1","0","uwkzcgwxxq4k04d","","3422","","<p>Trial 1 of 36</p>","0","","","","","","","","","","","","","","ME","sounds/syllables/me_SWS.wav","2400,5100,10500,12300","3","","","","","","","","","","","","","","","",""
"html-keyboard-response","259","3718481","0.0-8.0-2.0-1.0","1","0","uwkzcgwxxq4k04d","","3812","","","","80","","","","","","","","","","","","","ME","","2400,5100,10500,12300","3","","","","","","","","","","","","","","","",""
"audio-keyboard-response","260","3719189","0.0-8.0-2.0-2.0-0.0","1","0","uwkzcgwxxq4k04d","","null","","sounds/syllables/me_SWS.wav","","null","","","","","","","","","","","","","","","","","","","","","","","","","","","","","","","",""
"html-keyboard-response","261","3722286","0.0-8.0-2.0-2.0-1.0","1","0","uwkzcgwxxq4k04d","","3096.4000000059605","","<p>To replay the <u>TARGET SOUND</u>, press P.</p> When you are ready to begin, press SPACEBAR.","","80","","","","","","","","","","","","","","","","","","","","","","","","","","","","","","","",""
"audio-keyboard-response","262","3723092","0.0-8.0-2.0-2.1-0.1","1","0","uwkzcgwxxq4k04d","","null","","sounds/syllables/me_SWS.wav","","null","","","","","","","","","","","","","","","","","","","","","","","","","","","","","","","",""
"html-keyboard-response","263","3723929","0.0-8.0-2.0-2.1-1.1","1","0","uwkzcgwxxq4k04d","","836.0999999940395","","<p>To replay the <u>TARGET SOUND</u>, press P.</p> When you are ready to begin, press SPACEBAR.","","32","","","","","","","","","","","","","","","","","","","","","","","","","","","","","","","",""
"audio-keyboard-response","264","3738879","0.0-8.0-2.0-3.0","1","0","uwkzcgwxxq4k04d","","1285","","sounds/A/TD/ME_06_TD.mp3","","32","","","TD_SUMMARY","","","","","","","","","","ME","","2400,5100,10500,12300","3","2400","5100","10500","12300","null","520.7000000029802","null","798.4000000059605","1284.4000000059605_2497.6000000089407_3814.2000000029802_5620.70000000298_6582.5_13098.40000000596","2","","","","","",""
"html-button-response","265","3740332","0.0-8.0-2.0-0.1","1","0","uwkzcgwxxq4k04d","","1449.5","","<p>Trial 2 of 36</p>","0","","","","","","","","","","","","","","KO","sounds/syllables/ko_SWS.wav","3300,5100,10500,12300","3","","","","","","","","","","","","","","","",""
"html-keyboard-response","266","3741454","0.0-8.0-2.0-1.1","1","0","uwkzcgwxxq4k04d","","1121","","","","80","","","","","","","","","","","","","KO","","3300,5100,10500,12300","3","","","","","","","","","","","","","","","",""
"audio-keyboard-response","267","3741758","0.0-8.0-2.0-2.2-0.2","1","0","uwkzcgwxxq4k04d","","null","","sounds/syllables/ko_SWS.wav","","null","","","","","","","","","","","","","","","","","","","","","","","","","","","","","","","",""
"html-keyboard-response","268","3742808","0.0-8.0-2.0-2.2-1.2","1","0","uwkzcgwxxq4k04d","","1048.4000000059605","","<p>To replay the <u>TARGET SOUND</u>, press P.</p> When you are ready to begin, press SPACEBAR.","","80","","","","","","","","","","","","","","","","","","","","","","","","","","","","","","","",""
"audio-keyboard-response","269","3743614","0.0-8.0-2.0-2.3-0.3","1","0","uwkzcgwxxq4k04d","","null","","sounds/syllables/ko_SWS.wav","","null","","","","","","","","","","","","","","","","","","","","","","","","","","","","","","","",""
"html-keyboard-response","270","3744158","0.0-8.0-2.0-2.3-1.3","1","0","uwkzcgwxxq4k04d","","542.0999999940395","","<p>To replay the <u>TARGET SOUND</u>, press P.</p> When you are ready to begin, press SPACEBAR.","","32","","","","","","","","","","","","","","","","","","","","","","","","","","","","","","","",""
"audio-keyboard-response","271","3759107","0.0-8.0-2.0-3.1","1","0","uwkzcgwxxq4k04d","","3349","","sounds/A/TD/KO_05_TD.mp3","","32","","","TD_SUMMARY","","","","","","","","","","KO","","3300,5100,10500,12300","3","3300","5100","10500","12300","null","null","null","null","______3350.5999999940395_4883.699999988079_6720.699999988079_9295.5_12290_13504.699999988079","2","","","","","",""
"html-button-response","272","3760654","0.0-8.0-2.0-0.2","1","0","uwkzcgwxxq4k04d","","1543.5999999940395","","<p>Trial 3 of 36</p>","0","","","","","","","","","","","","","","RU","sounds/syllables/ru_SWS.wav","2700,6300,9000,11700","1","","","","","","","","","","","","","","","",""
"html-keyboard-response","273","3776303","0.0-8.0-2.0-1.2","1","0","uwkzcgwxxq4k04d","","15649.199999988079","","","","80","","","","","","","","","","","","","RU","","2700,6300,9000,11700","1","","","","","","","","","","","","","","","",""
"audio-keyboard-response","274","3776603","0.0-8.0-2.0-2.4-0.4","1","0","uwkzcgwxxq4k04d","","null","","sounds/syllables/ru_SWS.wav","","null","","","","","","","","","","","","","","","","","","","","","","","","","","","","","","","",""
"html-keyboard-response","275","3777312","0.0-8.0-2.0-2.4-1.4","1","0","uwkzcgwxxq4k04d","","708","","<p>To replay the <u>TARGET SOUND</u>, press P.</p> When you are ready to begin, press SPACEBAR.","","80","","","","","","","","","","","","","","","","","","","","","","","","","","","","","","","",""
"audio-keyboard-response","276","3778118","0.0-8.0-2.0-2.5-0.5","1","0","uwkzcgwxxq4k04d","","null","","sounds/syllables/ru_SWS.wav","","null","","","","","","","","","","","","","","","","","","","","","","","","","","","","","","","",""
"html-keyboard-response","277","3778953","0.0-8.0-2.0-2.5-1.5","1","0","uwkzcgwxxq4k04d","","833.1000000089407","","<p>To replay the <u>TARGET SOUND</u>, press P.</p> When you are ready to begin, press SPACEBAR.","","32","","","","","","","","","","","","","","","","","","","","","","","","","","","","","","","",""
"audio-keyboard-response","278","3793904","0.0-8.0-2.0-3.2","1","0","uwkzcgwxxq4k04d","","1877","","sounds/A/TD/RU_01_TD.mp3","","32","","","TD_SUMMARY","","","","","","","","","","RU","","2700,6300,9000,11700","1","2700","6300","9000","11700","680.7000000029802","945.4000000059605","695.7999999970198","null","____________1878.6000000089407_3380.7000000029802_5400.70000000298_6917.100000008941_7245.4000000059605_8859_9695.79999999702_11764.79999999702_13550","2","","","","","",""
"html-button-response","279","3795270","0.0-8.0-2.0-0.3","1","0","uwkzcgwxxq4k04d","","1363.1000000089407","","<p>Trial 4 of 36</p>","0","","","","","","","","","","","","","","PU","sounds/syllables/pu_SWS.wav","4800,7500,9300,12900","2","","","","","","","","","","","","","","","",""
"html-keyboard-response","280","3796554","0.0-8.0-2.0-1.3","1","0","uwkzcgwxxq4k04d","","1283.5","","","","80","","","","","","","","","","","","","PU","","4800,7500,9300,12900","2","","","","","","","","","","","","","","","",""
"audio-keyboard-response","281","3796858","0.0-8.0-2.0-2.6-0.6","1","0","uwkzcgwxxq4k04d","","null","","sounds/syllables/pu_SWS.wav","","null","","","","","","","","","","","","","","","","","","","","","","","","","","","","","","","",""
"html-keyboard-response","282","3797751","0.0-8.0-2.0-2.6-1.6","1","0","uwkzcgwxxq4k04d","","892.1000000089407","","<p>To replay the <u>TARGET SOUND</u>, press P.</p> When you are ready to begin, press SPACEBAR.","","80","","","","","","","","","","","","","","","","","","","","","","","","","","","","","","","",""
"audio-keyboard-response","283","3798559","0.0-8.0-2.0-2.7-0.7","1","0","uwkzcgwxxq4k04d","","null","","sounds/syllables/pu_SWS.wav","","null","","","","","","","","","","","","","","","","","","","","","","","","","","","","","","","",""
"html-keyboard-response","284","3799148","0.0-8.0-2.0-2.7-1.7","1","0","uwkzcgwxxq4k04d","","587.4000000059605","","<p>To replay the <u>TARGET SOUND</u>, press P.</p> When you are ready to begin, press SPACEBAR.","","32","","","","","","","","","","","","","","","","","","","","","","","","","","","","","","","",""
"audio-keyboard-response","285","3814100","0.0-8.0-2.0-3.3","1","0","uwkzcgwxxq4k04d","","1835","","sounds/A/TD/PU_05_TD.mp3","","32","","","TD_SUMMARY","","","","","","","","","","PU","","4800,7500,9300,12900","2","4800","7500","9300","12900","null","816.4000000059605","502.1000000089407","536.4000000059605","_____________________1833.5_4616.600000008941_6410.600000008941_7889.800000011921_8316.40000000596_9606.70000000298_9802.10000000894_11329.70000000298_13216.800000011921_13436.40000000596","2","","","","","",""
"html-button-response","286","3815292","0.0-8.0-2.0-0.4","1","0","uwkzcgwxxq4k04d","","1189","","<p>Trial 5 of 36</p>","0","","","","","","","","","","","","","","SU","sounds/syllables/su_SWS.wav","2400,5100,6900,8700","3","","","","","","","","","","","","","","","",""
"html-keyboard-response","287","3816419","0.0-8.0-2.0-1.4","1","0","uwkzcgwxxq4k04d","","1126.0999999940395","","","","80","","","","","","","","","","","","","SU","","2400,5100,6900,8700","3","","","","","","","","","","","","","","","",""
"audio-keyboard-response","288","3816723","0.0-8.0-2.0-2.8-0.8","1","0","uwkzcgwxxq4k04d","","null","","sounds/syllables/su_SWS.wav","","null","","","","","","","","","","","","","","","","","","","","","","","","","","","","","","","",""
"html-keyboard-response","289","3817533","0.0-8.0-2.0-2.8-1.8","1","0","uwkzcgwxxq4k04d","","808.7000000029802","","<p>To replay the <u>TARGET SOUND</u>, press P.</p> When you are ready to begin, press SPACEBAR.","","80","","","","","","","","","","","","","","","","","","","","","","","","","","","","","","","",""
"audio-keyboard-response","290","3818339","0.0-8.0-2.0-2.9-0.9","1","0","uwkzcgwxxq4k04d","","null","","sounds/syllables/su_SWS.wav","","null","","","","","","","","","","","","","","","","","","","","","","","","","","","","","","","",""
"html-keyboard-response","291","3819011","0.0-8.0-2.0-2.9-1.9","1","0","uwkzcgwxxq4k04d","","670.2999999970198","","<p>To replay the <u>TARGET SOUND</u>, press P.</p> When you are ready to begin, press SPACEBAR.","","32","","","","","","","","","","","","","","","","","","","","","","","","","","","","","","","",""
"audio-keyboard-response","292","3833960","0.0-8.0-2.0-3.4","1","0","uwkzcgwxxq4k04d","","2539","","sounds/A/TD/SU_01_TD.mp3","","32","","","TD_SUMMARY","","","","","","","","","","SU","","2400,5100,6900,8700","3","2400","5100","6900","8700","null","546.2999999970198","978.2999999970198","747.8999999910593","_______________________________2540.7999999970198_5646.29999999702_7878.29999999702_9447.89999999106_14319.59999999404","2","","","","","",""
"html-button-response","293","3835252","0.0-8.0-2.0-0.5","1","0","uwkzcgwxxq4k04d","","1288.699999988079","","<p>Trial 6 of 36</p>","0","","","","","","","","","","","","","","ME","sounds/syllables/me_SWS.wav","1500,4200,8700,10500","3","","","","","","","","","","","","","","","",""
"html-keyboard-response","294","3835881","0.0-8.0-2.0-1.5","1","0","uwkzcgwxxq4k04d","","627.5","","","","80","","","","","","","","","","","","","ME","","1500,4200,8700,10500","3","","","","","","","","","","","","","","","",""
"audio-keyboard-response","295","3836183","0.0-8.0-2.0-2.10-0.10","1","0","uwkzcgwxxq4k04d","","null","","sounds/syllables/me_SWS.wav","","null","","","","","","","","","","","","","","","","","","","","","","","","","","","","","","","",""
"html-keyboard-response","296","3837013","0.0-8.0-2.0-2.10-1.10","1","0","uwkzcgwxxq4k04d","","828.4000000059605","","<p>To replay the <u>TARGET SOUND</u>, press P.</p> When you are ready to begin, press SPACEBAR.","","80","","","","","","","","","","","","","","","","","","","","","","","","","","","","","","","",""
"audio-keyboard-response","297","3837815","0.0-8.0-2.0-2.11-0.11","1","0","uwkzcgwxxq4k04d","","null","","sounds/syllables/me_SWS.wav","","null","","","","","","","","","","","","","","","","","","","","","","","","","","","","","","","",""
"html-keyboard-response","298","3838066","0.0-8.0-2.0-2.11-1.11","1","0","uwkzcgwxxq4k04d","","249.90000000596046","","<p>To replay the <u>TARGET SOUND</u>, press P.</p> When you are ready to begin, press SPACEBAR.","","32","","","","","","","","","","","","","","","","","","","","","","","","","","","","","","","",""
"audio-keyboard-response","299","3853015","0.0-8.0-2.0-3.5","1","0","uwkzcgwxxq4k04d","","1669","","sounds/A/TD/ME_04_TD.mp3","","32","","","TD_SUMMARY","","","","","","","","","","ME","","1500,4200,8700,10500","3","1500","4200","8700","10500","null","339","952.5999999940395","null","____________________________________1670.2000000029802_4539_9652.59999999404_11914.59999999404","2","","","","","",""
"html-button-response","300","3855403","0.0-8.0-2.0-0.6","1","0","uwkzcgwxxq4k04d","","2384.5999999940395","","<p>Trial 7 of 36</p>","0","","","","","","","","","","","","","","ME","sounds/syllables/me_SWS.wav","1500,5100,7800,12300","3","","","","","","","","","","","","","","","",""
"html-keyboard-response","301","3856057","0.0-8.0-2.0-1.6","1","0","uwkzcgwxxq4k04d","","652.6000000089407","","","","80","","","","","","","","","","","","","ME","","1500,5100,7800,12300","3","","","","","","","","","","","","","","","",""
"audio-keyboard-response","302","3856358","0.0-8.0-2.0-2.12-0.12","1","0","uwkzcgwxxq4k04d","","null","","sounds/syllables/me_SWS.wav","","null","","","","","","","","","","","","","","","","","","","","","","","","","","","","","","","",""
"html-keyboard-response","303","3856896","0.0-8.0-2.0-2.12-1.12","1","0","uwkzcgwxxq4k04d","","536.7999999970198","","<p>To replay the <u>TARGET SOUND</u>, press P.</p> When you are ready to begin, press SPACEBAR.","","80","","","","","","","","","","","","","","","","","","","","","","","","","","","","","","","",""
"audio-keyboard-response","304","3857702","0.0-8.0-2.0-2.13-0.13","1","0","uwkzcgwxxq4k04d","","null","","sounds/syllables/me_SWS.wav","","null","","","","","","","","","","","","","","","","","","","","","","","","","","","","","","","",""
"html-keyboard-response","305","3857792","0.0-8.0-2.0-2.13-1.13","1","0","uwkzcgwxxq4k04d","","88.59999999403954","","<p>To replay the <u>TARGET SOUND</u>, press P.</p> When you are ready to begin, press SPACEBAR.","","80","","","","","","","","","","","","","","","","","","","","","","","","","","","","","","","",""
"audio-keyboard-response","306","3858598","0.0-8.0-2.0-2.14-0.14","1","0","uwkzcgwxxq4k04d","","null","","sounds/syllables/me_SWS.wav","","null","","","","","","","","","","","","","","","","","","","","","","","","","","","","","","","",""
"html-keyboard-response","307","3859013","0.0-8.0-2.0-2.14-1.14","1","0","uwkzcgwxxq4k04d","","413.70000000298023","","<p>To replay the <u>TARGET SOUND</u>, press P.</p> When you are ready to begin, press SPACEBAR.","","32","","","","","","","","","","","","","","","","","","","","","","","","","","","","","","","",""
"audio-keyboard-response","308","3873968","0.0-8.0-2.0-3.6","1","0","uwkzcgwxxq4k04d","","1632","","sounds/A/TD/ME_10_TD.mp3","","32","","","TD_SUMMARY","","","","","","","","","","ME","","1500,5100,7800,12300","3","1500","5100","7800","12300","null","814.5","571.1000000089407","null","________________________________________1637.6000000089407_5914.5_8371.10000000894_10234.10000000894_13938.10000000894","3","","","","","",""
"html-button-response","309","3875561","0.0-8.0-2.0-0.7","1","0","uwkzcgwxxq4k04d","","1590.3999999910593","","<p>Trial 8 of 36</p>","0","","","","","","","","","","","","","","FE","sounds/syllables/fe_SWS.wav","1800,4500,6300,11700","1","","","","","","","","","","","","","","","",""
"html-keyboard-response","310","3875981","0.0-8.0-2.0-1.7","1","0","uwkzcgwxxq4k04d","","418.5","","","","80","","","","","","","","","","","","","FE","","1800,4500,6300,11700","1","","","","","","","","","","","","","","","",""
"audio-keyboard-response","311","3876282","0.0-8.0-2.0-2.15-0.15","1","0","uwkzcgwxxq4k04d","","null","","sounds/syllables/fe_SWS.wav","","null","","","","","","","","","","","","","","","","","","","","","","","","","","","","","","","",""
"html-keyboard-response","312","3876833","0.0-8.0-2.0-2.15-1.15","1","0","uwkzcgwxxq4k04d","","549.3999999910593","","<p>To replay the <u>TARGET SOUND</u>, press P.</p> When you are ready to begin, press SPACEBAR.","","80","","","","","","","","","","","","","","","","","","","","","","","","","","","","","","","",""
"audio-keyboard-response","313","3877637","0.0-8.0-2.0-2.16-0.16","1","0","uwkzcgwxxq4k04d","","null","","sounds/syllables/fe_SWS.wav","","null","","","","","","","","","","","","","","","","","","","","","","","","","","","","","","","",""
"html-keyboard-response","314","3878205","0.0-8.0-2.0-2.16-1.16","1","0","uwkzcgwxxq4k04d","","567.2000000029802","","<p>To replay the <u>TARGET SOUND</u>, press P.</p> When you are ready to begin, press SPACEBAR.","","80","","","","","","","","","","","","","","","","","","","","","","","","","","","","","","","",""
"audio-keyboard-response","315","3879013","0.0-8.0-2.0-2.17-0.17","1","0","uwkzcgwxxq4k04d","","null","","sounds/syllables/fe_SWS.wav","","null","","","","","","","","","","","","","","","","","","","","","","","","","","","","","","","",""
"html-keyboard-response","316","3879540","0.0-8.0-2.0-2.17-1.17","1","0","uwkzcgwxxq4k04d","","525.5","","<p>To replay the <u>TARGET SOUND</u>, press P.</p> When you are ready to begin, press SPACEBAR.","","32","","","","","","","","","","","","","","","","","","","","","","","","","","","","","","","",""
"audio-keyboard-response","317","3894484","0.0-8.0-2.0-3.7","1","0","uwkzcgwxxq4k04d","","2421","","sounds/A/TD/FE_08_TD.mp3","","32","","","TD_SUMMARY","","","","","","","","","","FE","","1800,4500,6300,11700","1","1800","4500","6300","11700","620.6000000089407","561.9000000059605","null","427.90000000596046","_____________________________________________2420.6000000089407_5061.9000000059605_7886.9000000059605_10260.60000000894_12127.90000000596","3","","","","","",""
"html-button-response","318","3897065","0.0-8.0-2.0-0.8","1","0","uwkzcgwxxq4k04d","","2577.8999999910593","","<p>Trial 9 of 36</p>","0","","","","","","","","","","","","","","GE","sounds/syllables/ge_SWS.wav","3900,5700,7500,9300","2","","","","","","","","","","","","","","","",""
"html-keyboard-response","319","3897618","0.0-8.0-2.0-1.8","1","0","uwkzcgwxxq4k04d","","553.0999999940395","","","","80","","","","","","","","","","","","","GE","","3900,5700,7500,9300","2","","","","","","","","","","","","","","","",""
"audio-keyboard-response","320","3897919","0.0-8.0-2.0-2.18-0.18","1","0","uwkzcgwxxq4k04d","","null","","sounds/syllables/ge_SWS.wav","","null","","","","","","","","","","","","","","","","","","","","","","","","","","","","","","","",""
"html-keyboard-response","321","3898757","0.0-8.0-2.0-2.18-1.18","1","0","uwkzcgwxxq4k04d","","836.3999999910593","","<p>To replay the <u>TARGET SOUND</u>, press P.</p> When you are ready to begin, press SPACEBAR.","","80","","","","","","","","","","","","","","","","","","","","","","","","","","","","","","","",""
"audio-keyboard-response","322","3899561","0.0-8.0-2.0-2.19-0.19","1","0","uwkzcgwxxq4k04d","","null","","sounds/syllables/ge_SWS.wav","","null","","","","","","","","","","","","","","","","","","","","","","","","","","","","","","","",""
"html-keyboard-response","323","3899844","0.0-8.0-2.0-2.19-1.19","1","0","uwkzcgwxxq4k04d","","281","","<p>To replay the <u>TARGET SOUND</u>, press P.</p> When you are ready to begin, press SPACEBAR.","","32","","","","","","","","","","","","","","","","","","","","","","","","","","","","","","","",""
"audio-keyboard-response","324","3914793","0.0-8.0-2.0-3.8","1","0","uwkzcgwxxq4k04d","","3440","","sounds/A/TD/GE_04_TD.mp3","","32","","","TD_SUMMARY","","","","","","","","","","GE","","3900,5700,7500,9300","2","3900","5700","7500","9300","null","653.1000000089407","938.9000000059605","884.7999999970198","__________________________________________________3437.2999999970198_6099.9000000059605_6353.100000008941_8438.90000000596_9893.90000000596_10184.79999999702_11990.20000000298_13462.20000000298","2","","","","","",""
"html-button-response","325","3916174","0.0-8.0-2.0-0.9","1","0","uwkzcgwxxq4k04d","","1378.7000000029802","","<p>Trial 10 of 36</p>","0","","","","","","","","","","","","","","TA","sounds/syllables/ta_SWS.wav","4500,6300,8100,12600","1","","","","","","","","","","","","","","","",""
"html-keyboard-response","326","3917173","0.0-8.0-2.0-1.9","1","0","uwkzcgwxxq4k04d","","997.0999999940395","","","","80","","","","","","","","","","","","","TA","","4500,6300,8100,12600","1","","","","","","","","","","","","","","","",""
"audio-keyboard-response","327","3917475","0.0-8.0-2.0-2.20-0.20","1","0","uwkzcgwxxq4k04d","","null","","sounds/syllables/ta_SWS.wav","","null","","","","","","","","","","","","","","","","","","","","","","","","","","","","","","","",""
"html-keyboard-response","328","3918148","0.0-8.0-2.0-2.20-1.20","1","0","uwkzcgwxxq4k04d","","671.6000000089407","","<p>To replay the <u>TARGET SOUND</u>, press P.</p> When you are ready to begin, press SPACEBAR.","","80","","","","","","","","","","","","","","","","","","","","","","","","","","","","","","","",""
"audio-keyboard-response","329","3918952","0.0-8.0-2.0-2.21-0.21","1","0","uwkzcgwxxq4k04d","","null","","sounds/syllables/ta_SWS.wav","","null","","","","","","","","","","","","","","","","","","","","","","","","","","","","","","","",""
"html-keyboard-response","330","3919726","0.0-8.0-2.0-2.21-1.21","1","0","uwkzcgwxxq4k04d","","772.2000000029802","","<p>To replay the <u>TARGET SOUND</u>, press P.</p> When you are ready to begin, press SPACEBAR.","","80","","","","","","","","","","","","","","","","","","","","","","","","","","","","","","","",""
"audio-keyboard-response","331","3920531","0.0-8.0-2.0-2.22-0.22","1","0","uwkzcgwxxq4k04d","","null","","sounds/syllables/ta_SWS.wav","","null","","","","","","","","","","","","","","","","","","","","","","","","","","","","","","","",""
"html-keyboard-response","332","3921667","0.0-8.0-2.0-2.22-1.22","1","0","uwkzcgwxxq4k04d","","1134.9000000059605","","<p>To replay the <u>TARGET SOUND</u>, press P.</p> When you are ready to begin, press SPACEBAR.","","80","","","","","","","","","","","","","","","","","","","","","","","","","","","","","","","",""
"audio-keyboard-response","333","3922472","0.0-8.0-2.0-2.23-0.23","1","0","uwkzcgwxxq4k04d","","null","","sounds/syllables/ta_SWS.wav","","null","","","","","","","","","","","","","","","","","","","","","","","","","","","","","","","",""
"html-keyboard-response","334","3924099","0.0-8.0-2.0-2.23-1.23","1","0","uwkzcgwxxq4k04d","","1625.4000000059605","","<p>To replay the <u>TARGET SOUND</u>, press P.</p> When you are ready to begin, press SPACEBAR.","","32","","","","","","","","","","","","","","","","","","","","","","","","","","","","","","","",""
"audio-keyboard-response","335","3939047","0.0-8.0-2.0-3.9","1","0","uwkzcgwxxq4k04d","","2267","","sounds/A/TD/TA_02_TD.mp3","","32","","","TD_SUMMARY","","","","","","","","","","TA","","4500,6300,8100,12600","1","4500","6300","8100","12600","null","null","null","null","__________________________________________________________2269.5_3960.4000000059605_5951.20000000298_7893.9000000059605_9850.60000000894_11813.5_14445.60000000894","4","","","","","",""
"html-button-response","336","3942300","0.0-8.0-2.0-0.10","1","0","uwkzcgwxxq4k04d","","3251","","<p>Trial 11 of 36</p>","0","","","","","","","","","","","","","","GE","sounds/syllables/ge_SWS.wav","3000,4800,7500,10200","2","","","","","","","","","","","","","","","",""
"html-keyboard-response","337","3943121","0.0-8.0-2.0-1.10","1","0","uwkzcgwxxq4k04d","","819.8999999910593","","","","80","","","","","","","","","","","","","GE","","3000,4800,7500,10200","2","","","","","","","","","","","","","","","",""
