"trial_type","trial_index","time_elapsed","internal_node_id","counterbalance","lang_instruct","ParticipantID","view_history","rt","url","stimulus","button_pressed","key_press","correctRESP","correct","designation","location","correctanswer","responses","sentence","keywords","typed_resp","keyword1_acc","keyword2_acc","keyword3_acc","keyword4_acc","keyword5_acc","total_acc","prop_acc","timeouts","pause_rt01","pause_rt02","train_file","numKeyPress","sound","fam_type","SYLLABLE","EXEMPLAR","TD_LOCS","TD_TYPE","TDLOC_01","TDLOC_02","TDLOC_03","TDLOC_04","TD_RT_01","TD_RT_02","TD_RT_03","TD_RT_04","TD_SUBJ_RTs","number_of_plays","slider_start","response","question_order","syllable","syllable_type"
"pavlovia","0","5","0.0-0.0","2","1","vv7enqzjt2yw20a","","","","","","","","","","","","","","","","","","","","","","","","","","","","","","","","","","","","","","","","","","","","","","","",""
"instructions","1","90896","0.0-1.0","2","1","vv7enqzjt2yw20a","[{""page_index"":0,""viewing_time"":3351},{""page_index"":1,""viewing_time"":87538.5}]","90894.5","","","","","","","","","","","","","","","","","","","","","","","","","","","","","","","","","","","","","","","","","","","","","",""
"external-html","2","95086","0.0-2.0","2","1","vv7enqzjt2yw20a","","3825.4000000059605","consent/consent.html","","","","","","","","","","","","","","","","","","","","","","","","","","","","","","","","","","","","","","","","","","","","",""
"html-button-response","3","100452","0.0-3.0-0.0-0.0","2","1","vv7enqzjt2yw20a","","5362","","<p>Welcome to the study. You will first complete a short volume calibration and headphone check.</p><p>Please make sure you are in a quiet listening environment, that you are wearing headphones, and that your computer's volume is turned on.<p></p>","0","","","","","","","","","","","","","","","","","","","","","","","","","","","","","","","","","","","","","","","","","","",""
"html-button-response","4","102978","0.0-3.0-0.0-1.0","2","1","vv7enqzjt2yw20a","","2269.800000011921","","<p>The volume calibration will be first.</p><p>You will hear a thirty-second noise. Please adjust your computer's volume so that this noise is being presented at a comfortable level.<p></p>","0","","","","","","","","","","","","","","","","","","","","","","","","","","","","","","","","","","","","","","","","","","",""
"audio-button-response","5","112980","0.0-3.0-0.0-2.0","2","1","vv7enqzjt2yw20a","","9216","","audCalib/volumetest.mp3","0","","","","","","","","","","","","","","","","","","","","","","","","","","","","","","","","","","","","","","","","","","",""
"html-button-response","6","120099","0.0-3.0-1.0-0.0","2","1","vv7enqzjt2yw20a","","7116.800000011921","","<p>You will now complete a short headphone check.</p><p>On each trial, you will hear three tones. One of these tones will be quieter than the others. Your task is to identify whether the quiet tone occured first, second, or third.</p><p>There are six trials in total.<p></p>","0","","","","","","","","","","","","","","","","","","","","","","","","","","","","","","","","","","","","","","","","","","",""
"html-keyboard-response","7","120859","0.0-3.0-1.0-1.0-0.0","2","1","vv7enqzjt2yw20a","","null","","<div style=""font-size:60px;"">+</div>","","null","","","","","","","","","","","","","","","","","","","","","","","","","","","","","","","","","","","","","","","","","",""
"audio-button-response","8","128947","0.0-3.0-1.0-1.0-1.0","2","1","vv7enqzjt2yw20a","","8085","","audCalib/t2_1.mp3","1","","1","1","headphone-test","","","","","","","","","","","","","","","","","","","","","","","","","","","","","","","","","","","","","","",""
"html-keyboard-response","9","129711","0.0-3.0-1.0-1.0-0.1","2","1","vv7enqzjt2yw20a","","null","","<div style=""font-size:60px;"">+</div>","","null","","","","","","","","","","","","","","","","","","","","","","","","","","","","","","","","","","","","","","","","","",""
"audio-button-response","10","134619","0.0-3.0-1.0-1.0-1.1","2","1","vv7enqzjt2yw20a","","4907","","audCalib/t3_2.mp3","2","","2","1","headphone-test","","","","","","","","","","","","","","","","","","","","","","","","","","","","","","","","","","","","","","",""
"html-keyboard-response","11","135381","0.0-3.0-1.0-1.0-0.2","2","1","vv7enqzjt2yw20a","","null","","<div style=""font-size:60px;"">+</div>","","null","","","","","","","","","","","","","","","","","","","","","","","","","","","","","","","","","","","","","","","","","",""
"audio-button-response","12","140018","0.0-3.0-1.0-1.0-1.2","2","1","vv7enqzjt2yw20a","","4635","","audCalib/t3_1.mp3","2","","2","1","headphone-test","","","","","","","","","","","","","","","","","","","","","","","","","","","","","","","","","","","","","","",""
"html-keyboard-response","13","140775","0.0-3.0-1.0-1.0-0.3","2","1","vv7enqzjt2yw20a","","null","","<div style=""font-size:60px;"">+</div>","","null","","","","","","","","","","","","","","","","","","","","","","","","","","","","","","","","","","","","","","","","","",""
"audio-button-response","14","145235","0.0-3.0-1.0-1.0-1.3","2","1","vv7enqzjt2yw20a","","4459","","audCalib/t1_1.mp3","0","","0","1","headphone-test","","","","","","","","","","","","","","","","","","","","","","","","","","","","","","","","","","","","","","",""
"html-keyboard-response","15","145994","0.0-3.0-1.0-1.0-0.4","2","1","vv7enqzjt2yw20a","","null","","<div style=""font-size:60px;"">+</div>","","null","","","","","","","","","","","","","","","","","","","","","","","","","","","","","","","","","","","","","","","","","",""
"audio-button-response","16","150276","0.0-3.0-1.0-1.0-1.4","2","1","vv7enqzjt2yw20a","","4277","","audCalib/t1_2.mp3","0","","0","1","headphone-test","","","","","","","","","","","","","","","","","","","","","","","","","","","","","","","","","","","","","","",""
"html-keyboard-response","17","151034","0.0-3.0-1.0-1.0-0.5","2","1","vv7enqzjt2yw20a","","null","","<div style=""font-size:60px;"">+</div>","","null","","","","","","","","","","","","","","","","","","","","","","","","","","","","","","","","","","","","","","","","","",""
"audio-button-response","18","155418","0.0-3.0-1.0-1.0-1.5","2","1","vv7enqzjt2yw20a","","4379","","audCalib/t2_2.mp3","1","","1","1","headphone-test","","","","","","","","","","","","","","","","","","","","","","","","","","","","","","","","","","","","","","",""
"html-button-response","19","158090","0.0-3.0-2.0","2","1","vv7enqzjt2yw20a","","2414.7000000178814","","<p>The volume calibration and headphone check are now complete.</p>","0","","","","","","","","","","","","","","","","","","","","","","","","","","","","","","","","","","","","","","","","","","",""
"instructions","20","175186","0.0-4.0-0.0","2","1","vv7enqzjt2yw20a","[{""page_index"":0,""viewing_time"":1807.800000011921},{""page_index"":1,""viewing_time"":13087},{""page_index"":2,""viewing_time"":2199.9000000059605}]","17095.30000001192","","","","","","","","","","","","","","","","","","","","","","","","","","","","","","","","","","","","","","","","","","","","","",""
"audio-keyboard-response","21","175488","0.0-4.0-1.0-0.0","2","1","vv7enqzjt2yw20a","","null","","sounds/induction/left/ko_SWS.wav","","null","","","","","","","","","","","","","","","","","","","","","","","","","","","","","","","","","","","","","","","","","",""
"html-button-response","22","179475","0.0-4.0-1.0-1.0","2","1","vv7enqzjt2yw20a","","3985","","What sound did you hear?","0","","","0","INDUCTION-JUDGMENT","left","1","","","","","","","","","","","","","","","","","","","","","","","","","","","","","","","","","","","","",""
"html-keyboard-response","23","180480","0.0-4.0-1.0-2.0","2","1","vv7enqzjt2yw20a","","null","","<p style=""color:red;""><b>Incorrect!</b></p>","","null","","","","","","","","","","","","","","","","","","","","","","","","","","","","","","","","","","","","","","","","","",""
"audio-keyboard-response","24","181285","0.0-4.0-1.0-0.1","2","1","vv7enqzjt2yw20a","","null","","sounds/induction/right/ta_SWS.wav","","null","","","","","","","","","","","","","","","","","","","","","","","","","","","","","","","","","","","","","","","","","",""
"html-button-response","25","182802","0.0-4.0-1.0-1.1","2","1","vv7enqzjt2yw20a","","1516.2000000178814","","What sound did you hear?","0","","","0","INDUCTION-JUDGMENT","right","1","","","","","","","","","","","","","","","","","","","","","","","","","","","","","","","","","","","","",""
"html-keyboard-response","26","183809","0.0-4.0-1.0-2.1","2","1","vv7enqzjt2yw20a","","null","","<p style=""color:red;""><b>Incorrect!</b></p>","","null","","","","","","","","","","","","","","","","","","","","","","","","","","","","","","","","","","","","","","","","","",""
"audio-keyboard-response","27","184613","0.0-4.0-1.0-0.2","2","1","vv7enqzjt2yw20a","","null","","sounds/induction/left/re_SWS.wav","","null","","","","","","","","","","","","","","","","","","","","","","","","","","","","","","","","","","","","","","","","","",""
"html-button-response","28","186523","0.0-4.0-1.0-1.2","2","1","vv7enqzjt2yw20a","","1907.800000011921","","What sound did you hear?","0","","","1","INDUCTION-JUDGMENT","left","0","","","","","","","","","","","","","","","","","","","","","","","","","","","","","","","","","","","","",""
"html-keyboard-response","29","187529","0.0-4.0-1.0-2.2","2","1","vv7enqzjt2yw20a","","null","","<p style=""color:green;""><b>Correct!</b></p>","","null","","","","","","","","","","","","","","","","","","","","","","","","","","","","","","","","","","","","","","","","","",""
"audio-keyboard-response","30","188336","0.0-4.0-1.0-0.3","2","1","vv7enqzjt2yw20a","","null","","sounds/induction/right/ni_SWS.wav","","null","","","","","","","","","","","","","","","","","","","","","","","","","","","","","","","","","","","","","","","","","",""
"html-button-response","31","191171","0.0-4.0-1.0-1.3","2","1","vv7enqzjt2yw20a","","2832.199999988079","","What sound did you hear?","1","","","0","INDUCTION-JUDGMENT","right","0","","","","","","","","","","","","","","","","","","","","","","","","","","","","","","","","","","","","",""
"html-keyboard-response","32","192173","0.0-4.0-1.0-2.3","2","1","vv7enqzjt2yw20a","","null","","<p style=""color:red;""><b>Incorrect!</b></p>","","null","","","","","","","","","","","","","","","","","","","","","","","","","","","","","","","","","","","","","","","","","",""
"audio-keyboard-response","33","192981","0.0-4.0-1.0-0.4","2","1","vv7enqzjt2yw20a","","null","","sounds/induction/right/re_SWS.wav","","null","","","","","","","","","","","","","","","","","","","","","","","","","","","","","","","","","","","","","","","","","",""
"html-button-response","34","194241","0.0-4.0-1.0-1.4","2","1","vv7enqzjt2yw20a","","1258.9000000059605","","What sound did you hear?","1","","","1","INDUCTION-JUDGMENT","right","1","","","","","","","","","","","","","","","","","","","","","","","","","","","","","","","","","","","","",""
"html-keyboard-response","35","195245","0.0-4.0-1.0-2.4","2","1","vv7enqzjt2yw20a","","null","","<p style=""color:green;""><b>Correct!</b></p>","","null","","","","","","","","","","","","","","","","","","","","","","","","","","","","","","","","","","","","","","","","","",""
"audio-keyboard-response","36","196053","0.0-4.0-1.0-0.5","2","1","vv7enqzjt2yw20a","","null","","sounds/induction/right/ge_SWS.wav","","null","","","","","","","","","","","","","","","","","","","","","","","","","","","","","","","","","","","","","","","","","",""
"html-button-response","37","197466","0.0-4.0-1.0-1.5","2","1","vv7enqzjt2yw20a","","1412.4000000059605","","What sound did you hear?","0","","","1","INDUCTION-JUDGMENT","right","0","","","","","","","","","","","","","","","","","","","","","","","","","","","","","","","","","","","","",""
"html-keyboard-response","38","198472","0.0-4.0-1.0-2.5","2","1","vv7enqzjt2yw20a","","null","","<p style=""color:green;""><b>Correct!</b></p>","","null","","","","","","","","","","","","","","","","","","","","","","","","","","","","","","","","","","","","","","","","","",""
"audio-keyboard-response","39","199274","0.0-4.0-1.0-0.6","2","1","vv7enqzjt2yw20a","","null","","sounds/induction/right/ti_SWS.wav","","null","","","","","","","","","","","","","","","","","","","","","","","","","","","","","","","","","","","","","","","","","",""
"html-button-response","40","200802","0.0-4.0-1.0-1.6","2","1","vv7enqzjt2yw20a","","1526.5","","What sound did you hear?","1","","","1","INDUCTION-JUDGMENT","right","1","","","","","","","","","","","","","","","","","","","","","","","","","","","","","","","","","","","","",""
"html-keyboard-response","41","201808","0.0-4.0-1.0-2.6","2","1","vv7enqzjt2yw20a","","null","","<p style=""color:green;""><b>Correct!</b></p>","","null","","","","","","","","","","","","","","","","","","","","","","","","","","","","","","","","","","","","","","","","","",""
"audio-keyboard-response","42","202612","0.0-4.0-1.0-0.7","2","1","vv7enqzjt2yw20a","","null","","sounds/induction/right/su_SWS.wav","","null","","","","","","","","","","","","","","","","","","","","","","","","","","","","","","","","","","","","","","","","","",""
"html-button-response","43","204515","0.0-4.0-1.0-1.7","2","1","vv7enqzjt2yw20a","","1901","","What sound did you hear?","0","","","0","INDUCTION-JUDGMENT","right","1","","","","","","","","","","","","","","","","","","","","","","","","","","","","","","","","","","","","",""
"html-keyboard-response","44","205520","0.0-4.0-1.0-2.7","2","1","vv7enqzjt2yw20a","","null","","<p style=""color:red;""><b>Incorrect!</b></p>","","null","","","","","","","","","","","","","","","","","","","","","","","","","","","","","","","","","","","","","","","","","",""
"audio-keyboard-response","45","206324","0.0-4.0-1.0-0.8","2","1","vv7enqzjt2yw20a","","null","","sounds/induction/left/su_SWS.wav","","null","","","","","","","","","","","","","","","","","","","","","","","","","","","","","","","","","","","","","","","","","",""
"html-button-response","46","208713","0.0-4.0-1.0-1.8","2","1","vv7enqzjt2yw20a","","2387.5","","What sound did you hear?","0","","","1","INDUCTION-JUDGMENT","left","0","","","","","","","","","","","","","","","","","","","","","","","","","","","","","","","","","","","","",""
"html-keyboard-response","47","209716","0.0-4.0-1.0-2.8","2","1","vv7enqzjt2yw20a","","null","","<p style=""color:green;""><b>Correct!</b></p>","","null","","","","","","","","","","","","","","","","","","","","","","","","","","","","","","","","","","","","","","","","","",""
"audio-keyboard-response","48","210522","0.0-4.0-1.0-0.9","2","1","vv7enqzjt2yw20a","","null","","sounds/induction/right/ru_SWS.wav","","null","","","","","","","","","","","","","","","","","","","","","","","","","","","","","","","","","","","","","","","","","",""
"html-button-response","49","212426","0.0-4.0-1.0-1.9","2","1","vv7enqzjt2yw20a","","1902","","What sound did you hear?","1","","","1","INDUCTION-JUDGMENT","right","1","","","","","","","","","","","","","","","","","","","","","","","","","","","","","","","","","","","","",""
"html-keyboard-response","50","213432","0.0-4.0-1.0-2.9","2","1","vv7enqzjt2yw20a","","null","","<p style=""color:green;""><b>Correct!</b></p>","","null","","","","","","","","","","","","","","","","","","","","","","","","","","","","","","","","","","","","","","","","","",""
"audio-keyboard-response","51","214239","0.0-4.0-1.0-0.10","2","1","vv7enqzjt2yw20a","","null","","sounds/induction/left/fu_SWS.wav","","null","","","","","","","","","","","","","","","","","","","","","","","","","","","","","","","","","","","","","","","","","",""
"html-button-response","52","215770","0.0-4.0-1.0-1.10","2","1","vv7enqzjt2yw20a","","1529","","What sound did you hear?","1","","","1","INDUCTION-JUDGMENT","left","1","","","","","","","","","","","","","","","","","","","","","","","","","","","","","","","","","","","","",""
"html-keyboard-response","53","216775","0.0-4.0-1.0-2.10","2","1","vv7enqzjt2yw20a","","null","","<p style=""color:green;""><b>Correct!</b></p>","","null","","","","","","","","","","","","","","","","","","","","","","","","","","","","","","","","","","","","","","","","","",""
"audio-keyboard-response","54","217583","0.0-4.0-1.0-0.11","2","1","vv7enqzjt2yw20a","","null","","sounds/induction/left/fu_SWS.wav","","null","","","","","","","","","","","","","","","","","","","","","","","","","","","","","","","","","","","","","","","","","",""
"html-button-response","55","218602","0.0-4.0-1.0-1.11","2","1","vv7enqzjt2yw20a","","1018.3000000119209","","What sound did you hear?","1","","","1","INDUCTION-JUDGMENT","left","1","","","","","","","","","","","","","","","","","","","","","","","","","","","","","","","","","","","","",""
"html-keyboard-response","56","219608","0.0-4.0-1.0-2.11","2","1","vv7enqzjt2yw20a","","null","","<p style=""color:green;""><b>Correct!</b></p>","","null","","","","","","","","","","","","","","","","","","","","","","","","","","","","","","","","","","","","","","","","","",""
"audio-keyboard-response","57","220414","0.0-4.0-1.0-0.12","2","1","vv7enqzjt2yw20a","","null","","sounds/induction/left/fe_SWS.wav","","null","","","","","","","","","","","","","","","","","","","","","","","","","","","","","","","","","","","","","","","","","",""
"html-button-response","58","222410","0.0-4.0-1.0-1.12","2","1","vv7enqzjt2yw20a","","1994.199999988079","","What sound did you hear?","1","","","1","INDUCTION-JUDGMENT","left","1","","","","","","","","","","","","","","","","","","","","","","","","","","","","","","","","","","","","",""
"html-keyboard-response","59","223415","0.0-4.0-1.0-2.12","2","1","vv7enqzjt2yw20a","","null","","<p style=""color:green;""><b>Correct!</b></p>","","null","","","","","","","","","","","","","","","","","","","","","","","","","","","","","","","","","","","","","","","","","",""
"audio-keyboard-response","60","224222","0.0-4.0-1.0-0.13","2","1","vv7enqzjt2yw20a","","null","","sounds/induction/right/me_SWS.wav","","null","","","","","","","","","","","","","","","","","","","","","","","","","","","","","","","","","","","","","","","","","",""
"html-button-response","61","225570","0.0-4.0-1.0-1.13","2","1","vv7enqzjt2yw20a","","1346.199999988079","","What sound did you hear?","0","","","1","INDUCTION-JUDGMENT","right","0","","","","","","","","","","","","","","","","","","","","","","","","","","","","","","","","","","","","",""
"html-keyboard-response","62","226572","0.0-4.0-1.0-2.13","2","1","vv7enqzjt2yw20a","","null","","<p style=""color:green;""><b>Correct!</b></p>","","null","","","","","","","","","","","","","","","","","","","","","","","","","","","","","","","","","","","","","","","","","",""
"audio-keyboard-response","63","227374","0.0-4.0-1.0-0.14","2","1","vv7enqzjt2yw20a","","null","","sounds/induction/left/ru_SWS.wav","","null","","","","","","","","","","","","","","","","","","","","","","","","","","","","","","","","","","","","","","","","","",""
"html-button-response","64","228746","0.0-4.0-1.0-1.14","2","1","vv7enqzjt2yw20a","","1369.4000000059605","","What sound did you hear?","0","","","1","INDUCTION-JUDGMENT","left","0","","","","","","","","","","","","","","","","","","","","","","","","","","","","","","","","","","","","",""
"html-keyboard-response","65","229751","0.0-4.0-1.0-2.14","2","1","vv7enqzjt2yw20a","","null","","<p style=""color:green;""><b>Correct!</b></p>","","null","","","","","","","","","","","","","","","","","","","","","","","","","","","","","","","","","","","","","","","","","",""
"audio-keyboard-response","66","230553","0.0-4.0-1.0-0.15","2","1","vv7enqzjt2yw20a","","null","","sounds/induction/left/fe_SWS.wav","","null","","","","","","","","","","","","","","","","","","","","","","","","","","","","","","","","","","","","","","","","","",""
"html-button-response","67","233218","0.0-4.0-1.0-1.15","2","1","vv7enqzjt2yw20a","","2664","","What sound did you hear?","1","","","1","INDUCTION-JUDGMENT","left","1","","","","","","","","","","","","","","","","","","","","","","","","","","","","","","","","","","","","",""
"html-keyboard-response","68","234220","0.0-4.0-1.0-2.15","2","1","vv7enqzjt2yw20a","","null","","<p style=""color:green;""><b>Correct!</b></p>","","null","","","","","","","","","","","","","","","","","","","","","","","","","","","","","","","","","","","","","","","","","",""
"audio-keyboard-response","69","235022","0.0-4.0-1.0-0.16","2","1","vv7enqzjt2yw20a","","null","","sounds/induction/right/ko_SWS.wav","","null","","","","","","","","","","","","","","","","","","","","","","","","","","","","","","","","","","","","","","","","","",""
"html-button-response","70","237226","0.0-4.0-1.0-1.16","2","1","vv7enqzjt2yw20a","","2201.800000011921","","What sound did you hear?","0","","","1","INDUCTION-JUDGMENT","right","0","","","","","","","","","","","","","","","","","","","","","","","","","","","","","","","","","","","","",""
"html-keyboard-response","71","238231","0.0-4.0-1.0-2.16","2","1","vv7enqzjt2yw20a","","null","","<p style=""color:green;""><b>Correct!</b></p>","","null","","","","","","","","","","","","","","","","","","","","","","","","","","","","","","","","","","","","","","","","","",""
"audio-keyboard-response","72","239038","0.0-4.0-1.0-0.17","2","1","vv7enqzjt2yw20a","","null","","sounds/induction/left/ni_SWS.wav","","null","","","","","","","","","","","","","","","","","","","","","","","","","","","","","","","","","","","","","","","","","",""
"html-button-response","73","241378","0.0-4.0-1.0-1.17","2","1","vv7enqzjt2yw20a","","2337.9000000059605","","What sound did you hear?","1","","","1","INDUCTION-JUDGMENT","left","1","","","","","","","","","","","","","","","","","","","","","","","","","","","","","","","","","","","","",""
"html-keyboard-response","74","242384","0.0-4.0-1.0-2.17","2","1","vv7enqzjt2yw20a","","null","","<p style=""color:green;""><b>Correct!</b></p>","","null","","","","","","","","","","","","","","","","","","","","","","","","","","","","","","","","","","","","","","","","","",""
"audio-keyboard-response","75","243192","0.0-4.0-1.0-0.18","2","1","vv7enqzjt2yw20a","","null","","sounds/induction/left/su_SWS.wav","","null","","","","","","","","","","","","","","","","","","","","","","","","","","","","","","","","","","","","","","","","","",""
"html-button-response","76","245434","0.0-4.0-1.0-1.18","2","1","vv7enqzjt2yw20a","","2240.5999999940395","","What sound did you hear?","1","","","0","INDUCTION-JUDGMENT","left","0","","","","","","","","","","","","","","","","","","","","","","","","","","","","","","","","","","","","",""
"html-keyboard-response","77","246441","0.0-4.0-1.0-2.18","2","1","vv7enqzjt2yw20a","","null","","<p style=""color:red;""><b>Incorrect!</b></p>","","null","","","","","","","","","","","","","","","","","","","","","","","","","","","","","","","","","","","","","","","","","",""
"audio-keyboard-response","78","247246","0.0-4.0-1.0-0.19","2","1","vv7enqzjt2yw20a","","null","","sounds/induction/right/fe_SWS.wav","","null","","","","","","","","","","","","","","","","","","","","","","","","","","","","","","","","","","","","","","","","","",""
"html-button-response","79","248498","0.0-4.0-1.0-1.19","2","1","vv7enqzjt2yw20a","","1250.699999988079","","What sound did you hear?","0","","","1","INDUCTION-JUDGMENT","right","0","","","","","","","","","","","","","","","","","","","","","","","","","","","","","","","","","","","","",""
"html-keyboard-response","80","249505","0.0-4.0-1.0-2.19","2","1","vv7enqzjt2yw20a","","null","","<p style=""color:green;""><b>Correct!</b></p>","","null","","","","","","","","","","","","","","","","","","","","","","","","","","","","","","","","","","","","","","","","","",""
"audio-keyboard-response","81","250307","0.0-4.0-1.0-0.20","2","1","vv7enqzjt2yw20a","","null","","sounds/induction/left/ta_SWS.wav","","null","","","","","","","","","","","","","","","","","","","","","","","","","","","","","","","","","","","","","","","","","",""
"html-button-response","82","251985","0.0-4.0-1.0-1.20","2","1","vv7enqzjt2yw20a","","1677","","What sound did you hear?","0","","","1","INDUCTION-JUDGMENT","left","0","","","","","","","","","","","","","","","","","","","","","","","","","","","","","","","","","","","","",""
"html-keyboard-response","83","252988","0.0-4.0-1.0-2.20","2","1","vv7enqzjt2yw20a","","null","","<p style=""color:green;""><b>Correct!</b></p>","","null","","","","","","","","","","","","","","","","","","","","","","","","","","","","","","","","","","","","","","","","","",""
"audio-keyboard-response","84","253789","0.0-4.0-1.0-0.21","2","1","vv7enqzjt2yw20a","","null","","sounds/induction/left/re_SWS.wav","","null","","","","","","","","","","","","","","","","","","","","","","","","","","","","","","","","","","","","","","","","","",""
"html-button-response","85","255026","0.0-4.0-1.0-1.21","2","1","vv7enqzjt2yw20a","","1235","","What sound did you hear?","0","","","1","INDUCTION-JUDGMENT","left","0","","","","","","","","","","","","","","","","","","","","","","","","","","","","","","","","","","","","",""
"html-keyboard-response","86","256027","0.0-4.0-1.0-2.21","2","1","vv7enqzjt2yw20a","","null","","<p style=""color:green;""><b>Correct!</b></p>","","null","","","","","","","","","","","","","","","","","","","","","","","","","","","","","","","","","","","","","","","","","",""
"audio-keyboard-response","87","256829","0.0-4.0-1.0-0.22","2","1","vv7enqzjt2yw20a","","null","","sounds/induction/left/ni_SWS.wav","","null","","","","","","","","","","","","","","","","","","","","","","","","","","","","","","","","","","","","","","","","","",""
"html-button-response","88","258530","0.0-4.0-1.0-1.22","2","1","vv7enqzjt2yw20a","","1699.4000000059605","","What sound did you hear?","1","","","1","INDUCTION-JUDGMENT","left","1","","","","","","","","","","","","","","","","","","","","","","","","","","","","","","","","","","","","",""
"html-keyboard-response","89","259536","0.0-4.0-1.0-2.22","2","1","vv7enqzjt2yw20a","","null","","<p style=""color:green;""><b>Correct!</b></p>","","null","","","","","","","","","","","","","","","","","","","","","","","","","","","","","","","","","","","","","","","","","",""
"audio-keyboard-response","90","260338","0.0-4.0-1.0-0.23","2","1","vv7enqzjt2yw20a","","null","","sounds/induction/right/fu_SWS.wav","","null","","","","","","","","","","","","","","","","","","","","","","","","","","","","","","","","","","","","","","","","","",""
"html-button-response","91","261434","0.0-4.0-1.0-1.23","2","1","vv7enqzjt2yw20a","","1093.8999999761581","","What sound did you hear?","0","","","1","INDUCTION-JUDGMENT","right","0","","","","","","","","","","","","","","","","","","","","","","","","","","","","","","","","","","","","",""
"html-keyboard-response","92","262438","0.0-4.0-1.0-2.23","2","1","vv7enqzjt2yw20a","","null","","<p style=""color:green;""><b>Correct!</b></p>","","null","","","","","","","","","","","","","","","","","","","","","","","","","","","","","","","","","","","","","","","","","",""
"audio-keyboard-response","93","263240","0.0-4.0-1.0-0.24","2","1","vv7enqzjt2yw20a","","null","","sounds/induction/right/ni_SWS.wav","","null","","","","","","","","","","","","","","","","","","","","","","","","","","","","","","","","","","","","","","","","","",""
"html-button-response","94","264578","0.0-4.0-1.0-1.24","2","1","vv7enqzjt2yw20a","","1336.800000011921","","What sound did you hear?","0","","","1","INDUCTION-JUDGMENT","right","0","","","","","","","","","","","","","","","","","","","","","","","","","","","","","","","","","","","","",""
"html-keyboard-response","95","265582","0.0-4.0-1.0-2.24","2","1","vv7enqzjt2yw20a","","null","","<p style=""color:green;""><b>Correct!</b></p>","","null","","","","","","","","","","","","","","","","","","","","","","","","","","","","","","","","","","","","","","","","","",""
"audio-keyboard-response","96","266386","0.0-4.0-1.0-0.25","2","1","vv7enqzjt2yw20a","","null","","sounds/induction/left/ti_SWS.wav","","null","","","","","","","","","","","","","","","","","","","","","","","","","","","","","","","","","","","","","","","","","",""
"html-button-response","97","267794","0.0-4.0-1.0-1.25","2","1","vv7enqzjt2yw20a","","1405.699999988079","","What sound did you hear?","0","","","1","INDUCTION-JUDGMENT","left","0","","","","","","","","","","","","","","","","","","","","","","","","","","","","","","","","","","","","",""
"html-keyboard-response","98","268800","0.0-4.0-1.0-2.25","2","1","vv7enqzjt2yw20a","","null","","<p style=""color:green;""><b>Correct!</b></p>","","null","","","","","","","","","","","","","","","","","","","","","","","","","","","","","","","","","","","","","","","","","",""
"audio-keyboard-response","99","269607","0.0-4.0-1.0-0.26","2","1","vv7enqzjt2yw20a","","null","","sounds/induction/right/pu_SWS.wav","","null","","","","","","","","","","","","","","","","","","","","","","","","","","","","","","","","","","","","","","","","","",""
"html-button-response","100","272015","0.0-4.0-1.0-1.26","2","1","vv7enqzjt2yw20a","","2406.4000000059605","","What sound did you hear?","1","","","1","INDUCTION-JUDGMENT","right","1","","","","","","","","","","","","","","","","","","","","","","","","","","","","","","","","","","","","",""
"html-keyboard-response","101","273020","0.0-4.0-1.0-2.26","2","1","vv7enqzjt2yw20a","","null","","<p style=""color:green;""><b>Correct!</b></p>","","null","","","","","","","","","","","","","","","","","","","","","","","","","","","","","","","","","","","","","","","","","",""
"audio-keyboard-response","102","273826","0.0-4.0-1.0-0.27","2","1","vv7enqzjt2yw20a","","null","","sounds/induction/left/pu_SWS.wav","","null","","","","","","","","","","","","","","","","","","","","","","","","","","","","","","","","","","","","","","","","","",""
"html-button-response","103","275570","0.0-4.0-1.0-1.27","2","1","vv7enqzjt2yw20a","","1741.699999988079","","What sound did you hear?","0","","","1","INDUCTION-JUDGMENT","left","0","","","","","","","","","","","","","","","","","","","","","","","","","","","","","","","","","","","","",""
"html-keyboard-response","104","276576","0.0-4.0-1.0-2.27","2","1","vv7enqzjt2yw20a","","null","","<p style=""color:green;""><b>Correct!</b></p>","","null","","","","","","","","","","","","","","","","","","","","","","","","","","","","","","","","","","","","","","","","","",""
"audio-keyboard-response","105","277383","0.0-4.0-1.0-0.28","2","1","vv7enqzjt2yw20a","","null","","sounds/induction/left/ge_SWS.wav","","null","","","","","","","","","","","","","","","","","","","","","","","","","","","","","","","","","","","","","","","","","",""
"html-button-response","106","279695","0.0-4.0-1.0-1.28","2","1","vv7enqzjt2yw20a","","2310.7999999821186","","What sound did you hear?","0","","","0","INDUCTION-JUDGMENT","left","1","","","","","","","","","","","","","","","","","","","","","","","","","","","","","","","","","","","","",""
"html-keyboard-response","107","280698","0.0-4.0-1.0-2.28","2","1","vv7enqzjt2yw20a","","null","","<p style=""color:red;""><b>Incorrect!</b></p>","","null","","","","","","","","","","","","","","","","","","","","","","","","","","","","","","","","","","","","","","","","","",""
"audio-keyboard-response","108","281506","0.0-4.0-1.0-0.29","2","1","vv7enqzjt2yw20a","","null","","sounds/induction/left/me_SWS.wav","","null","","","","","","","","","","","","","","","","","","","","","","","","","","","","","","","","","","","","","","","","","",""
"html-button-response","109","283000","0.0-4.0-1.0-1.29","2","1","vv7enqzjt2yw20a","","1493.1000000238419","","What sound did you hear?","1","","","1","INDUCTION-JUDGMENT","left","1","","","","","","","","","","","","","","","","","","","","","","","","","","","","","","","","","","","","",""
"html-keyboard-response","110","284004","0.0-4.0-1.0-2.29","2","1","vv7enqzjt2yw20a","","null","","<p style=""color:green;""><b>Correct!</b></p>","","null","","","","","","","","","","","","","","","","","","","","","","","","","","","","","","","","","","","","","","","","","",""
"audio-keyboard-response","111","284807","0.0-4.0-1.0-0.30","2","1","vv7enqzjt2yw20a","","null","","sounds/induction/right/fe_SWS.wav","","null","","","","","","","","","","","","","","","","","","","","","","","","","","","","","","","","","","","","","","","","","",""
"html-button-response","112","285752","0.0-4.0-1.0-1.30","2","1","vv7enqzjt2yw20a","","943.9000000059605","","What sound did you hear?","0","","","1","INDUCTION-JUDGMENT","right","0","","","","","","","","","","","","","","","","","","","","","","","","","","","","","","","","","","","","",""
"html-keyboard-response","113","286757","0.0-4.0-1.0-2.30","2","1","vv7enqzjt2yw20a","","null","","<p style=""color:green;""><b>Correct!</b></p>","","null","","","","","","","","","","","","","","","","","","","","","","","","","","","","","","","","","","","","","","","","","",""
"audio-keyboard-response","114","287559","0.0-4.0-1.0-0.31","2","1","vv7enqzjt2yw20a","","null","","sounds/induction/right/pu_SWS.wav","","null","","","","","","","","","","","","","","","","","","","","","","","","","","","","","","","","","","","","","","","","","",""
"html-button-response","115","288705","0.0-4.0-1.0-1.31","2","1","vv7enqzjt2yw20a","","1144.3999999761581","","What sound did you hear?","1","","","1","INDUCTION-JUDGMENT","right","1","","","","","","","","","","","","","","","","","","","","","","","","","","","","","","","","","","","","",""
"html-keyboard-response","116","289712","0.0-4.0-1.0-2.31","2","1","vv7enqzjt2yw20a","","null","","<p style=""color:green;""><b>Correct!</b></p>","","null","","","","","","","","","","","","","","","","","","","","","","","","","","","","","","","","","","","","","","","","","",""
"audio-keyboard-response","117","290519","0.0-4.0-1.0-0.32","2","1","vv7enqzjt2yw20a","","null","","sounds/induction/right/re_SWS.wav","","null","","","","","","","","","","","","","","","","","","","","","","","","","","","","","","","","","","","","","","","","","",""
"html-button-response","118","291306","0.0-4.0-1.0-1.32","2","1","vv7enqzjt2yw20a","","785.5","","What sound did you hear?","1","","","1","INDUCTION-JUDGMENT","right","1","","","","","","","","","","","","","","","","","","","","","","","","","","","","","","","","","","","","",""
"html-keyboard-response","119","292309","0.0-4.0-1.0-2.32","2","1","vv7enqzjt2yw20a","","null","","<p style=""color:green;""><b>Correct!</b></p>","","null","","","","","","","","","","","","","","","","","","","","","","","","","","","","","","","","","","","","","","","","","",""
"audio-keyboard-response","120","293116","0.0-4.0-1.0-0.33","2","1","vv7enqzjt2yw20a","","null","","sounds/induction/left/pu_SWS.wav","","null","","","","","","","","","","","","","","","","","","","","","","","","","","","","","","","","","","","","","","","","","",""
"html-button-response","121","294897","0.0-4.0-1.0-1.33","2","1","vv7enqzjt2yw20a","","1779.300000011921","","What sound did you hear?","0","","","1","INDUCTION-JUDGMENT","left","0","","","","","","","","","","","","","","","","","","","","","","","","","","","","","","","","","","","","",""
"html-keyboard-response","122","295903","0.0-4.0-1.0-2.33","2","1","vv7enqzjt2yw20a","","null","","<p style=""color:green;""><b>Correct!</b></p>","","null","","","","","","","","","","","","","","","","","","","","","","","","","","","","","","","","","","","","","","","","","",""
"audio-keyboard-response","123","296710","0.0-4.0-1.0-0.34","2","1","vv7enqzjt2yw20a","","null","","sounds/induction/right/ru_SWS.wav","","null","","","","","","","","","","","","","","","","","","","","","","","","","","","","","","","","","","","","","","","","","",""
"html-button-response","124","297578","0.0-4.0-1.0-1.34","2","1","vv7enqzjt2yw20a","","865.6999999880791","","What sound did you hear?","1","","","1","INDUCTION-JUDGMENT","right","1","","","","","","","","","","","","","","","","","","","","","","","","","","","","","","","","","","","","",""
"html-keyboard-response","125","298581","0.0-4.0-1.0-2.34","2","1","vv7enqzjt2yw20a","","null","","<p style=""color:green;""><b>Correct!</b></p>","","null","","","","","","","","","","","","","","","","","","","","","","","","","","","","","","","","","","","","","","","","","",""
"audio-keyboard-response","126","299382","0.0-4.0-1.0-0.35","2","1","vv7enqzjt2yw20a","","null","","sounds/induction/right/ge_SWS.wav","","null","","","","","","","","","","","","","","","","","","","","","","","","","","","","","","","","","","","","","","","","","",""
"html-button-response","127","300226","0.0-4.0-1.0-1.35","2","1","vv7enqzjt2yw20a","","841.4000000059605","","What sound did you hear?","0","","","1","INDUCTION-JUDGMENT","right","0","","","","","","","","","","","","","","","","","","","","","","","","","","","","","","","","","","","","",""
"html-keyboard-response","128","301231","0.0-4.0-1.0-2.35","2","1","vv7enqzjt2yw20a","","null","","<p style=""color:green;""><b>Correct!</b></p>","","null","","","","","","","","","","","","","","","","","","","","","","","","","","","","","","","","","","","","","","","","","",""
"audio-keyboard-response","129","302038","0.0-4.0-1.0-0.36","2","1","vv7enqzjt2yw20a","","null","","sounds/induction/left/ru_SWS.wav","","null","","","","","","","","","","","","","","","","","","","","","","","","","","","","","","","","","","","","","","","","","",""
"html-button-response","130","302937","0.0-4.0-1.0-1.36","2","1","vv7enqzjt2yw20a","","896.5999999940395","","What sound did you hear?","0","","","1","INDUCTION-JUDGMENT","left","0","","","","","","","","","","","","","","","","","","","","","","","","","","","","","","","","","","","","",""
"html-keyboard-response","131","303941","0.0-4.0-1.0-2.36","2","1","vv7enqzjt2yw20a","","null","","<p style=""color:green;""><b>Correct!</b></p>","","null","","","","","","","","","","","","","","","","","","","","","","","","","","","","","","","","","","","","","","","","","",""
"audio-keyboard-response","132","304747","0.0-4.0-1.0-0.37","2","1","vv7enqzjt2yw20a","","null","","sounds/induction/left/ta_SWS.wav","","null","","","","","","","","","","","","","","","","","","","","","","","","","","","","","","","","","","","","","","","","","",""
"html-button-response","133","306209","0.0-4.0-1.0-1.37","2","1","vv7enqzjt2yw20a","","1460.4000000059605","","What sound did you hear?","0","","","1","INDUCTION-JUDGMENT","left","0","","","","","","","","","","","","","","","","","","","","","","","","","","","","","","","","","","","","",""
"html-keyboard-response","134","307215","0.0-4.0-1.0-2.37","2","1","vv7enqzjt2yw20a","","null","","<p style=""color:green;""><b>Correct!</b></p>","","null","","","","","","","","","","","","","","","","","","","","","","","","","","","","","","","","","","","","","","","","","",""
"audio-keyboard-response","135","308022","0.0-4.0-1.0-0.38","2","1","vv7enqzjt2yw20a","","null","","sounds/induction/right/ti_SWS.wav","","null","","","","","","","","","","","","","","","","","","","","","","","","","","","","","","","","","","","","","","","","","",""
"html-button-response","136","309186","0.0-4.0-1.0-1.38","2","1","vv7enqzjt2yw20a","","1161.5","","What sound did you hear?","1","","","1","INDUCTION-JUDGMENT","right","1","","","","","","","","","","","","","","","","","","","","","","","","","","","","","","","","","","","","",""
"html-keyboard-response","137","310191","0.0-4.0-1.0-2.38","2","1","vv7enqzjt2yw20a","","null","","<p style=""color:green;""><b>Correct!</b></p>","","null","","","","","","","","","","","","","","","","","","","","","","","","","","","","","","","","","","","","","","","","","",""
"audio-keyboard-response","138","310998","0.0-4.0-1.0-0.39","2","1","vv7enqzjt2yw20a","","null","","sounds/induction/right/ta_SWS.wav","","null","","","","","","","","","","","","","","","","","","","","","","","","","","","","","","","","","","","","","","","","","",""
"html-button-response","139","312009","0.0-4.0-1.0-1.39","2","1","vv7enqzjt2yw20a","","1009","","What sound did you hear?","1","","","1","INDUCTION-JUDGMENT","right","1","","","","","","","","","","","","","","","","","","","","","","","","","","","","","","","","","","","","",""
"html-keyboard-response","140","313011","0.0-4.0-1.0-2.39","2","1","vv7enqzjt2yw20a","","null","","<p style=""color:green;""><b>Correct!</b></p>","","null","","","","","","","","","","","","","","","","","","","","","","","","","","","","","","","","","","","","","","","","","",""
"audio-keyboard-response","141","313814","0.0-4.0-1.0-0.40","2","1","vv7enqzjt2yw20a","","null","","sounds/induction/left/ge_SWS.wav","","null","","","","","","","","","","","","","","","","","","","","","","","","","","","","","","","","","","","","","","","","","",""
"html-button-response","142","316151","0.0-4.0-1.0-1.40","2","1","vv7enqzjt2yw20a","","2337.0999999940395","","What sound did you hear?","1","","","1","INDUCTION-JUDGMENT","left","1","","","","","","","","","","","","","","","","","","","","","","","","","","","","","","","","","","","","",""
"html-keyboard-response","143","317156","0.0-4.0-1.0-2.40","2","1","vv7enqzjt2yw20a","","null","","<p style=""color:green;""><b>Correct!</b></p>","","null","","","","","","","","","","","","","","","","","","","","","","","","","","","","","","","","","","","","","","","","","",""
"audio-keyboard-response","144","317963","0.0-4.0-1.0-0.41","2","1","vv7enqzjt2yw20a","","null","","sounds/induction/right/ko_SWS.wav","","null","","","","","","","","","","","","","","","","","","","","","","","","","","","","","","","","","","","","","","","","","",""
"html-button-response","145","319633","0.0-4.0-1.0-1.41","2","1","vv7enqzjt2yw20a","","1668.4000000059605","","What sound did you hear?","0","","","1","INDUCTION-JUDGMENT","right","0","","","","","","","","","","","","","","","","","","","","","","","","","","","","","","","","","","","","",""
"html-keyboard-response","146","320638","0.0-4.0-1.0-2.41","2","1","vv7enqzjt2yw20a","","null","","<p style=""color:green;""><b>Correct!</b></p>","","null","","","","","","","","","","","","","","","","","","","","","","","","","","","","","","","","","","","","","","","","","",""
"audio-keyboard-response","147","321440","0.0-4.0-1.0-0.42","2","1","vv7enqzjt2yw20a","","null","","sounds/induction/left/me_SWS.wav","","null","","","","","","","","","","","","","","","","","","","","","","","","","","","","","","","","","","","","","","","","","",""
"html-button-response","148","322728","0.0-4.0-1.0-1.42","2","1","vv7enqzjt2yw20a","","1287","","What sound did you hear?","1","","","1","INDUCTION-JUDGMENT","left","1","","","","","","","","","","","","","","","","","","","","","","","","","","","","","","","","","","","","",""
"html-keyboard-response","149","323731","0.0-4.0-1.0-2.42","2","1","vv7enqzjt2yw20a","","null","","<p style=""color:green;""><b>Correct!</b></p>","","null","","","","","","","","","","","","","","","","","","","","","","","","","","","","","","","","","","","","","","","","","",""
"audio-keyboard-response","150","324539","0.0-4.0-1.0-0.43","2","1","vv7enqzjt2yw20a","","null","","sounds/induction/left/ko_SWS.wav","","null","","","","","","","","","","","","","","","","","","","","","","","","","","","","","","","","","","","","","","","","","",""
"html-button-response","151","325816","0.0-4.0-1.0-1.43","2","1","vv7enqzjt2yw20a","","1276.800000011921","","What sound did you hear?","1","","","1","INDUCTION-JUDGMENT","left","1","","","","","","","","","","","","","","","","","","","","","","","","","","","","","","","","","","","","",""
"html-keyboard-response","152","326822","0.0-4.0-1.0-2.43","2","1","vv7enqzjt2yw20a","","null","","<p style=""color:green;""><b>Correct!</b></p>","","null","","","","","","","","","","","","","","","","","","","","","","","","","","","","","","","","","","","","","","","","","",""
"audio-keyboard-response","153","327626","0.0-4.0-1.0-0.44","2","1","vv7enqzjt2yw20a","","null","","sounds/induction/right/me_SWS.wav","","null","","","","","","","","","","","","","","","","","","","","","","","","","","","","","","","","","","","","","","","","","",""
"html-button-response","154","328512","0.0-4.0-1.0-1.44","2","1","vv7enqzjt2yw20a","","884.5","","What sound did you hear?","0","","","1","INDUCTION-JUDGMENT","right","0","","","","","","","","","","","","","","","","","","","","","","","","","","","","","","","","","","","","",""
"html-keyboard-response","155","329518","0.0-4.0-1.0-2.44","2","1","vv7enqzjt2yw20a","","null","","<p style=""color:green;""><b>Correct!</b></p>","","null","","","","","","","","","","","","","","","","","","","","","","","","","","","","","","","","","","","","","","","","","",""
"audio-keyboard-response","156","330325","0.0-4.0-1.0-0.45","2","1","vv7enqzjt2yw20a","","null","","sounds/induction/left/ti_SWS.wav","","null","","","","","","","","","","","","","","","","","","","","","","","","","","","","","","","","","","","","","","","","","",""
"html-button-response","157","331344","0.0-4.0-1.0-1.45","2","1","vv7enqzjt2yw20a","","1018.2000000178814","","What sound did you hear?","0","","","1","INDUCTION-JUDGMENT","left","0","","","","","","","","","","","","","","","","","","","","","","","","","","","","","","","","","","","","",""
"html-keyboard-response","158","332348","0.0-4.0-1.0-2.45","2","1","vv7enqzjt2yw20a","","null","","<p style=""color:green;""><b>Correct!</b></p>","","null","","","","","","","","","","","","","","","","","","","","","","","","","","","","","","","","","","","","","","","","","",""
"audio-keyboard-response","159","333152","0.0-4.0-1.0-0.46","2","1","vv7enqzjt2yw20a","","null","","sounds/induction/right/fu_SWS.wav","","null","","","","","","","","","","","","","","","","","","","","","","","","","","","","","","","","","","","","","","","","","",""
"html-button-response","160","334432","0.0-4.0-1.0-1.46","2","1","vv7enqzjt2yw20a","","1280","","What sound did you hear?","0","","","1","INDUCTION-JUDGMENT","right","0","","","","","","","","","","","","","","","","","","","","","","","","","","","","","","","","","","","","",""
"html-keyboard-response","161","335437","0.0-4.0-1.0-2.46","2","1","vv7enqzjt2yw20a","","null","","<p style=""color:green;""><b>Correct!</b></p>","","null","","","","","","","","","","","","","","","","","","","","","","","","","","","","","","","","","","","","","","","","","",""
"audio-keyboard-response","162","336240","0.0-4.0-1.0-0.47","2","1","vv7enqzjt2yw20a","","null","","sounds/induction/right/su_SWS.wav","","null","","","","","","","","","","","","","","","","","","","","","","","","","","","","","","","","","","","","","","","","","",""
"html-button-response","163","337736","0.0-4.0-1.0-1.47","2","1","vv7enqzjt2yw20a","","1495.800000011921","","What sound did you hear?","0","","","0","INDUCTION-JUDGMENT","right","1","","","","","","","","","","","","","","","","","","","","","","","","","","","","","","","","","","","","",""
"html-keyboard-response","164","338738","0.0-4.0-1.0-2.47","2","1","vv7enqzjt2yw20a","","null","","<p style=""color:red;""><b>Incorrect!</b></p>","","null","","","","","","","","","","","","","","","","","","","","","","","","","","","","","","","","","","","","","","","","","",""
"html-button-response","165","353033","0.0-5.0-0.0","2","1","vv7enqzjt2yw20a","","13788.09999999404","","<p>Thank you for your answers.</p><p>You will now listen to similar sounds. The main difference is that the sounds will be longer and will make up complete sentences.</p><p>Please listen carefully to each sentence. After each sentence, you will be asked to type back what you heard to the best of your ability. After you provide your response, you will be given feedback about the correct answer.</p><p>There are 10 sentences in total.","0","","","","","","","","","","","","","","","","","","","","","","","","","","","","","","","","","","","","","","","","","","",""
"audio-keyboard-response","166","356052","0.0-5.0-1.0-0.0","2","1","vv7enqzjt2yw20a","","null","","sounds/sentences/right/14_10_cfSWS.wav","","null","","","","","","","","","","","","","","","","","","","","","","","","","","","","","","","","","","","","","","","","","",""
"sentence-resp","167","387026","0.0-5.0-1.0-1.0","2","1","vv7enqzjt2yw20a","","30970","","","","","","","SWS-SENT-RESPONSE","","","{""Q0"":""tiefeefoo""}","Port is a strong wine with a smoky taste.","port,strong,wine,smoky,taste","TIEFEEFOO","0","0","0","0","0","0","0","","","","","","","","","","","","","","","","","","","","","","","","","",""
"html-keyboard-response","168","388287","0.0-5.0-1.0-2.0","2","1","vv7enqzjt2yw20a","","null","","","","null","","","","","","","","","","","","","","","","","","","","","","","","","","","","","","","","","","","","","","","","","",""
"audio-keyboard-response","169","391052","0.0-5.0-1.0-3.0","2","1","vv7enqzjt2yw20a","","null","","sounds/sentences/right/14_10_cfSWS.wav","","null","","","","","","","","","","","","","","","","","","","","","","","","","","","","","","","","","","","","","","","","","",""
"html-keyboard-response","170","392054","0.0-5.0-1.0-4.0","2","1","vv7enqzjt2yw20a","","null","","","","null","","","","","","","","","","","","","","","","","","","","","","","","","","","","","","","","","","","","","","","","","",""
"html-button-response","171","401814","0.0-5.0-1.0-5.0","2","1","vv7enqzjt2yw20a","","9257.40000000596","","<p>Press the button below when you are ready to continue.</p>","0","","","","","","","","","","","","","","","","","","","","","","","","","","","","","","","","","","","","","","","","","","",""
"audio-keyboard-response","172","404374","0.0-5.0-1.0-0.1","2","1","vv7enqzjt2yw20a","","null","","sounds/sentences/left/14_04_cfSWS.wav","","null","","","","","","","","","","","","","","","","","","","","","","","","","","","","","","","","","","","","","","","","","",""
"sentence-resp","173","415837","0.0-5.0-1.0-1.1","2","1","vv7enqzjt2yw20a","","11459","","","","","","","SWS-SENT-RESPONSE","","","{""Q0"":""do u want to go to the mall""}","Two plus seven is less than ten.","two,plus,seven,less,ten","DO U WANT TO GO TO THE MALL","0","0","0","0","0","0","0","","","","","","","","","","","","","","","","","","","","","","","","","",""
"html-keyboard-response","174","417099","0.0-5.0-1.0-2.1","2","1","vv7enqzjt2yw20a","","null","","","","null","","","","","","","","","","","","","","","","","","","","","","","","","","","","","","","","","","","","","","","","","",""
"audio-keyboard-response","175","419152","0.0-5.0-1.0-3.1","2","1","vv7enqzjt2yw20a","","null","","sounds/sentences/left/14_04_cfSWS.wav","","null","","","","","","","","","","","","","","","","","","","","","","","","","","","","","","","","","","","","","","","","","",""
"html-keyboard-response","176","420155","0.0-5.0-1.0-4.1","2","1","vv7enqzjt2yw20a","","null","","","","null","","","","","","","","","","","","","","","","","","","","","","","","","","","","","","","","","","","","","","","","","",""
"html-button-response","177","422456","0.0-5.0-1.0-5.1","2","1","vv7enqzjt2yw20a","","1798.5999999940395","","<p>Press the button below when you are ready to continue.</p>","0","","","","","","","","","","","","","","","","","","","","","","","","","","","","","","","","","","","","","","","","","","",""
"audio-keyboard-response","178","425045","0.0-5.0-1.0-0.2","2","1","vv7enqzjt2yw20a","","null","","sounds/sentences/left/14_03_cfSWS.wav","","null","","","","","","","","","","","","","","","","","","","","","","","","","","","","","","","","","","","","","","","","","",""
"sentence-resp","179","446470","0.0-5.0-1.0-1.2","2","1","vv7enqzjt2yw20a","","21423","","","","","","","SWS-SENT-RESPONSE","","","{""Q0"":""something something leafs""}","Pluck the bright rose without leaves.","pluck,bright,rose,without,leaves","SOMETHING SOMETHING LEAFS","0","0","0","0","0","0","0","","","","","","","","","","","","","","","","","","","","","","","","","",""
"html-keyboard-response","180","447732","0.0-5.0-1.0-2.2","2","1","vv7enqzjt2yw20a","","null","","","","null","","","","","","","","","","","","","","","","","","","","","","","","","","","","","","","","","","","","","","","","","",""
"audio-keyboard-response","181","449818","0.0-5.0-1.0-3.2","2","1","vv7enqzjt2yw20a","","null","","sounds/sentences/left/14_03_cfSWS.wav","","null","","","","","","","","","","","","","","","","","","","","","","","","","","","","","","","","","","","","","","","","","",""
"html-keyboard-response","182","450822","0.0-5.0-1.0-4.2","2","1","vv7enqzjt2yw20a","","null","","","","null","","","","","","","","","","","","","","","","","","","","","","","","","","","","","","","","","","","","","","","","","",""
"html-button-response","183","461502","0.0-5.0-1.0-5.2","2","1","vv7enqzjt2yw20a","","10175.59999999404","","<p>Press the button below when you are ready to continue.</p>","0","","","","","","","","","","","","","","","","","","","","","","","","","","","","","","","","","","","","","","","","","","",""
"audio-keyboard-response","184","464622","0.0-5.0-1.0-0.3","2","1","vv7enqzjt2yw20a","","null","","sounds/sentences/left/14_01_cfSWS.wav","","null","","","","","","","","","","","","","","","","","","","","","","","","","","","","","","","","","","","","","","","","","",""
"sentence-resp","185","478177","0.0-5.0-1.0-1.3","2","1","vv7enqzjt2yw20a","","13552","","","","","","","SWS-SENT-RESPONSE","","","{""Q0"":""we only have a small time""}","A cramp is no small danger on a swim.","cramp,no,small,danger,swim","WE ONLY HAVE A SMALL TIME","0","0","1","0","0","1","0.2","","","","","","","","","","","","","","","","","","","","","","","","","",""
"html-keyboard-response","186","479439","0.0-5.0-1.0-2.3","2","1","vv7enqzjt2yw20a","","null","","","","null","","","","","","","","","","","","","","","","","","","","","","","","","","","","","","","","","","","","","","","","","",""
"audio-keyboard-response","187","482057","0.0-5.0-1.0-3.3","2","1","vv7enqzjt2yw20a","","null","","sounds/sentences/left/14_01_cfSWS.wav","","null","","","","","","","","","","","","","","","","","","","","","","","","","","","","","","","","","","","","","","","","","",""
"html-keyboard-response","188","483059","0.0-5.0-1.0-4.3","2","1","vv7enqzjt2yw20a","","null","","","","null","","","","","","","","","","","","","","","","","","","","","","","","","","","","","","","","","","","","","","","","","",""
"html-button-response","189","484890","0.0-5.0-1.0-5.3","2","1","vv7enqzjt2yw20a","","1329.2000000178814","","<p>Press the button below when you are ready to continue.</p>","0","","","","","","","","","","","","","","","","","","","","","","","","","","","","","","","","","","","","","","","","","","",""
"audio-keyboard-response","190","487715","0.0-5.0-1.0-0.4","2","1","vv7enqzjt2yw20a","","null","","sounds/sentences/left/14_02_cfSWS.wav","","null","","","","","","","","","","","","","","","","","","","","","","","","","","","","","","","","","","","","","","","","","",""
"sentence-resp","191","498741","0.0-5.0-1.0-1.4","2","1","vv7enqzjt2yw20a","","11023","","","","","","","SWS-SENT-RESPONSE","","","{""Q0"":""he said the same phrase 30 times""}","He said the same phrase thirty times.","said,same,phrase,thirty,times","HE SAID THE SAME PHRASE 30 TIMES","1","1","1","0","1","4","0.8","","","","","","","","","","","","","","","","","","","","","","","","","",""
"html-keyboard-response","192","500002","0.0-5.0-1.0-2.4","2","1","vv7enqzjt2yw20a","","null","","","","null","","","","","","","","","","","","","","","","","","","","","","","","","","","","","","","","","","","","","","","","","",""
"audio-keyboard-response","193","502323","0.0-5.0-1.0-3.4","2","1","vv7enqzjt2yw20a","","null","","sounds/sentences/left/14_02_cfSWS.wav","","null","","","","","","","","","","","","","","","","","","","","","","","","","","","","","","","","","","","","","","","","","",""
"html-keyboard-response","194","503330","0.0-5.0-1.0-4.4","2","1","vv7enqzjt2yw20a","","null","","","","null","","","","","","","","","","","","","","","","","","","","","","","","","","","","","","","","","","","","","","","","","",""
"html-button-response","195","504735","0.0-5.0-1.0-5.4","2","1","vv7enqzjt2yw20a","","899.4000000059605","","<p>Press the button below when you are ready to continue.</p>","0","","","","","","","","","","","","","","","","","","","","","","","","","","","","","","","","","","","","","","","","","","",""
"audio-keyboard-response","196","507629","0.0-5.0-1.0-0.5","2","1","vv7enqzjt2yw20a","","null","","sounds/sentences/right/14_07_cfSWS.wav","","null","","","","","","","","","","","","","","","","","","","","","","","","","","","","","","","","","","","","","","","","","",""
"sentence-resp","197","516075","0.0-5.0-1.0-1.5","2","1","vv7enqzjt2yw20a","","8444","","","","","","","SWS-SENT-RESPONSE","","","{""Q0"":""friends insurance""}","Write a fond note to the friend you cherish.","write,fond,note,friend,cherish","FRIENDS INSURANCE","0","0","0","0","0","0","0","","","","","","","","","","","","","","","","","","","","","","","","","",""
"html-keyboard-response","198","517335","0.0-5.0-1.0-2.5","2","1","vv7enqzjt2yw20a","","null","","","","null","","","","","","","","","","","","","","","","","","","","","","","","","","","","","","","","","","","","","","","","","",""
"audio-keyboard-response","199","519724","0.0-5.0-1.0-3.5","2","1","vv7enqzjt2yw20a","","null","","sounds/sentences/right/14_07_cfSWS.wav","","null","","","","","","","","","","","","","","","","","","","","","","","","","","","","","","","","","","","","","","","","","",""
"html-keyboard-response","200","520727","0.0-5.0-1.0-4.5","2","1","vv7enqzjt2yw20a","","null","","","","null","","","","","","","","","","","","","","","","","","","","","","","","","","","","","","","","","","","","","","","","","",""
"html-button-response","201","522003","0.0-5.0-1.0-5.5","2","1","vv7enqzjt2yw20a","","774","","<p>Press the button below when you are ready to continue.</p>","0","","","","","","","","","","","","","","","","","","","","","","","","","","","","","","","","","","","","","","","","","","",""
"audio-keyboard-response","202","524759","0.0-5.0-1.0-0.6","2","1","vv7enqzjt2yw20a","","null","","sounds/sentences/right/14_08_cfSWS.wav","","null","","","","","","","","","","","","","","","","","","","","","","","","","","","","","","","","","","","","","","","","","",""
"sentence-resp","203","548625","0.0-5.0-1.0-1.6","2","1","vv7enqzjt2yw20a","","23865","","","","","","","SWS-SENT-RESPONSE","","","{""Q0"":""im in a module to win""}","Clothes and lodging are free to new men.","clothes,lodging,free,new,men","IM IN A MODULE TO WIN","0","0","0","0","0","0","0","","","","","","","","","","","","","","","","","","","","","","","","","",""
"html-keyboard-response","204","549888","0.0-5.0-1.0-2.6","2","1","vv7enqzjt2yw20a","","null","","","","null","","","","","","","","","","","","","","","","","","","","","","","","","","","","","","","","","","","","","","","","","",""
"audio-keyboard-response","205","552145","0.0-5.0-1.0-3.6","2","1","vv7enqzjt2yw20a","","null","","sounds/sentences/right/14_08_cfSWS.wav","","null","","","","","","","","","","","","","","","","","","","","","","","","","","","","","","","","","","","","","","","","","",""
"html-keyboard-response","206","553151","0.0-5.0-1.0-4.6","2","1","vv7enqzjt2yw20a","","null","","","","null","","","","","","","","","","","","","","","","","","","","","","","","","","","","","","","","","","","","","","","","","",""
"html-button-response","207","554834","0.0-5.0-1.0-5.6","2","1","vv7enqzjt2yw20a","","1180.800000011921","","<p>Press the button below when you are ready to continue.</p>","0","","","","","","","","","","","","","","","","","","","","","","","","","","","","","","","","","","","","","","","","","","",""
"audio-keyboard-response","208","557568","0.0-5.0-1.0-0.7","2","1","vv7enqzjt2yw20a","","null","","sounds/sentences/right/14_09_cfSWS.wav","","null","","","","","","","","","","","","","","","","","","","","","","","","","","","","","","","","","","","","","","","","","",""
"sentence-resp","209","567575","0.0-5.0-1.0-1.7","2","1","vv7enqzjt2yw20a","","10002","","","","","","","SWS-SENT-RESPONSE","","","{""Q0"":""something captures""}","We frown when events take a bad turn.","frown,events,take,bad,turn","SOMETHING CAPTURES","0","0","0","0","0","0","0","","","","","","","","","","","","","","","","","","","","","","","","","",""
"html-keyboard-response","210","568836","0.0-5.0-1.0-2.7","2","1","vv7enqzjt2yw20a","","null","","","","null","","","","","","","","","","","","","","","","","","","","","","","","","","","","","","","","","","","","","","","","","",""
"audio-keyboard-response","211","571066","0.0-5.0-1.0-3.7","2","1","vv7enqzjt2yw20a","","null","","sounds/sentences/right/14_09_cfSWS.wav","","null","","","","","","","","","","","","","","","","","","","","","","","","","","","","","","","","","","","","","","","","","",""
"html-keyboard-response","212","572071","0.0-5.0-1.0-4.7","2","1","vv7enqzjt2yw20a","","null","","","","null","","","","","","","","","","","","","","","","","","","","","","","","","","","","","","","","","","","","","","","","","",""
"html-button-response","213","574176","0.0-5.0-1.0-5.7","2","1","vv7enqzjt2yw20a","","1599.7999999821186","","<p>Press the button below when you are ready to continue.</p>","0","","","","","","","","","","","","","","","","","","","","","","","","","","","","","","","","","","","","","","","","","","",""
"audio-keyboard-response","214","576922","0.0-5.0-1.0-0.8","2","1","vv7enqzjt2yw20a","","null","","sounds/sentences/right/14_06_cfSWS.wav","","null","","","","","","","","","","","","","","","","","","","","","","","","","","","","","","","","","","","","","","","","","",""
"sentence-resp","215","587591","0.0-5.0-1.0-1.8","2","1","vv7enqzjt2yw20a","","10667","","","","","","","SWS-SENT-RESPONSE","","","{""Q0"":""three year problem to the wise cheif""}","Bring your problems to the wise chief.","bring,your,problems,wise,chief","THREE YEAR PROBLEM TO THE WISE CHEIF","0","0","0","1","0","1","0.2","","","","","","","","","","","","","","","","","","","","","","","","","",""
"html-keyboard-response","216","588850","0.0-5.0-1.0-2.8","2","1","vv7enqzjt2yw20a","","null","","","","null","","","","","","","","","","","","","","","","","","","","","","","","","","","","","","","","","","","","","","","","","",""
"audio-keyboard-response","217","591092","0.0-5.0-1.0-3.8","2","1","vv7enqzjt2yw20a","","null","","sounds/sentences/right/14_06_cfSWS.wav","","null","","","","","","","","","","","","","","","","","","","","","","","","","","","","","","","","","","","","","","","","","",""
"html-keyboard-response","218","592094","0.0-5.0-1.0-4.8","2","1","vv7enqzjt2yw20a","","null","","","","null","","","","","","","","","","","","","","","","","","","","","","","","","","","","","","","","","","","","","","","","","",""
"html-button-response","219","593418","0.0-5.0-1.0-5.8","2","1","vv7enqzjt2yw20a","","816.4000000059605","","<p>Press the button below when you are ready to continue.</p>","0","","","","","","","","","","","","","","","","","","","","","","","","","","","","","","","","","","","","","","","","","","",""
"audio-keyboard-response","220","596409","0.0-5.0-1.0-0.9","2","1","vv7enqzjt2yw20a","","null","","sounds/sentences/left/14_05_cfSWS.wav","","null","","","","","","","","","","","","","","","","","","","","","","","","","","","","","","","","","","","","","","","","","",""
"sentence-resp","221","605447","0.0-5.0-1.0-1.9","2","1","vv7enqzjt2yw20a","","9033","","","","","","","SWS-SENT-RESPONSE","","","{""Q0"":""under the eyes of the sweet girl""}","The glow deepened in the eyes of the sweet girl.","glow,deepened,eyes,sweet,girl","UNDER THE EYES OF THE SWEET GIRL","0","0","1","1","1","3","0.6","","","","","","","","","","","","","","","","","","","","","","","","","",""
"html-keyboard-response","222","606707","0.0-5.0-1.0-2.9","2","1","vv7enqzjt2yw20a","","null","","","","null","","","","","","","","","","","","","","","","","","","","","","","","","","","","","","","","","","","","","","","","","",""
"audio-keyboard-response","223","609198","0.0-5.0-1.0-3.9","2","1","vv7enqzjt2yw20a","","null","","sounds/sentences/left/14_05_cfSWS.wav","","null","","","","","","","","","","","","","","","","","","","","","","","","","","","","","","","","","","","","","","","","","",""
"html-keyboard-response","224","610201","0.0-5.0-1.0-4.9","2","1","vv7enqzjt2yw20a","","null","","","","null","","","","","","","","","","","","","","","","","","","","","","","","","","","","","","","","","","","","","","","","","",""
"html-button-response","225","611531","0.0-5.0-1.0-5.9","2","1","vv7enqzjt2yw20a","","826.6999999880791","","<p>Press the button below when you are ready to continue.</p>","0","","","","","","","","","","","","","","","","","","","","","","","","","","","","","","","","","","","","","","","","","","",""
"html-keyboard-response","226","630124","0.0-6.0-0.0","2","1","vv7enqzjt2yw20a","","18087.899999976158","","<p>In this part of the study, you will hear sounds similar to those you just heard.</p><p>Please focus on these sounds, as you may be asked questions about them later.</p><p>Occasionally, the sounds will pause for up to two seconds. When this happens, please press SPACEBAR as quickly as you can.</br>This helps ensure that you are paying attention to the sounds.</p><p>This part of the study will take about 12 minutes to complete, and you will be given the opportunity to take a couple of short breaks every few minutes.</p><p><strong>Press SPACEBAR to begin</strong></p>","","32","","","","","","","","","","","","","","","","","","","","","","","","","","","","","","","","","","","","","","","","","",""
"html-keyboard-response","227","631128","0.0-6.0-1.0-0.0","2","1","vv7enqzjt2yw20a","","null","","<p style=""font-size: 40px;"">+</p>","","null","","","","","","","","","","","","","","","","","","","","","","","","","","","","","","","","","","","","","","","","","",""
"html-keyboard-response","228","816137","0.0-6.0-1.0-1.0","2","1","vv7enqzjt2yw20a","","null","","","","null","","","SL-TRAIN","","","","","","","","","","","","","","2","null","null","sounds/B/TRAIN/SEQ__04.mp3","1","","","","","","","","","","","","","","","","","","","","",""
"html-button-response","229","820900","0.0-6.0-1.0-2.0","2","1","vv7enqzjt2yw20a","","4760.699999988079","","<p>You may take a short break if you wish.</p>","0","","","","","","","","","","","","","","","","","","","","","","","","","","","","","","","","","","","","","","","","","","",""
"html-keyboard-response","230","821906","0.0-6.0-1.0-3.0","2","1","vv7enqzjt2yw20a","","null","","<p style=""font-size: 40px;"">+</p>","","null","","","","","","","","","","","","","","","","","","","","","","","","","","","","","","","","","","","","","","","","","",""
"html-keyboard-response","231","1006908","0.0-6.0-1.0-4.0","2","1","vv7enqzjt2yw20a","","null","","","","null","","","SL-TRAIN","","","","","","","","","","","","","","2","null","null","sounds/B/TRAIN/SEQ__02.mp3","0","","","","","","","","","","","","","","","","","","","","",""
"html-button-response","232","1009720","0.0-6.0-1.0-5.0","2","1","vv7enqzjt2yw20a","","2809","","<p>You may take a short break if you wish.</p>","0","","","","","","","","","","","","","","","","","","","","","","","","","","","","","","","","","","","","","","","","","","",""
"html-keyboard-response","233","1010726","0.0-6.0-1.0-6.0","2","1","vv7enqzjt2yw20a","","null","","<p style=""font-size: 40px;"">+</p>","","null","","","","","","","","","","","","","","","","","","","","","","","","","","","","","","","","","","","","","","","","","",""
"html-keyboard-response","234","1195733","0.0-6.0-1.0-7.0","2","1","vv7enqzjt2yw20a","","null","","","","null","","","SL-TRAIN","","","","","","","","","","","","","","2","null","null","sounds/B/TRAIN/SEQ__03.mp3","0","","","","","","","","","","","","","","","","","","","","",""
"html-button-response","235","1199999","0.0-6.0-1.0-8.0","2","1","vv7enqzjt2yw20a","","4262.300000011921","","<p>You may take a short break if you wish.</p>","0","","","","","","","","","","","","","","","","","","","","","","","","","","","","","","","","","","","","","","","","","","",""
"html-keyboard-response","236","1201001","0.0-6.0-1.0-9.0","2","1","vv7enqzjt2yw20a","","null","","<p style=""font-size: 40px;"">+</p>","","null","","","","","","","","","","","","","","","","","","","","","","","","","","","","","","","","","","","","","","","","","",""
"html-keyboard-response","237","1386004","0.0-6.0-1.0-10.0","2","1","vv7enqzjt2yw20a","","null","","","","null","","","SL-TRAIN","","","","","","","","","","","","","","1","null","1665.5999999940395","sounds/B/TRAIN/SEQ__05.mp3","0","","","","","","","","","","","","","","","","","","","","",""
"html-button-response","238","1396323","0.0-6.0-1.0-11.0","2","1","vv7enqzjt2yw20a","","10317.5","","<p>You may take a short break if you wish.</p>","0","","","","","","","","","","","","","","","","","","","","","","","","","","","","","","","","","","","","","","","","","","",""
"html-button-response","239","1404116","0.0-7.0-0.0","2","1","vv7enqzjt2yw20a","","7790.800000011921","","<p>Welcome to the second part of the study. This is a <u>familiarity task</u>.</p><p>You will now hear short sounds and will be asked to rate how familiar they sound to you <b>based on what you heard in the previous part of the study</b>.</p><p>You will rate 12 sounds in total.</p>","0","","","","","","","","","","","","","","","","","","","","","","","","","","","","","","","","","","","","","","","","","","",""
"html-keyboard-response","240","1405122","0.0-7.0-1.0-0.0","2","1","vv7enqzjt2yw20a","","null","","","","null","","","","","","","","","","","","","","","","","","","","","","","","","","","","","","","","","","","","","","","","","",""
"audio-keyboard-response","241","1406433","0.0-7.0-1.0-1.0","2","1","vv7enqzjt2yw20a","","null","","sounds/B/FAM/P003.mp3","","null","","","","","","","","","","","","","","","","","","","","","","","","","","","","","","","","","","","","","","","","","",""
"html-keyboard-response","242","1413542","0.0-7.0-1.0-2.0","2","1","vv7enqzjt2yw20a","","6603.700000017881","","<p>How familiar did this sound to you?</p><p>1&nbsp;&nbsp;&nbsp;&nbsp;&nbsp;&nbsp;&nbsp;&nbsp;&nbsp;&nbsp;&nbsp;&nbsp;&nbsp;&nbsp;&nbsp;&nbsp;&nbsp;&nbsp;&nbsp;2&nbsp;&nbsp;&nbsp;&nbsp;&nbsp;&nbsp;&nbsp;&nbsp;&nbsp;&nbsp;&nbsp;&nbsp;&nbsp;&nbsp;&nbsp;&nbsp;&nbsp;&nbsp;&nbsp;3&nbsp;&nbsp;&nbsp;&nbsp;&nbsp;&nbsp;&nbsp;&nbsp;&nbsp;&nbsp;&nbsp;&nbsp;&nbsp;&nbsp;&nbsp;&nbsp;&nbsp;&nbsp;&nbsp;4</p><p style=""font-size:14px"">Not at all familiar&nbsp;&nbsp;&nbsp;&nbsp;A little familiar&nbsp;&nbsp;&nbsp;Moderately familiar&nbsp;&nbsp;&nbsp;Extremely familiar</p><p>(press the corresponding number on your keyboard)</p>","","51","","","FAM-RESPONSE","","","","","","","","","","","","","","","","","","","sounds/B/FAM/P003.mp3","partword","","","","","","","","","","","","","","","","","","",""
"html-keyboard-response","243","1415548","0.0-7.0-1.0-0.1","2","1","vv7enqzjt2yw20a","","null","","","","null","","","","","","","","","","","","","","","","","","","","","","","","","","","","","","","","","","","","","","","","","",""
"audio-keyboard-response","244","1416491","0.0-7.0-1.0-1.1","2","1","vv7enqzjt2yw20a","","null","","sounds/B/FAM/W002.mp3","","null","","","","","","","","","","","","","","","","","","","","","","","","","","","","","","","","","","","","","","","","","",""
"html-keyboard-response","245","1418101","0.0-7.0-1.0-2.1","2","1","vv7enqzjt2yw20a","","1106.199999988079","","<p>How familiar did this sound to you?</p><p>1&nbsp;&nbsp;&nbsp;&nbsp;&nbsp;&nbsp;&nbsp;&nbsp;&nbsp;&nbsp;&nbsp;&nbsp;&nbsp;&nbsp;&nbsp;&nbsp;&nbsp;&nbsp;&nbsp;2&nbsp;&nbsp;&nbsp;&nbsp;&nbsp;&nbsp;&nbsp;&nbsp;&nbsp;&nbsp;&nbsp;&nbsp;&nbsp;&nbsp;&nbsp;&nbsp;&nbsp;&nbsp;&nbsp;3&nbsp;&nbsp;&nbsp;&nbsp;&nbsp;&nbsp;&nbsp;&nbsp;&nbsp;&nbsp;&nbsp;&nbsp;&nbsp;&nbsp;&nbsp;&nbsp;&nbsp;&nbsp;&nbsp;4</p><p style=""font-size:14px"">Not at all familiar&nbsp;&nbsp;&nbsp;&nbsp;A little familiar&nbsp;&nbsp;&nbsp;Moderately familiar&nbsp;&nbsp;&nbsp;Extremely familiar</p><p>(press the corresponding number on your keyboard)</p>","","52","","","FAM-RESPONSE","","","","","","","","","","","","","","","","","","","sounds/B/FAM/W002.mp3","word","","","","","","","","","","","","","","","","","","",""
"html-keyboard-response","246","1420108","0.0-7.0-1.0-0.2","2","1","vv7enqzjt2yw20a","","null","","","","null","","","","","","","","","","","","","","","","","","","","","","","","","","","","","","","","","","","","","","","","","",""
"audio-keyboard-response","247","1421051","0.0-7.0-1.0-1.2","2","1","vv7enqzjt2yw20a","","null","","sounds/B/FAM/N001.mp3","","null","","","","","","","","","","","","","","","","","","","","","","","","","","","","","","","","","","","","","","","","","",""
"html-keyboard-response","248","1422447","0.0-7.0-1.0-2.2","2","1","vv7enqzjt2yw20a","","892.4000000059605","","<p>How familiar did this sound to you?</p><p>1&nbsp;&nbsp;&nbsp;&nbsp;&nbsp;&nbsp;&nbsp;&nbsp;&nbsp;&nbsp;&nbsp;&nbsp;&nbsp;&nbsp;&nbsp;&nbsp;&nbsp;&nbsp;&nbsp;2&nbsp;&nbsp;&nbsp;&nbsp;&nbsp;&nbsp;&nbsp;&nbsp;&nbsp;&nbsp;&nbsp;&nbsp;&nbsp;&nbsp;&nbsp;&nbsp;&nbsp;&nbsp;&nbsp;3&nbsp;&nbsp;&nbsp;&nbsp;&nbsp;&nbsp;&nbsp;&nbsp;&nbsp;&nbsp;&nbsp;&nbsp;&nbsp;&nbsp;&nbsp;&nbsp;&nbsp;&nbsp;&nbsp;4</p><p style=""font-size:14px"">Not at all familiar&nbsp;&nbsp;&nbsp;&nbsp;A little familiar&nbsp;&nbsp;&nbsp;Moderately familiar&nbsp;&nbsp;&nbsp;Extremely familiar</p><p>(press the corresponding number on your keyboard)</p>","","49","","","FAM-RESPONSE","","","","","","","","","","","","","","","","","","","sounds/B/FAM/N001.mp3","nonword","","","","","","","","","","","","","","","","","","",""
"html-keyboard-response","249","1424454","0.0-7.0-1.0-0.3","2","1","vv7enqzjt2yw20a","","null","","","","null","","","","","","","","","","","","","","","","","","","","","","","","","","","","","","","","","","","","","","","","","",""
"audio-keyboard-response","250","1425397","0.0-7.0-1.0-1.3","2","1","vv7enqzjt2yw20a","","null","","sounds/B/FAM/W004.mp3","","null","","","","","","","","","","","","","","","","","","","","","","","","","","","","","","","","","","","","","","","","","",""
"html-keyboard-response","251","1427017","0.0-7.0-1.0-2.3","2","1","vv7enqzjt2yw20a","","1116.199999988079","","<p>How familiar did this sound to you?</p><p>1&nbsp;&nbsp;&nbsp;&nbsp;&nbsp;&nbsp;&nbsp;&nbsp;&nbsp;&nbsp;&nbsp;&nbsp;&nbsp;&nbsp;&nbsp;&nbsp;&nbsp;&nbsp;&nbsp;2&nbsp;&nbsp;&nbsp;&nbsp;&nbsp;&nbsp;&nbsp;&nbsp;&nbsp;&nbsp;&nbsp;&nbsp;&nbsp;&nbsp;&nbsp;&nbsp;&nbsp;&nbsp;&nbsp;3&nbsp;&nbsp;&nbsp;&nbsp;&nbsp;&nbsp;&nbsp;&nbsp;&nbsp;&nbsp;&nbsp;&nbsp;&nbsp;&nbsp;&nbsp;&nbsp;&nbsp;&nbsp;&nbsp;4</p><p style=""font-size:14px"">Not at all familiar&nbsp;&nbsp;&nbsp;&nbsp;A little familiar&nbsp;&nbsp;&nbsp;Moderately familiar&nbsp;&nbsp;&nbsp;Extremely familiar</p><p>(press the corresponding number on your keyboard)</p>","","51","","","FAM-RESPONSE","","","","","","","","","","","","","","","","","","","sounds/B/FAM/W004.mp3","word","","","","","","","","","","","","","","","","","","",""
"html-keyboard-response","252","1429026","0.0-7.0-1.0-0.4","2","1","vv7enqzjt2yw20a","","null","","","","null","","","","","","","","","","","","","","","","","","","","","","","","","","","","","","","","","","","","","","","","","",""
"audio-keyboard-response","253","1429968","0.0-7.0-1.0-1.4","2","1","vv7enqzjt2yw20a","","null","","sounds/B/FAM/N003.mp3","","null","","","","","","","","","","","","","","","","","","","","","","","","","","","","","","","","","","","","","","","","","",""
"html-keyboard-response","254","1431027","0.0-7.0-1.0-2.4","2","1","vv7enqzjt2yw20a","","554.7999999821186","","<p>How familiar did this sound to you?</p><p>1&nbsp;&nbsp;&nbsp;&nbsp;&nbsp;&nbsp;&nbsp;&nbsp;&nbsp;&nbsp;&nbsp;&nbsp;&nbsp;&nbsp;&nbsp;&nbsp;&nbsp;&nbsp;&nbsp;2&nbsp;&nbsp;&nbsp;&nbsp;&nbsp;&nbsp;&nbsp;&nbsp;&nbsp;&nbsp;&nbsp;&nbsp;&nbsp;&nbsp;&nbsp;&nbsp;&nbsp;&nbsp;&nbsp;3&nbsp;&nbsp;&nbsp;&nbsp;&nbsp;&nbsp;&nbsp;&nbsp;&nbsp;&nbsp;&nbsp;&nbsp;&nbsp;&nbsp;&nbsp;&nbsp;&nbsp;&nbsp;&nbsp;4</p><p style=""font-size:14px"">Not at all familiar&nbsp;&nbsp;&nbsp;&nbsp;A little familiar&nbsp;&nbsp;&nbsp;Moderately familiar&nbsp;&nbsp;&nbsp;Extremely familiar</p><p>(press the corresponding number on your keyboard)</p>","","49","","","FAM-RESPONSE","","","","","","","","","","","","","","","","","","","sounds/B/FAM/N003.mp3","nonword","","","","","","","","","","","","","","","","","","",""
"html-keyboard-response","255","1433035","0.0-7.0-1.0-0.5","2","1","vv7enqzjt2yw20a","","null","","","","null","","","","","","","","","","","","","","","","","","","","","","","","","","","","","","","","","","","","","","","","","",""
"audio-keyboard-response","256","1433979","0.0-7.0-1.0-1.5","2","1","vv7enqzjt2yw20a","","null","","sounds/B/FAM/P001.mp3","","null","","","","","","","","","","","","","","","","","","","","","","","","","","","","","","","","","","","","","","","","","",""
"html-keyboard-response","257","1435370","0.0-7.0-1.0-2.5","2","1","vv7enqzjt2yw20a","","888","","<p>How familiar did this sound to you?</p><p>1&nbsp;&nbsp;&nbsp;&nbsp;&nbsp;&nbsp;&nbsp;&nbsp;&nbsp;&nbsp;&nbsp;&nbsp;&nbsp;&nbsp;&nbsp;&nbsp;&nbsp;&nbsp;&nbsp;2&nbsp;&nbsp;&nbsp;&nbsp;&nbsp;&nbsp;&nbsp;&nbsp;&nbsp;&nbsp;&nbsp;&nbsp;&nbsp;&nbsp;&nbsp;&nbsp;&nbsp;&nbsp;&nbsp;3&nbsp;&nbsp;&nbsp;&nbsp;&nbsp;&nbsp;&nbsp;&nbsp;&nbsp;&nbsp;&nbsp;&nbsp;&nbsp;&nbsp;&nbsp;&nbsp;&nbsp;&nbsp;&nbsp;4</p><p style=""font-size:14px"">Not at all familiar&nbsp;&nbsp;&nbsp;&nbsp;A little familiar&nbsp;&nbsp;&nbsp;Moderately familiar&nbsp;&nbsp;&nbsp;Extremely familiar</p><p>(press the corresponding number on your keyboard)</p>","","52","","","FAM-RESPONSE","","","","","","","","","","","","","","","","","","","sounds/B/FAM/P001.mp3","partword","","","","","","","","","","","","","","","","","","",""
"html-keyboard-response","258","1437377","0.0-7.0-1.0-0.6","2","1","vv7enqzjt2yw20a","","null","","","","null","","","","","","","","","","","","","","","","","","","","","","","","","","","","","","","","","","","","","","","","","",""
"audio-keyboard-response","259","1438319","0.0-7.0-1.0-1.6","2","1","vv7enqzjt2yw20a","","null","","sounds/B/FAM/N002.mp3","","null","","","","","","","","","","","","","","","","","","","","","","","","","","","","","","","","","","","","","","","","","",""
"html-keyboard-response","260","1440091","0.0-7.0-1.0-2.6","2","1","vv7enqzjt2yw20a","","1270.2000000178814","","<p>How familiar did this sound to you?</p><p>1&nbsp;&nbsp;&nbsp;&nbsp;&nbsp;&nbsp;&nbsp;&nbsp;&nbsp;&nbsp;&nbsp;&nbsp;&nbsp;&nbsp;&nbsp;&nbsp;&nbsp;&nbsp;&nbsp;2&nbsp;&nbsp;&nbsp;&nbsp;&nbsp;&nbsp;&nbsp;&nbsp;&nbsp;&nbsp;&nbsp;&nbsp;&nbsp;&nbsp;&nbsp;&nbsp;&nbsp;&nbsp;&nbsp;3&nbsp;&nbsp;&nbsp;&nbsp;&nbsp;&nbsp;&nbsp;&nbsp;&nbsp;&nbsp;&nbsp;&nbsp;&nbsp;&nbsp;&nbsp;&nbsp;&nbsp;&nbsp;&nbsp;4</p><p style=""font-size:14px"">Not at all familiar&nbsp;&nbsp;&nbsp;&nbsp;A little familiar&nbsp;&nbsp;&nbsp;Moderately familiar&nbsp;&nbsp;&nbsp;Extremely familiar</p><p>(press the corresponding number on your keyboard)</p>","","50","","","FAM-RESPONSE","","","","","","","","","","","","","","","","","","","sounds/B/FAM/N002.mp3","nonword","","","","","","","","","","","","","","","","","","",""
"html-keyboard-response","261","1442101","0.0-7.0-1.0-0.7","2","1","vv7enqzjt2yw20a","","null","","","","null","","","","","","","","","","","","","","","","","","","","","","","","","","","","","","","","","","","","","","","","","",""
"audio-keyboard-response","262","1443044","0.0-7.0-1.0-1.7","2","1","vv7enqzjt2yw20a","","null","","sounds/B/FAM/W001.mp3","","null","","","","","","","","","","","","","","","","","","","","","","","","","","","","","","","","","","","","","","","","","",""
"html-keyboard-response","263","1444159","0.0-7.0-1.0-2.7","2","1","vv7enqzjt2yw20a","","610.5999999940395","","<p>How familiar did this sound to you?</p><p>1&nbsp;&nbsp;&nbsp;&nbsp;&nbsp;&nbsp;&nbsp;&nbsp;&nbsp;&nbsp;&nbsp;&nbsp;&nbsp;&nbsp;&nbsp;&nbsp;&nbsp;&nbsp;&nbsp;2&nbsp;&nbsp;&nbsp;&nbsp;&nbsp;&nbsp;&nbsp;&nbsp;&nbsp;&nbsp;&nbsp;&nbsp;&nbsp;&nbsp;&nbsp;&nbsp;&nbsp;&nbsp;&nbsp;3&nbsp;&nbsp;&nbsp;&nbsp;&nbsp;&nbsp;&nbsp;&nbsp;&nbsp;&nbsp;&nbsp;&nbsp;&nbsp;&nbsp;&nbsp;&nbsp;&nbsp;&nbsp;&nbsp;4</p><p style=""font-size:14px"">Not at all familiar&nbsp;&nbsp;&nbsp;&nbsp;A little familiar&nbsp;&nbsp;&nbsp;Moderately familiar&nbsp;&nbsp;&nbsp;Extremely familiar</p><p>(press the corresponding number on your keyboard)</p>","","50","","","FAM-RESPONSE","","","","","","","","","","","","","","","","","","","sounds/B/FAM/W001.mp3","word","","","","","","","","","","","","","","","","","","",""
"html-keyboard-response","264","1446166","0.0-7.0-1.0-0.8","2","1","vv7enqzjt2yw20a","","null","","","","null","","","","","","","","","","","","","","","","","","","","","","","","","","","","","","","","","","","","","","","","","",""
"audio-keyboard-response","265","1447109","0.0-7.0-1.0-1.8","2","1","vv7enqzjt2yw20a","","null","","sounds/B/FAM/P002.mp3","","null","","","","","","","","","","","","","","","","","","","","","","","","","","","","","","","","","","","","","","","","","",""
"html-keyboard-response","266","1448517","0.0-7.0-1.0-2.8","2","1","vv7enqzjt2yw20a","","903.8000000119209","","<p>How familiar did this sound to you?</p><p>1&nbsp;&nbsp;&nbsp;&nbsp;&nbsp;&nbsp;&nbsp;&nbsp;&nbsp;&nbsp;&nbsp;&nbsp;&nbsp;&nbsp;&nbsp;&nbsp;&nbsp;&nbsp;&nbsp;2&nbsp;&nbsp;&nbsp;&nbsp;&nbsp;&nbsp;&nbsp;&nbsp;&nbsp;&nbsp;&nbsp;&nbsp;&nbsp;&nbsp;&nbsp;&nbsp;&nbsp;&nbsp;&nbsp;3&nbsp;&nbsp;&nbsp;&nbsp;&nbsp;&nbsp;&nbsp;&nbsp;&nbsp;&nbsp;&nbsp;&nbsp;&nbsp;&nbsp;&nbsp;&nbsp;&nbsp;&nbsp;&nbsp;4</p><p style=""font-size:14px"">Not at all familiar&nbsp;&nbsp;&nbsp;&nbsp;A little familiar&nbsp;&nbsp;&nbsp;Moderately familiar&nbsp;&nbsp;&nbsp;Extremely familiar</p><p>(press the corresponding number on your keyboard)</p>","","51","","","FAM-RESPONSE","","","","","","","","","","","","","","","","","","","sounds/B/FAM/P002.mp3","partword","","","","","","","","","","","","","","","","","","",""
"html-keyboard-response","267","1450523","0.0-7.0-1.0-0.9","2","1","vv7enqzjt2yw20a","","null","","","","null","","","","","","","","","","","","","","","","","","","","","","","","","","","","","","","","","","","","","","","","","",""
"audio-keyboard-response","268","1451466","0.0-7.0-1.0-1.9","2","1","vv7enqzjt2yw20a","","null","","sounds/B/FAM/N004.mp3","","null","","","","","","","","","","","","","","","","","","","","","","","","","","","","","","","","","","","","","","","","","",""
"html-keyboard-response","269","1453459","0.0-7.0-1.0-2.9","2","1","vv7enqzjt2yw20a","","1487.800000011921","","<p>How familiar did this sound to you?</p><p>1&nbsp;&nbsp;&nbsp;&nbsp;&nbsp;&nbsp;&nbsp;&nbsp;&nbsp;&nbsp;&nbsp;&nbsp;&nbsp;&nbsp;&nbsp;&nbsp;&nbsp;&nbsp;&nbsp;2&nbsp;&nbsp;&nbsp;&nbsp;&nbsp;&nbsp;&nbsp;&nbsp;&nbsp;&nbsp;&nbsp;&nbsp;&nbsp;&nbsp;&nbsp;&nbsp;&nbsp;&nbsp;&nbsp;3&nbsp;&nbsp;&nbsp;&nbsp;&nbsp;&nbsp;&nbsp;&nbsp;&nbsp;&nbsp;&nbsp;&nbsp;&nbsp;&nbsp;&nbsp;&nbsp;&nbsp;&nbsp;&nbsp;4</p><p style=""font-size:14px"">Not at all familiar&nbsp;&nbsp;&nbsp;&nbsp;A little familiar&nbsp;&nbsp;&nbsp;Moderately familiar&nbsp;&nbsp;&nbsp;Extremely familiar</p><p>(press the corresponding number on your keyboard)</p>","","51","","","FAM-RESPONSE","","","","","","","","","","","","","","","","","","","sounds/B/FAM/N004.mp3","nonword","","","","","","","","","","","","","","","","","","",""
"html-keyboard-response","270","1455461","0.0-7.0-1.0-0.10","2","1","vv7enqzjt2yw20a","","null","","","","null","","","","","","","","","","","","","","","","","","","","","","","","","","","","","","","","","","","","","","","","","",""
"audio-keyboard-response","271","1456404","0.0-7.0-1.0-1.10","2","1","vv7enqzjt2yw20a","","null","","sounds/B/FAM/P004.mp3","","null","","","","","","","","","","","","","","","","","","","","","","","","","","","","","","","","","","","","","","","","","",""
"html-keyboard-response","272","1457339","0.0-7.0-1.0-2.10","2","1","vv7enqzjt2yw20a","","429.09999999403954","","<p>How familiar did this sound to you?</p><p>1&nbsp;&nbsp;&nbsp;&nbsp;&nbsp;&nbsp;&nbsp;&nbsp;&nbsp;&nbsp;&nbsp;&nbsp;&nbsp;&nbsp;&nbsp;&nbsp;&nbsp;&nbsp;&nbsp;2&nbsp;&nbsp;&nbsp;&nbsp;&nbsp;&nbsp;&nbsp;&nbsp;&nbsp;&nbsp;&nbsp;&nbsp;&nbsp;&nbsp;&nbsp;&nbsp;&nbsp;&nbsp;&nbsp;3&nbsp;&nbsp;&nbsp;&nbsp;&nbsp;&nbsp;&nbsp;&nbsp;&nbsp;&nbsp;&nbsp;&nbsp;&nbsp;&nbsp;&nbsp;&nbsp;&nbsp;&nbsp;&nbsp;4</p><p style=""font-size:14px"">Not at all familiar&nbsp;&nbsp;&nbsp;&nbsp;A little familiar&nbsp;&nbsp;&nbsp;Moderately familiar&nbsp;&nbsp;&nbsp;Extremely familiar</p><p>(press the corresponding number on your keyboard)</p>","","51","","","FAM-RESPONSE","","","","","","","","","","","","","","","","","","","sounds/B/FAM/P004.mp3","partword","","","","","","","","","","","","","","","","","","",""
"html-keyboard-response","273","1459346","0.0-7.0-1.0-0.11","2","1","vv7enqzjt2yw20a","","null","","","","null","","","","","","","","","","","","","","","","","","","","","","","","","","","","","","","","","","","","","","","","","",""
"audio-keyboard-response","274","1460287","0.0-7.0-1.0-1.11","2","1","vv7enqzjt2yw20a","","null","","sounds/B/FAM/W003.mp3","","null","","","","","","","","","","","","","","","","","","","","","","","","","","","","","","","","","","","","","","","","","",""
"html-keyboard-response","275","1462807","0.0-7.0-1.0-2.11","2","1","vv7enqzjt2yw20a","","2016.7999999821186","","<p>How familiar did this sound to you?</p><p>1&nbsp;&nbsp;&nbsp;&nbsp;&nbsp;&nbsp;&nbsp;&nbsp;&nbsp;&nbsp;&nbsp;&nbsp;&nbsp;&nbsp;&nbsp;&nbsp;&nbsp;&nbsp;&nbsp;2&nbsp;&nbsp;&nbsp;&nbsp;&nbsp;&nbsp;&nbsp;&nbsp;&nbsp;&nbsp;&nbsp;&nbsp;&nbsp;&nbsp;&nbsp;&nbsp;&nbsp;&nbsp;&nbsp;3&nbsp;&nbsp;&nbsp;&nbsp;&nbsp;&nbsp;&nbsp;&nbsp;&nbsp;&nbsp;&nbsp;&nbsp;&nbsp;&nbsp;&nbsp;&nbsp;&nbsp;&nbsp;&nbsp;4</p><p style=""font-size:14px"">Not at all familiar&nbsp;&nbsp;&nbsp;&nbsp;A little familiar&nbsp;&nbsp;&nbsp;Moderately familiar&nbsp;&nbsp;&nbsp;Extremely familiar</p><p>(press the corresponding number on your keyboard)</p>","","51","","","FAM-RESPONSE","","","","","","","","","","","","","","","","","","","sounds/B/FAM/W003.mp3","word","","","","","","","","","","","","","","","","","","",""
"html-button-response","276","1473052","0.0-8.0-0.0","2","1","vv7enqzjt2yw20a","","9242.5","","<p>You will now listen to longer sound sequences.</p><p>Each sound sequence will last about 16 seconds.</p><p>On each trial, you will be given a <u>TARGET SOUND</u>. Your task is to listen very carefully for this sound.</p><p>Every time you hear the <u>TARGET SOUND</u>, you will press the <b>SPACEBAR</b> as quickly and accurately as you can.</p>","0","","","","","","","","","","","","","","","","","","","","","","","","","","","","","","","","","","","","","","","","","","",""
"html-button-response","277","1483437","0.0-8.0-1.0","2","1","vv7enqzjt2yw20a","","10129.299999982119","","<p>It is very important that you make your responses as quickly and accurately as possible.</p><p>To help you make your responses, you will be able to listen to the <u>TARGET SOUND</u> at the beginning of each trial.</p><p>There will be 36 total trials.</p><p><b>Note: This is meant to be a difficult task. We simply want you to try your best.</p>","0","","","","","","","","","","","","","","","","","","","","","","","","","","","","","","","","","","","","","","","","","","",""
"html-button-response","278","1485108","0.0-8.0-2.0-0.0","2","1","vv7enqzjt2yw20a","","1414.5999999940395","","<p>Trial 1 of 36</p>","0","","","","","","","","","","","","","","","","","","","","","","","","","ME","sounds/syllables/me_SWS.wav","2100,4800,6600,9300","2","","","","","","","","","","","","","","",""
"html-keyboard-response","279","1488527","0.0-8.0-2.0-1.0","2","1","vv7enqzjt2yw20a","","3416.0999999940395","","","","80","","","","","","","","","","","","","","","","","","","","","","","","ME","","2100,4800,6600,9300","2","","","","","","","","","","","","","","",""
"audio-keyboard-response","280","1488829","0.0-8.0-2.0-2.0-0.0","2","1","vv7enqzjt2yw20a","","null","","sounds/syllables/me_SWS.wav","","null","","","","","","","","","","","","","","","","","","","","","","","","","","","","","","","","","","","","","","","","","",""
"html-keyboard-response","281","1493237","0.0-8.0-2.0-2.0-1.0","2","1","vv7enqzjt2yw20a","","4407.5","","<p>To replay the <u>TARGET SOUND</u>, press P.</p> When you are ready to begin, press SPACEBAR.","","80","","","","","","","","","","","","","","","","","","","","","","","","","","","","","","","","","","","","","","","","","",""
"audio-keyboard-response","282","1494040","0.0-8.0-2.0-2.1-0.1","2","1","vv7enqzjt2yw20a","","null","","sounds/syllables/me_SWS.wav","","null","","","","","","","","","","","","","","","","","","","","","","","","","","","","","","","","","","","","","","","","","",""
"html-keyboard-response","283","1494295","0.0-8.0-2.0-2.1-1.1","2","1","vv7enqzjt2yw20a","","254.5","","<p>To replay the <u>TARGET SOUND</u>, press P.</p> When you are ready to begin, press SPACEBAR.","","32","","","","","","","","","","","","","","","","","","","","","","","","","","","","","","","","","","","","","","","","","",""
"audio-keyboard-response","284","1509245","0.0-8.0-2.0-3.0","2","1","vv7enqzjt2yw20a","","2816","","sounds/B/TD/ME_03_TD.mp3","","32","","","TD_SUMMARY","","","","","","","","","","","","","","","","","","","","","ME","","2100,4800,6600,9300","2","2100","4800","6600","9300","714.0999999940395","317.30000001192093","777.0999999940395","243.2000000178814","2814.0999999940395_5117.300000011921_7377.0999999940395_9543.200000017881_13159.800000011921","2","","","","",""
"html-button-response","285","1511391","0.0-8.0-2.0-0.1","2","1","vv7enqzjt2yw20a","","2140.2999999821186","","<p>Trial 2 of 36</p>","0","","","","","","","","","","","","","","","","","","","","","","","","","FE","sounds/syllables/fe_SWS.wav","3300,7800,9600,11400","3","","","","","","","","","","","","","","",""
"html-keyboard-response","286","1513986","0.0-8.0-2.0-1.1","2","1","vv7enqzjt2yw20a","","2592.7999999821186","","","","80","","","","","","","","","","","","","","","","","","","","","","","","FE","","3300,7800,9600,11400","3","","","","","","","","","","","","","","",""
"audio-keyboard-response","287","1514289","0.0-8.0-2.0-2.2-0.2","2","1","vv7enqzjt2yw20a","","null","","sounds/syllables/fe_SWS.wav","","null","","","","","","","","","","","","","","","","","","","","","","","","","","","","","","","","","","","","","","","","","",""
"html-keyboard-response","288","1515487","0.0-8.0-2.0-2.2-1.2","2","1","vv7enqzjt2yw20a","","1196.800000011921","","<p>To replay the <u>TARGET SOUND</u>, press P.</p> When you are ready to begin, press SPACEBAR.","","80","","","","","","","","","","","","","","","","","","","","","","","","","","","","","","","","","","","","","","","","","",""
"audio-keyboard-response","289","1516295","0.0-8.0-2.0-2.3-0.3","2","1","vv7enqzjt2yw20a","","null","","sounds/syllables/fe_SWS.wav","","null","","","","","","","","","","","","","","","","","","","","","","","","","","","","","","","","","","","","","","","","","",""
"html-keyboard-response","290","1517946","0.0-8.0-2.0-2.3-1.3","2","1","vv7enqzjt2yw20a","","1648.800000011921","","<p>To replay the <u>TARGET SOUND</u>, press P.</p> When you are ready to begin, press SPACEBAR.","","32","","","","","","","","","","","","","","","","","","","","","","","","","","","","","","","","","","","","","","","","","",""
"audio-keyboard-response","291","1532898","0.0-8.0-2.0-3.1","2","1","vv7enqzjt2yw20a","","4043","","sounds/B/TD/FE_05_TD.mp3","","32","","","TD_SUMMARY","","","","","","","","","","","","","","","","","","","","","FE","","3300,7800,9600,11400","3","3300","7800","9600","11400","743.0999999940395","null","799.6999999880791","null","_____4043.0999999940395_5673.0999999940395_7383.9000000059605_10399.699999988079","2","","","","",""
"html-button-response","292","1534487","0.0-8.0-2.0-0.2","2","1","vv7enqzjt2yw20a","","1585.3999999761581","","<p>Trial 3 of 36</p>","0","","","","","","","","","","","","","","","","","","","","","","","","","GE","sounds/syllables/ge_SWS.wav","5400,7200,10800,12600","1","","","","","","","","","","","","","","",""
"html-keyboard-response","293","1535594","0.0-8.0-2.0-1.2","2","1","vv7enqzjt2yw20a","","1104.4000000059605","","","","80","","","","","","","","","","","","","","","","","","","","","","","","GE","","5400,7200,10800,12600","1","","","","","","","","","","","","","","",""
"audio-keyboard-response","294","1535894","0.0-8.0-2.0-2.4-0.4","2","1","vv7enqzjt2yw20a","","null","","sounds/syllables/ge_SWS.wav","","null","","","","","","","","","","","","","","","","","","","","","","","","","","","","","","","","","","","","","","","","","",""
"html-keyboard-response","295","1537000","0.0-8.0-2.0-2.4-1.4","2","1","vv7enqzjt2yw20a","","1104.5","","<p>To replay the <u>TARGET SOUND</u>, press P.</p> When you are ready to begin, press SPACEBAR.","","80","","","","","","","","","","","","","","","","","","","","","","","","","","","","","","","","","","","","","","","","","",""
"audio-keyboard-response","296","1537804","0.0-8.0-2.0-2.5-0.5","2","1","vv7enqzjt2yw20a","","null","","sounds/syllables/ge_SWS.wav","","null","","","","","","","","","","","","","","","","","","","","","","","","","","","","","","","","","","","","","","","","","",""
"html-keyboard-response","297","1538244","0.0-8.0-2.0-2.5-1.5","2","1","vv7enqzjt2yw20a","","438.59999999403954","","<p>To replay the <u>TARGET SOUND</u>, press P.</p> When you are ready to begin, press SPACEBAR.","","32","","","","","","","","","","","","","","","","","","","","","","","","","","","","","","","","","","","","","","","","","",""
"audio-keyboard-response","298","1553196","0.0-8.0-2.0-3.2","2","1","vv7enqzjt2yw20a","","6368","","sounds/B/TD/GE_05_TD.mp3","","32","","","TD_SUMMARY","","","","","","","","","","","","","","","","","","","","","GE","","5400,7200,10800,12600","1","5400","7200","10800","12600","966.7999999821186","913.5999999940395","726.6999999880791","1106.5999999940395","_________6366.799999982119_8113.5999999940395_11526.699999988079_13706.59999999404","2","","","","",""
"html-button-response","299","1554367","0.0-8.0-2.0-0.3","2","1","vv7enqzjt2yw20a","","1167.4000000059605","","<p>Trial 4 of 36</p>","0","","","","","","","","","","","","","","","","","","","","","","","","","ME","sounds/syllables/me_SWS.wav","1200,6600,9300,12900","2","","","","","","","","","","","","","","",""
"html-keyboard-response","300","1554919","0.0-8.0-2.0-1.3","2","1","vv7enqzjt2yw20a","","550","","","","80","","","","","","","","","","","","","","","","","","","","","","","","ME","","1200,6600,9300,12900","2","","","","","","","","","","","","","","",""
"audio-keyboard-response","301","1555222","0.0-8.0-2.0-2.6-0.6","2","1","vv7enqzjt2yw20a","","null","","sounds/syllables/me_SWS.wav","","null","","","","","","","","","","","","","","","","","","","","","","","","","","","","","","","","","","","","","","","","","",""
"html-keyboard-response","302","1556293","0.0-8.0-2.0-2.6-1.6","2","1","vv7enqzjt2yw20a","","1070.2000000178814","","<p>To replay the <u>TARGET SOUND</u>, press P.</p> When you are ready to begin, press SPACEBAR.","","32","","","","","","","","","","","","","","","","","","","","","","","","","","","","","","","","","","","","","","","","","",""
"audio-keyboard-response","303","1571242","0.0-8.0-2.0-3.3","2","1","vv7enqzjt2yw20a","","2069","","sounds/B/TD/ME_08_TD.mp3","","32","","","TD_SUMMARY","","","","","","","","","","","","","","","","","","","","","ME","","1200,6600,9300,12900","2","1200","6600","9300","12900","869.0999999940395","849.3000000119209","905.0999999940395","655.9000000059605","_____________2069.0999999940395_7449.300000011921_10205.09999999404_13555.90000000596","1","","","","",""
"html-button-response","304","1573202","0.0-8.0-2.0-0.4","2","1","vv7enqzjt2yw20a","","1956.7000000178814","","<p>Trial 5 of 36</p>","0","","","","","","","","","","","","","","","","","","","","","","","","","GE","sounds/syllables/ge_SWS.wav","3600,6300,9900,11700","1","","","","","","","","","","","","","","",""
"html-keyboard-response","305","1574519","0.0-8.0-2.0-1.4","2","1","vv7enqzjt2yw20a","","1315.9000000059605","","","","80","","","","","","","","","","","","","","","","","","","","","","","","GE","","3600,6300,9900,11700","1","","","","","","","","","","","","","","",""
"audio-keyboard-response","306","1574821","0.0-8.0-2.0-2.7-0.7","2","1","vv7enqzjt2yw20a","","null","","sounds/syllables/ge_SWS.wav","","null","","","","","","","","","","","","","","","","","","","","","","","","","","","","","","","","","","","","","","","","","",""
"html-keyboard-response","307","1576197","0.0-8.0-2.0-2.7-1.7","2","1","vv7enqzjt2yw20a","","1376.4000000059605","","<p>To replay the <u>TARGET SOUND</u>, press P.</p> When you are ready to begin, press SPACEBAR.","","32","","","","","","","","","","","","","","","","","","","","","","","","","","","","","","","","","","","","","","","","","",""
"audio-keyboard-response","308","1591146","0.0-8.0-2.0-3.4","2","1","vv7enqzjt2yw20a","","4597","","sounds/B/TD/GE_09_TD.mp3","","32","","","TD_SUMMARY","","","","","","","","","","","","","","","","","","","","","GE","","3600,6300,9900,11700","1","3600","6300","9900","11700","998.4000000059605","null","null","null","_________________4598.4000000059605_7590.5","1","","","","",""
"html-button-response","309","1594068","0.0-8.0-2.0-0.5","2","1","vv7enqzjt2yw20a","","2919.4000000059605","","<p>Trial 6 of 36</p>","0","","","","","","","","","","","","","","","","","","","","","","","","","FE","sounds/syllables/fe_SWS.wav","3300,5100,8700,11400","3","","","","","","","","","","","","","","",""
"html-keyboard-response","310","1594909","0.0-8.0-2.0-1.5","2","1","vv7enqzjt2yw20a","","840.2000000178814","","","","80","","","","","","","","","","","","","","","","","","","","","","","","FE","","3300,5100,8700,11400","3","","","","","","","","","","","","","","",""
"audio-keyboard-response","311","1595209","0.0-8.0-2.0-2.8-0.8","2","1","vv7enqzjt2yw20a","","null","","sounds/syllables/fe_SWS.wav","","null","","","","","","","","","","","","","","","","","","","","","","","","","","","","","","","","","","","","","","","","","",""
"html-keyboard-response","312","1596039","0.0-8.0-2.0-2.8-1.8","2","1","vv7enqzjt2yw20a","","829.8000000119209","","<p>To replay the <u>TARGET SOUND</u>, press P.</p> When you are ready to begin, press SPACEBAR.","","80","","","","","","","","","","","","","","","","","","","","","","","","","","","","","","","","","","","","","","","","","",""
"audio-keyboard-response","313","1596847","0.0-8.0-2.0-2.9-0.9","2","1","vv7enqzjt2yw20a","","null","","sounds/syllables/fe_SWS.wav","","null","","","","","","","","","","","","","","","","","","","","","","","","","","","","","","","","","","","","","","","","","",""
"html-keyboard-response","314","1597836","0.0-8.0-2.0-2.9-1.9","2","1","vv7enqzjt2yw20a","","988.3999999761581","","<p>To replay the <u>TARGET SOUND</u>, press P.</p> When you are ready to begin, press SPACEBAR.","","32","","","","","","","","","","","","","","","","","","","","","","","","","","","","","","","","","","","","","","","","","",""
