"trial_type","trial_index","time_elapsed","internal_node_id","counterbalance","lang_instruct","ParticipantID","view_history","rt","url","stimulus","button_pressed","key_press","correctRESP","correct","designation","location","correctanswer","responses","sentence","keywords","typed_resp","keyword1_acc","keyword2_acc","keyword3_acc","keyword4_acc","keyword5_acc","total_acc","prop_acc"
"pavlovia","0","6","0.0-0.0","3","1","4auu2yok8fxtbk9","","","","","","","","","","","","","","","","","","","","","",""
"instructions","1","190689","0.0-1.0","3","1","4auu2yok8fxtbk9","[{""page_index"":0,""viewing_time"":11690},{""page_index"":1,""viewing_time"":178985}]","190685","","","","","","","","","","","","","","","","","","","",""
"external-html","2","199758","0.0-2.0","3","1","4auu2yok8fxtbk9","","8326","consent/consent.html","","","","","","","","","","","","","","","","","","",""
"html-button-response","3","203067","0.0-3.0-0.0-0.0","3","1","4auu2yok8fxtbk9","","3307","","<p>Welcome to the study. You will first complete a short volume calibration and headphone check.</p><p>Please make sure you are in a quiet listening environment, that you are wearing headphones, and that your computer's volume is turned on.<p></p>","0","","","","","","","","","","","","","","","","",""
"html-button-response","4","205445","0.0-3.0-0.0-1.0","3","1","4auu2yok8fxtbk9","","2125","","<p>The volume calibration will be first.</p><p>You will hear a thirty-second noise. Please adjust your computer's volume so that this noise is being presented at a comfortable level.<p></p>","0","","","","","","","","","","","","","","","","",""
"audio-button-response","5","210135","0.0-3.0-0.0-2.0","3","1","4auu2yok8fxtbk9","","3989","","audCalib/volumetest.mp3","0","","","","","","","","","","","","","","","","",""
"html-button-response","6","273113","0.0-3.0-1.0-0.0","3","1","4auu2yok8fxtbk9","","62976","","<p>You will now complete a short headphone check.</p><p>On each trial, you will hear three tones. One of these tones will be quieter than the others. Your task is to identify whether the quiet tone occured first, second, or third.</p><p>There are six trials in total.<p></p>","0","","","","","","","","","","","","","","","","",""
"html-keyboard-response","7","273867","0.0-3.0-1.0-1.0-0.0","3","1","4auu2yok8fxtbk9","","null","","<div style=""font-size:60px;"">+</div>","","null","","","","","","","","","","","","","","","",""
"audio-button-response","8","279771","0.0-3.0-1.0-1.0-1.0","3","1","4auu2yok8fxtbk9","","5899","","audCalib/t1_1.mp3","0","","0","1","headphone-test","","","","","","","","","","","","",""
"html-keyboard-response","9","280526","0.0-3.0-1.0-1.0-0.1","3","1","4auu2yok8fxtbk9","","null","","<div style=""font-size:60px;"">+</div>","","null","","","","","","","","","","","","","","","",""
"audio-button-response","10","285591","0.0-3.0-1.0-1.0-1.1","3","1","4auu2yok8fxtbk9","","5067","","audCalib/t3_1.mp3","2","","2","1","headphone-test","","","","","","","","","","","","",""
"html-keyboard-response","11","286345","0.0-3.0-1.0-1.0-0.2","3","1","4auu2yok8fxtbk9","","null","","<div style=""font-size:60px;"">+</div>","","null","","","","","","","","","","","","","","","",""
"audio-button-response","12","291437","0.0-3.0-1.0-1.0-1.2","3","1","4auu2yok8fxtbk9","","5088","","audCalib/t3_2.mp3","2","","2","1","headphone-test","","","","","","","","","","","","",""
"html-keyboard-response","13","292190","0.0-3.0-1.0-1.0-0.3","3","1","4auu2yok8fxtbk9","","null","","<div style=""font-size:60px;"">+</div>","","null","","","","","","","","","","","","","","","",""
"audio-button-response","14","296790","0.0-3.0-1.0-1.0-1.3","3","1","4auu2yok8fxtbk9","","4597","","audCalib/t2_1.mp3","1","","1","1","headphone-test","","","","","","","","","","","","",""
"html-keyboard-response","15","297545","0.0-3.0-1.0-1.0-0.4","3","1","4auu2yok8fxtbk9","","null","","<div style=""font-size:60px;"">+</div>","","null","","","","","","","","","","","","","","","",""
"audio-button-response","16","301777","0.0-3.0-1.0-1.0-1.4","3","1","4auu2yok8fxtbk9","","4224","","audCalib/t2_2.mp3","1","","1","1","headphone-test","","","","","","","","","","","","",""
"html-keyboard-response","17","302531","0.0-3.0-1.0-1.0-0.5","3","1","4auu2yok8fxtbk9","","null","","<div style=""font-size:60px;"">+</div>","","null","","","","","","","","","","","","","","","",""
"audio-button-response","18","307009","0.0-3.0-1.0-1.0-1.5","3","1","4auu2yok8fxtbk9","","4480","","audCalib/t1_2.mp3","0","","0","1","headphone-test","","","","","","","","","","","","",""
"html-button-response","19","310690","0.0-3.0-2.0","3","1","4auu2yok8fxtbk9","","3428","","<p>The volume calibration and headphone check are now complete.</p>","0","","","","","","","","","","","","","","","","",""
"instructions","20","329340","0.0-4.0-0.0","3","1","4auu2yok8fxtbk9","[{""page_index"":0,""viewing_time"":2035.0000000000582},{""page_index"":1,""viewing_time"":13516.999999999942},{""page_index"":2,""viewing_time"":3096.000000000058}]","18649","","","","","","","","","","","","","","","","","","","",""
"audio-keyboard-response","21","329650","0.0-4.0-1.0-0.0","3","1","4auu2yok8fxtbk9","","null","","sounds/induction/right/ni_SWS.wav","","null","","","","","","","","","","","","","","","",""
"html-button-response","22","333803","0.0-4.0-1.0-1.0","3","1","4auu2yok8fxtbk9","","4151","","What sound did you hear?","0","","","1","INDUCTION-JUDGMENT","right","0","","","","","","","","","","",""
"html-keyboard-response","23","334806","0.0-4.0-1.0-2.0","3","1","4auu2yok8fxtbk9","","null","","<p style=""color:green;""><b>Correct!</b></p>","","null","","","","","","","","","","","","","","","",""
"audio-keyboard-response","24","335612","0.0-4.0-1.0-0.1","3","1","4auu2yok8fxtbk9","","null","","sounds/induction/right/ge_SWS.wav","","null","","","","","","","","","","","","","","","",""
"html-button-response","25","338258","0.0-4.0-1.0-1.1","3","1","4auu2yok8fxtbk9","","2643.000000000058","","What sound did you hear?","0","","","1","INDUCTION-JUDGMENT","right","0","","","","","","","","","","",""
"html-keyboard-response","26","339261","0.0-4.0-1.0-2.1","3","1","4auu2yok8fxtbk9","","null","","<p style=""color:green;""><b>Correct!</b></p>","","null","","","","","","","","","","","","","","","",""
"audio-keyboard-response","27","340071","0.0-4.0-1.0-0.2","3","1","4auu2yok8fxtbk9","","null","","sounds/induction/right/ko_SWS.wav","","null","","","","","","","","","","","","","","","",""
"html-button-response","28","342049","0.0-4.0-1.0-1.2","3","1","4auu2yok8fxtbk9","","1976.9999999999418","","What sound did you hear?","0","","","1","INDUCTION-JUDGMENT","right","0","","","","","","","","","","",""
"html-keyboard-response","29","343052","0.0-4.0-1.0-2.2","3","1","4auu2yok8fxtbk9","","null","","<p style=""color:green;""><b>Correct!</b></p>","","null","","","","","","","","","","","","","","","",""
"audio-keyboard-response","30","343858","0.0-4.0-1.0-0.3","3","1","4auu2yok8fxtbk9","","null","","sounds/induction/right/ta_SWS.wav","","null","","","","","","","","","","","","","","","",""
"html-button-response","31","346602","0.0-4.0-1.0-1.3","3","1","4auu2yok8fxtbk9","","2742.000000000058","","What sound did you hear?","1","","","1","INDUCTION-JUDGMENT","right","1","","","","","","","","","","",""
"html-keyboard-response","32","347604","0.0-4.0-1.0-2.3","3","1","4auu2yok8fxtbk9","","null","","<p style=""color:green;""><b>Correct!</b></p>","","null","","","","","","","","","","","","","","","",""
"audio-keyboard-response","33","348412","0.0-4.0-1.0-0.4","3","1","4auu2yok8fxtbk9","","null","","sounds/induction/right/pu_SWS.wav","","null","","","","","","","","","","","","","","","",""
"html-button-response","34","350257","0.0-4.0-1.0-1.4","3","1","4auu2yok8fxtbk9","","1842","","What sound did you hear?","1","","","1","INDUCTION-JUDGMENT","right","1","","","","","","","","","","",""
"html-keyboard-response","35","351260","0.0-4.0-1.0-2.4","3","1","4auu2yok8fxtbk9","","null","","<p style=""color:green;""><b>Correct!</b></p>","","null","","","","","","","","","","","","","","","",""
"audio-keyboard-response","36","352071","0.0-4.0-1.0-0.5","3","1","4auu2yok8fxtbk9","","null","","sounds/induction/right/re_SWS.wav","","null","","","","","","","","","","","","","","","",""
"html-button-response","37","353694","0.0-4.0-1.0-1.5","3","1","4auu2yok8fxtbk9","","1620.9999999999418","","What sound did you hear?","0","","","0","INDUCTION-JUDGMENT","right","1","","","","","","","","","","",""
"html-keyboard-response","38","354697","0.0-4.0-1.0-2.5","3","1","4auu2yok8fxtbk9","","null","","<p style=""color:red;""><b>Incorrect!</b></p>","","null","","","","","","","","","","","","","","","",""
"audio-keyboard-response","39","355505","0.0-4.0-1.0-0.6","3","1","4auu2yok8fxtbk9","","null","","sounds/induction/right/ti_SWS.wav","","null","","","","","","","","","","","","","","","",""
"html-button-response","40","357606","0.0-4.0-1.0-1.6","3","1","4auu2yok8fxtbk9","","2100","","What sound did you hear?","1","","","1","INDUCTION-JUDGMENT","right","1","","","","","","","","","","",""
"html-keyboard-response","41","358610","0.0-4.0-1.0-2.6","3","1","4auu2yok8fxtbk9","","null","","<p style=""color:green;""><b>Correct!</b></p>","","null","","","","","","","","","","","","","","","",""
"audio-keyboard-response","42","359420","0.0-4.0-1.0-0.7","3","1","4auu2yok8fxtbk9","","null","","sounds/induction/right/ta_SWS.wav","","null","","","","","","","","","","","","","","","",""
"html-button-response","43","361139","0.0-4.0-1.0-1.7","3","1","4auu2yok8fxtbk9","","1718","","What sound did you hear?","1","","","1","INDUCTION-JUDGMENT","right","1","","","","","","","","","","",""
"html-keyboard-response","44","362142","0.0-4.0-1.0-2.7","3","1","4auu2yok8fxtbk9","","null","","<p style=""color:green;""><b>Correct!</b></p>","","null","","","","","","","","","","","","","","","",""
"audio-keyboard-response","45","362951","0.0-4.0-1.0-0.8","3","1","4auu2yok8fxtbk9","","null","","sounds/induction/right/su_SWS.wav","","null","","","","","","","","","","","","","","","",""
"html-button-response","46","364745","0.0-4.0-1.0-1.8","3","1","4auu2yok8fxtbk9","","1792","","What sound did you hear?","1","","","1","INDUCTION-JUDGMENT","right","1","","","","","","","","","","",""
"html-keyboard-response","47","365748","0.0-4.0-1.0-2.8","3","1","4auu2yok8fxtbk9","","null","","<p style=""color:green;""><b>Correct!</b></p>","","null","","","","","","","","","","","","","","","",""
"audio-keyboard-response","48","366556","0.0-4.0-1.0-0.9","3","1","4auu2yok8fxtbk9","","null","","sounds/induction/left/fu_SWS.wav","","null","","","","","","","","","","","","","","","",""
"html-button-response","49","368497","0.0-4.0-1.0-1.9","3","1","4auu2yok8fxtbk9","","1939","","What sound did you hear?","1","","","1","INDUCTION-JUDGMENT","left","1","","","","","","","","","","",""
"html-keyboard-response","50","369500","0.0-4.0-1.0-2.9","3","1","4auu2yok8fxtbk9","","null","","<p style=""color:green;""><b>Correct!</b></p>","","null","","","","","","","","","","","","","","","",""
"audio-keyboard-response","51","370310","0.0-4.0-1.0-0.10","3","1","4auu2yok8fxtbk9","","null","","sounds/induction/left/ru_SWS.wav","","null","","","","","","","","","","","","","","","",""
"html-button-response","52","371439","0.0-4.0-1.0-1.10","3","1","4auu2yok8fxtbk9","","1127","","What sound did you hear?","0","","","1","INDUCTION-JUDGMENT","left","0","","","","","","","","","","",""
"html-keyboard-response","53","372442","0.0-4.0-1.0-2.10","3","1","4auu2yok8fxtbk9","","null","","<p style=""color:green;""><b>Correct!</b></p>","","null","","","","","","","","","","","","","","","",""
"audio-keyboard-response","54","373244","0.0-4.0-1.0-0.11","3","1","4auu2yok8fxtbk9","","null","","sounds/induction/left/fe_SWS.wav","","null","","","","","","","","","","","","","","","",""
"html-button-response","55","374503","0.0-4.0-1.0-1.11","3","1","4auu2yok8fxtbk9","","1256.9999999999418","","What sound did you hear?","1","","","1","INDUCTION-JUDGMENT","left","1","","","","","","","","","","",""
"html-keyboard-response","56","375505","0.0-4.0-1.0-2.11","3","1","4auu2yok8fxtbk9","","null","","<p style=""color:green;""><b>Correct!</b></p>","","null","","","","","","","","","","","","","","","",""
"audio-keyboard-response","57","376316","0.0-4.0-1.0-0.12","3","1","4auu2yok8fxtbk9","","null","","sounds/induction/right/su_SWS.wav","","null","","","","","","","","","","","","","","","",""
"html-button-response","58","377616","0.0-4.0-1.0-1.12","3","1","4auu2yok8fxtbk9","","1297.9999999999418","","What sound did you hear?","1","","","1","INDUCTION-JUDGMENT","right","1","","","","","","","","","","",""
"html-keyboard-response","59","378618","0.0-4.0-1.0-2.12","3","1","4auu2yok8fxtbk9","","null","","<p style=""color:green;""><b>Correct!</b></p>","","null","","","","","","","","","","","","","","","",""
"audio-keyboard-response","60","379420","0.0-4.0-1.0-0.13","3","1","4auu2yok8fxtbk9","","null","","sounds/induction/right/fe_SWS.wav","","null","","","","","","","","","","","","","","","",""
"html-button-response","61","382669","0.0-4.0-1.0-1.13","3","1","4auu2yok8fxtbk9","","3248","","What sound did you hear?","1","","","0","INDUCTION-JUDGMENT","right","0","","","","","","","","","","",""
"html-keyboard-response","62","383672","0.0-4.0-1.0-2.13","3","1","4auu2yok8fxtbk9","","null","","<p style=""color:red;""><b>Incorrect!</b></p>","","null","","","","","","","","","","","","","","","",""
"audio-keyboard-response","63","384476","0.0-4.0-1.0-0.14","3","1","4auu2yok8fxtbk9","","null","","sounds/induction/left/ge_SWS.wav","","null","","","","","","","","","","","","","","","",""
"html-button-response","64","385782","0.0-4.0-1.0-1.14","3","1","4auu2yok8fxtbk9","","1305","","What sound did you hear?","1","","","1","INDUCTION-JUDGMENT","left","1","","","","","","","","","","",""
"html-keyboard-response","65","386785","0.0-4.0-1.0-2.14","3","1","4auu2yok8fxtbk9","","null","","<p style=""color:green;""><b>Correct!</b></p>","","null","","","","","","","","","","","","","","","",""
"audio-keyboard-response","66","387590","0.0-4.0-1.0-0.15","3","1","4auu2yok8fxtbk9","","null","","sounds/induction/left/ta_SWS.wav","","null","","","","","","","","","","","","","","","",""
"html-button-response","67","389472","0.0-4.0-1.0-1.15","3","1","4auu2yok8fxtbk9","","1880","","What sound did you hear?","0","","","1","INDUCTION-JUDGMENT","left","0","","","","","","","","","","",""
"html-keyboard-response","68","390474","0.0-4.0-1.0-2.15","3","1","4auu2yok8fxtbk9","","null","","<p style=""color:green;""><b>Correct!</b></p>","","null","","","","","","","","","","","","","","","",""
"audio-keyboard-response","69","391281","0.0-4.0-1.0-0.16","3","1","4auu2yok8fxtbk9","","null","","sounds/induction/right/ru_SWS.wav","","null","","","","","","","","","","","","","","","",""
"html-button-response","70","392254","0.0-4.0-1.0-1.16","3","1","4auu2yok8fxtbk9","","972","","What sound did you hear?","1","","","1","INDUCTION-JUDGMENT","right","1","","","","","","","","","","",""
"html-keyboard-response","71","393257","0.0-4.0-1.0-2.16","3","1","4auu2yok8fxtbk9","","null","","<p style=""color:green;""><b>Correct!</b></p>","","null","","","","","","","","","","","","","","","",""
"audio-keyboard-response","72","394065","0.0-4.0-1.0-0.17","3","1","4auu2yok8fxtbk9","","null","","sounds/induction/right/ti_SWS.wav","","null","","","","","","","","","","","","","","","",""
"html-button-response","73","396591","0.0-4.0-1.0-1.17","3","1","4auu2yok8fxtbk9","","2525","","What sound did you hear?","1","","","1","INDUCTION-JUDGMENT","right","1","","","","","","","","","","",""
"html-keyboard-response","74","397594","0.0-4.0-1.0-2.17","3","1","4auu2yok8fxtbk9","","null","","<p style=""color:green;""><b>Correct!</b></p>","","null","","","","","","","","","","","","","","","",""
"audio-keyboard-response","75","398396","0.0-4.0-1.0-0.18","3","1","4auu2yok8fxtbk9","","null","","sounds/induction/left/su_SWS.wav","","null","","","","","","","","","","","","","","","",""
"html-button-response","76","400310","0.0-4.0-1.0-1.18","3","1","4auu2yok8fxtbk9","","1913.0000000000582","","What sound did you hear?","0","","","1","INDUCTION-JUDGMENT","left","0","","","","","","","","","","",""
"html-keyboard-response","77","401313","0.0-4.0-1.0-2.18","3","1","4auu2yok8fxtbk9","","null","","<p style=""color:green;""><b>Correct!</b></p>","","null","","","","","","","","","","","","","","","",""
"audio-keyboard-response","78","402118","0.0-4.0-1.0-0.19","3","1","4auu2yok8fxtbk9","","null","","sounds/induction/left/ti_SWS.wav","","null","","","","","","","","","","","","","","","",""
"html-button-response","79","403732","0.0-4.0-1.0-1.19","3","1","4auu2yok8fxtbk9","","1611.9999999999418","","What sound did you hear?","1","","","0","INDUCTION-JUDGMENT","left","0","","","","","","","","","","",""
"html-keyboard-response","80","404734","0.0-4.0-1.0-2.19","3","1","4auu2yok8fxtbk9","","null","","<p style=""color:red;""><b>Incorrect!</b></p>","","null","","","","","","","","","","","","","","","",""
"audio-keyboard-response","81","405542","0.0-4.0-1.0-0.20","3","1","4auu2yok8fxtbk9","","null","","sounds/induction/right/ni_SWS.wav","","null","","","","","","","","","","","","","","","",""
"html-button-response","82","407298","0.0-4.0-1.0-1.20","3","1","4auu2yok8fxtbk9","","1755","","What sound did you hear?","0","","","1","INDUCTION-JUDGMENT","right","0","","","","","","","","","","",""
"html-keyboard-response","83","408301","0.0-4.0-1.0-2.20","3","1","4auu2yok8fxtbk9","","null","","<p style=""color:green;""><b>Correct!</b></p>","","null","","","","","","","","","","","","","","","",""
"audio-keyboard-response","84","409105","0.0-4.0-1.0-0.21","3","1","4auu2yok8fxtbk9","","null","","sounds/induction/right/ko_SWS.wav","","null","","","","","","","","","","","","","","","",""
"html-button-response","85","410867","0.0-4.0-1.0-1.21","3","1","4auu2yok8fxtbk9","","1761","","What sound did you hear?","0","","","1","INDUCTION-JUDGMENT","right","0","","","","","","","","","","",""
"html-keyboard-response","86","411870","0.0-4.0-1.0-2.21","3","1","4auu2yok8fxtbk9","","null","","<p style=""color:green;""><b>Correct!</b></p>","","null","","","","","","","","","","","","","","","",""
"audio-keyboard-response","87","412678","0.0-4.0-1.0-0.22","3","1","4auu2yok8fxtbk9","","null","","sounds/induction/left/ko_SWS.wav","","null","","","","","","","","","","","","","","","",""
"html-button-response","88","413849","0.0-4.0-1.0-1.22","3","1","4auu2yok8fxtbk9","","1169.9999999999418","","What sound did you hear?","1","","","1","INDUCTION-JUDGMENT","left","1","","","","","","","","","","",""
"html-keyboard-response","89","414852","0.0-4.0-1.0-2.22","3","1","4auu2yok8fxtbk9","","null","","<p style=""color:green;""><b>Correct!</b></p>","","null","","","","","","","","","","","","","","","",""
"audio-keyboard-response","90","415654","0.0-4.0-1.0-0.23","3","1","4auu2yok8fxtbk9","","null","","sounds/induction/left/su_SWS.wav","","null","","","","","","","","","","","","","","","",""
"html-button-response","91","417207","0.0-4.0-1.0-1.23","3","1","4auu2yok8fxtbk9","","1552","","What sound did you hear?","0","","","1","INDUCTION-JUDGMENT","left","0","","","","","","","","","","",""
"html-keyboard-response","92","418210","0.0-4.0-1.0-2.23","3","1","4auu2yok8fxtbk9","","null","","<p style=""color:green;""><b>Correct!</b></p>","","null","","","","","","","","","","","","","","","",""
"audio-keyboard-response","93","419014","0.0-4.0-1.0-0.24","3","1","4auu2yok8fxtbk9","","null","","sounds/induction/right/ru_SWS.wav","","null","","","","","","","","","","","","","","","",""
"html-button-response","94","419986","0.0-4.0-1.0-1.24","3","1","4auu2yok8fxtbk9","","971","","What sound did you hear?","1","","","1","INDUCTION-JUDGMENT","right","1","","","","","","","","","","",""
"html-keyboard-response","95","420988","0.0-4.0-1.0-2.24","3","1","4auu2yok8fxtbk9","","null","","<p style=""color:green;""><b>Correct!</b></p>","","null","","","","","","","","","","","","","","","",""
"audio-keyboard-response","96","421798","0.0-4.0-1.0-0.25","3","1","4auu2yok8fxtbk9","","null","","sounds/induction/left/ko_SWS.wav","","null","","","","","","","","","","","","","","","",""
"html-button-response","97","423668","0.0-4.0-1.0-1.25","3","1","4auu2yok8fxtbk9","","1869","","What sound did you hear?","1","","","1","INDUCTION-JUDGMENT","left","1","","","","","","","","","","",""
"html-keyboard-response","98","424671","0.0-4.0-1.0-2.25","3","1","4auu2yok8fxtbk9","","null","","<p style=""color:green;""><b>Correct!</b></p>","","null","","","","","","","","","","","","","","","",""
"audio-keyboard-response","99","425478","0.0-4.0-1.0-0.26","3","1","4auu2yok8fxtbk9","","null","","sounds/induction/left/pu_SWS.wav","","null","","","","","","","","","","","","","","","",""
"html-button-response","100","426936","0.0-4.0-1.0-1.26","3","1","4auu2yok8fxtbk9","","1457.0000000001164","","What sound did you hear?","0","","","1","INDUCTION-JUDGMENT","left","0","","","","","","","","","","",""
"html-keyboard-response","101","427938","0.0-4.0-1.0-2.26","3","1","4auu2yok8fxtbk9","","null","","<p style=""color:green;""><b>Correct!</b></p>","","null","","","","","","","","","","","","","","","",""
"audio-keyboard-response","102","428742","0.0-4.0-1.0-0.27","3","1","4auu2yok8fxtbk9","","null","","sounds/induction/left/re_SWS.wav","","null","","","","","","","","","","","","","","","",""
"html-button-response","103","429665","0.0-4.0-1.0-1.27","3","1","4auu2yok8fxtbk9","","920.9999999998836","","What sound did you hear?","0","","","1","INDUCTION-JUDGMENT","left","0","","","","","","","","","","",""
"html-keyboard-response","104","430669","0.0-4.0-1.0-2.27","3","1","4auu2yok8fxtbk9","","null","","<p style=""color:green;""><b>Correct!</b></p>","","null","","","","","","","","","","","","","","","",""
"audio-keyboard-response","105","431473","0.0-4.0-1.0-0.28","3","1","4auu2yok8fxtbk9","","null","","sounds/induction/left/ru_SWS.wav","","null","","","","","","","","","","","","","","","",""
"html-button-response","106","432198","0.0-4.0-1.0-1.28","3","1","4auu2yok8fxtbk9","","724","","What sound did you hear?","0","","","1","INDUCTION-JUDGMENT","left","0","","","","","","","","","","",""
"html-keyboard-response","107","433202","0.0-4.0-1.0-2.28","3","1","4auu2yok8fxtbk9","","null","","<p style=""color:green;""><b>Correct!</b></p>","","null","","","","","","","","","","","","","","","",""
"audio-keyboard-response","108","434011","0.0-4.0-1.0-0.29","3","1","4auu2yok8fxtbk9","","null","","sounds/induction/left/ni_SWS.wav","","null","","","","","","","","","","","","","","","",""
"html-button-response","109","436077","0.0-4.0-1.0-1.29","3","1","4auu2yok8fxtbk9","","2063.9999999998836","","What sound did you hear?","0","","","0","INDUCTION-JUDGMENT","left","1","","","","","","","","","","",""
"html-keyboard-response","110","437080","0.0-4.0-1.0-2.29","3","1","4auu2yok8fxtbk9","","null","","<p style=""color:red;""><b>Incorrect!</b></p>","","null","","","","","","","","","","","","","","","",""
"audio-keyboard-response","111","437883","0.0-4.0-1.0-0.30","3","1","4auu2yok8fxtbk9","","null","","sounds/induction/left/fe_SWS.wav","","null","","","","","","","","","","","","","","","",""
"html-button-response","112","439021","0.0-4.0-1.0-1.30","3","1","4auu2yok8fxtbk9","","1137","","What sound did you hear?","1","","","1","INDUCTION-JUDGMENT","left","1","","","","","","","","","","",""
"html-keyboard-response","113","440024","0.0-4.0-1.0-2.30","3","1","4auu2yok8fxtbk9","","null","","<p style=""color:green;""><b>Correct!</b></p>","","null","","","","","","","","","","","","","","","",""
"audio-keyboard-response","114","440827","0.0-4.0-1.0-0.31","3","1","4auu2yok8fxtbk9","","null","","sounds/induction/left/ti_SWS.wav","","null","","","","","","","","","","","","","","","",""
"html-button-response","115","441979","0.0-4.0-1.0-1.31","3","1","4auu2yok8fxtbk9","","1150","","What sound did you hear?","1","","","0","INDUCTION-JUDGMENT","left","0","","","","","","","","","","",""
"html-keyboard-response","116","442981","0.0-4.0-1.0-2.31","3","1","4auu2yok8fxtbk9","","null","","<p style=""color:red;""><b>Incorrect!</b></p>","","null","","","","","","","","","","","","","","","",""
"audio-keyboard-response","117","443782","0.0-4.0-1.0-0.32","3","1","4auu2yok8fxtbk9","","null","","sounds/induction/right/re_SWS.wav","","null","","","","","","","","","","","","","","","",""
"html-button-response","118","444591","0.0-4.0-1.0-1.32","3","1","4auu2yok8fxtbk9","","808","","What sound did you hear?","1","","","1","INDUCTION-JUDGMENT","right","1","","","","","","","","","","",""
"html-keyboard-response","119","445593","0.0-4.0-1.0-2.32","3","1","4auu2yok8fxtbk9","","null","","<p style=""color:green;""><b>Correct!</b></p>","","null","","","","","","","","","","","","","","","",""
"audio-keyboard-response","120","446396","0.0-4.0-1.0-0.33","3","1","4auu2yok8fxtbk9","","null","","sounds/induction/left/ta_SWS.wav","","null","","","","","","","","","","","","","","","",""
"html-button-response","121","447420","0.0-4.0-1.0-1.33","3","1","4auu2yok8fxtbk9","","1023","","What sound did you hear?","0","","","1","INDUCTION-JUDGMENT","left","0","","","","","","","","","","",""
"html-keyboard-response","122","448422","0.0-4.0-1.0-2.33","3","1","4auu2yok8fxtbk9","","null","","<p style=""color:green;""><b>Correct!</b></p>","","null","","","","","","","","","","","","","","","",""
"audio-keyboard-response","123","449233","0.0-4.0-1.0-0.34","3","1","4auu2yok8fxtbk9","","null","","sounds/induction/right/ge_SWS.wav","","null","","","","","","","","","","","","","","","",""
"html-button-response","124","450839","0.0-4.0-1.0-1.34","3","1","4auu2yok8fxtbk9","","1604.9999999998836","","What sound did you hear?","1","","","0","INDUCTION-JUDGMENT","right","0","","","","","","","","","","",""
"html-keyboard-response","125","451842","0.0-4.0-1.0-2.34","3","1","4auu2yok8fxtbk9","","null","","<p style=""color:red;""><b>Incorrect!</b></p>","","null","","","","","","","","","","","","","","","",""
"audio-keyboard-response","126","452646","0.0-4.0-1.0-0.35","3","1","4auu2yok8fxtbk9","","null","","sounds/induction/right/pu_SWS.wav","","null","","","","","","","","","","","","","","","",""
"html-button-response","127","453606","0.0-4.0-1.0-1.35","3","1","4auu2yok8fxtbk9","","959","","What sound did you hear?","1","","","1","INDUCTION-JUDGMENT","right","1","","","","","","","","","","",""
"html-keyboard-response","128","454608","0.0-4.0-1.0-2.35","3","1","4auu2yok8fxtbk9","","null","","<p style=""color:green;""><b>Correct!</b></p>","","null","","","","","","","","","","","","","","","",""
"audio-keyboard-response","129","455419","0.0-4.0-1.0-0.36","3","1","4auu2yok8fxtbk9","","null","","sounds/induction/left/fu_SWS.wav","","null","","","","","","","","","","","","","","","",""
"html-button-response","130","456499","0.0-4.0-1.0-1.36","3","1","4auu2yok8fxtbk9","","1078","","What sound did you hear?","1","","","1","INDUCTION-JUDGMENT","left","1","","","","","","","","","","",""
"html-keyboard-response","131","457502","0.0-4.0-1.0-2.36","3","1","4auu2yok8fxtbk9","","null","","<p style=""color:green;""><b>Correct!</b></p>","","null","","","","","","","","","","","","","","","",""
"audio-keyboard-response","132","458310","0.0-4.0-1.0-0.37","3","1","4auu2yok8fxtbk9","","null","","sounds/induction/right/me_SWS.wav","","null","","","","","","","","","","","","","","","",""
"html-button-response","133","459369","0.0-4.0-1.0-1.37","3","1","4auu2yok8fxtbk9","","1058","","What sound did you hear?","0","","","1","INDUCTION-JUDGMENT","right","0","","","","","","","","","","",""
"html-keyboard-response","134","460372","0.0-4.0-1.0-2.37","3","1","4auu2yok8fxtbk9","","null","","<p style=""color:green;""><b>Correct!</b></p>","","null","","","","","","","","","","","","","","","",""
"audio-keyboard-response","135","461179","0.0-4.0-1.0-0.38","3","1","4auu2yok8fxtbk9","","null","","sounds/induction/left/ni_SWS.wav","","null","","","","","","","","","","","","","","","",""
"html-button-response","136","462426","0.0-4.0-1.0-1.38","3","1","4auu2yok8fxtbk9","","1245","","What sound did you hear?","1","","","1","INDUCTION-JUDGMENT","left","1","","","","","","","","","","",""
"html-keyboard-response","137","463428","0.0-4.0-1.0-2.38","3","1","4auu2yok8fxtbk9","","null","","<p style=""color:green;""><b>Correct!</b></p>","","null","","","","","","","","","","","","","","","",""
"audio-keyboard-response","138","464230","0.0-4.0-1.0-0.39","3","1","4auu2yok8fxtbk9","","null","","sounds/induction/right/fu_SWS.wav","","null","","","","","","","","","","","","","","","",""
"html-button-response","139","465723","0.0-4.0-1.0-1.39","3","1","4auu2yok8fxtbk9","","1492","","What sound did you hear?","0","","","1","INDUCTION-JUDGMENT","right","0","","","","","","","","","","",""
"html-keyboard-response","140","466726","0.0-4.0-1.0-2.39","3","1","4auu2yok8fxtbk9","","null","","<p style=""color:green;""><b>Correct!</b></p>","","null","","","","","","","","","","","","","","","",""
"audio-keyboard-response","141","467537","0.0-4.0-1.0-0.40","3","1","4auu2yok8fxtbk9","","null","","sounds/induction/right/fu_SWS.wav","","null","","","","","","","","","","","","","","","",""
"html-button-response","142","468263","0.0-4.0-1.0-1.40","3","1","4auu2yok8fxtbk9","","725.0000000001164","","What sound did you hear?","0","","","1","INDUCTION-JUDGMENT","right","0","","","","","","","","","","",""
"html-keyboard-response","143","469265","0.0-4.0-1.0-2.40","3","1","4auu2yok8fxtbk9","","null","","<p style=""color:green;""><b>Correct!</b></p>","","null","","","","","","","","","","","","","","","",""
"audio-keyboard-response","144","470075","0.0-4.0-1.0-0.41","3","1","4auu2yok8fxtbk9","","null","","sounds/induction/right/me_SWS.wav","","null","","","","","","","","","","","","","","","",""
"html-button-response","145","470826","0.0-4.0-1.0-1.41","3","1","4auu2yok8fxtbk9","","749","","What sound did you hear?","0","","","1","INDUCTION-JUDGMENT","right","0","","","","","","","","","","",""
"html-keyboard-response","146","471829","0.0-4.0-1.0-2.41","3","1","4auu2yok8fxtbk9","","null","","<p style=""color:green;""><b>Correct!</b></p>","","null","","","","","","","","","","","","","","","",""
"audio-keyboard-response","147","472635","0.0-4.0-1.0-0.42","3","1","4auu2yok8fxtbk9","","null","","sounds/induction/left/re_SWS.wav","","null","","","","","","","","","","","","","","","",""
"html-button-response","148","473307","0.0-4.0-1.0-1.42","3","1","4auu2yok8fxtbk9","","670","","What sound did you hear?","0","","","1","INDUCTION-JUDGMENT","left","0","","","","","","","","","","",""
"html-keyboard-response","149","474308","0.0-4.0-1.0-2.42","3","1","4auu2yok8fxtbk9","","null","","<p style=""color:green;""><b>Correct!</b></p>","","null","","","","","","","","","","","","","","","",""
"audio-keyboard-response","150","475110","0.0-4.0-1.0-0.43","3","1","4auu2yok8fxtbk9","","null","","sounds/induction/left/me_SWS.wav","","null","","","","","","","","","","","","","","","",""
"html-button-response","151","476929","0.0-4.0-1.0-1.43","3","1","4auu2yok8fxtbk9","","1818","","What sound did you hear?","1","","","1","INDUCTION-JUDGMENT","left","1","","","","","","","","","","",""
"html-keyboard-response","152","477932","0.0-4.0-1.0-2.43","3","1","4auu2yok8fxtbk9","","null","","<p style=""color:green;""><b>Correct!</b></p>","","null","","","","","","","","","","","","","","","",""
"audio-keyboard-response","153","478736","0.0-4.0-1.0-0.44","3","1","4auu2yok8fxtbk9","","null","","sounds/induction/left/me_SWS.wav","","null","","","","","","","","","","","","","","","",""
"html-button-response","154","480035","0.0-4.0-1.0-1.44","3","1","4auu2yok8fxtbk9","","1297","","What sound did you hear?","1","","","1","INDUCTION-JUDGMENT","left","1","","","","","","","","","","",""
"html-keyboard-response","155","481037","0.0-4.0-1.0-2.44","3","1","4auu2yok8fxtbk9","","null","","<p style=""color:green;""><b>Correct!</b></p>","","null","","","","","","","","","","","","","","","",""
"audio-keyboard-response","156","481840","0.0-4.0-1.0-0.45","3","1","4auu2yok8fxtbk9","","null","","sounds/induction/right/fe_SWS.wav","","null","","","","","","","","","","","","","","","",""
"html-button-response","157","483736","0.0-4.0-1.0-1.45","3","1","4auu2yok8fxtbk9","","1895","","What sound did you hear?","0","","","1","INDUCTION-JUDGMENT","right","0","","","","","","","","","","",""
"html-keyboard-response","158","484739","0.0-4.0-1.0-2.45","3","1","4auu2yok8fxtbk9","","null","","<p style=""color:green;""><b>Correct!</b></p>","","null","","","","","","","","","","","","","","","",""
"audio-keyboard-response","159","485542","0.0-4.0-1.0-0.46","3","1","4auu2yok8fxtbk9","","null","","sounds/induction/left/ge_SWS.wav","","null","","","","","","","","","","","","","","","",""
"html-button-response","160","486703","0.0-4.0-1.0-1.46","3","1","4auu2yok8fxtbk9","","1160","","What sound did you hear?","1","","","1","INDUCTION-JUDGMENT","left","1","","","","","","","","","","",""
"html-keyboard-response","161","487705","0.0-4.0-1.0-2.46","3","1","4auu2yok8fxtbk9","","null","","<p style=""color:green;""><b>Correct!</b></p>","","null","","","","","","","","","","","","","","","",""
"audio-keyboard-response","162","488507","0.0-4.0-1.0-0.47","3","1","4auu2yok8fxtbk9","","null","","sounds/induction/left/pu_SWS.wav","","null","","","","","","","","","","","","","","","",""
"html-button-response","163","489484","0.0-4.0-1.0-1.47","3","1","4auu2yok8fxtbk9","","976","","What sound did you hear?","0","","","1","INDUCTION-JUDGMENT","left","0","","","","","","","","","","",""
"html-keyboard-response","164","490487","0.0-4.0-1.0-2.47","3","1","4auu2yok8fxtbk9","","null","","<p style=""color:green;""><b>Correct!</b></p>","","null","","","","","","","","","","","","","","","",""
"html-button-response","165","504903","0.0-5.0-0.0","3","1","4auu2yok8fxtbk9","","13914","","<p>Thank you for your answers.</p><p>You will now listen to similar sounds. The main difference is that the sounds will be longer and will make up complete sentences.</p><p>Please listen carefully to each sentence. After each sentence, you will be asked to type back what you heard to the best of your ability. After you provide your response, you will be given feedback about the correct answer.</p><p>There are 10 sentences in total.","0","","","","","","","","","","","","","","","","",""
"audio-keyboard-response","166","507493","0.0-5.0-1.0-0.0","3","1","4auu2yok8fxtbk9","","null","","sounds/sentences/left/14_03_cfSWS.wav","","null","","","","","","","","","","","","","","","",""
"sentence-resp","167","526080","0.0-5.0-1.0-1.0","3","1","4auu2yok8fxtbk9","","18584","","","","","","","SWS-SENT-RESPONSE","","","{""Q0"":""I have no idea what I just heard""}","Pluck the bright rose without leaves.","pluck,bright,rose,without,leaves","I HAVE NO IDEA WHAT I JUST HEARD","0","0","0","0","0","0","0"
"html-keyboard-response","168","527334","0.0-5.0-1.0-2.0","3","1","4auu2yok8fxtbk9","","null","","","","null","","","","","","","","","","","","","","","",""
"audio-keyboard-response","169","529424","0.0-5.0-1.0-3.0","3","1","4auu2yok8fxtbk9","","null","","sounds/sentences/left/14_03_cfSWS.wav","","null","","","","","","","","","","","","","","","",""
"html-keyboard-response","170","530426","0.0-5.0-1.0-4.0","3","1","4auu2yok8fxtbk9","","null","","","","null","","","","","","","","","","","","","","","",""
"html-button-response","171","533032","0.0-5.0-1.0-5.0","3","1","4auu2yok8fxtbk9","","2103.0000000001164","","<p>Press the button below when you are ready to continue.</p>","0","","","","","","","","","","","","","","","","",""
"audio-keyboard-response","172","535792","0.0-5.0-1.0-0.1","3","1","4auu2yok8fxtbk9","","null","","sounds/sentences/right/14_08_cfSWS.wav","","null","","","","","","","","","","","","","","","",""
"sentence-resp","173","547857","0.0-5.0-1.0-1.1","3","1","4auu2yok8fxtbk9","","12063","","","","","","","SWS-SENT-RESPONSE","","","{""Q0"":""I hate three newton's law""}","Clothes and lodging are free to new men.","clothes,lodging,free,new,men","I HATE THREE NEWTON'S LAW","0","0","0","0","0","0","0"
"html-keyboard-response","174","549109","0.0-5.0-1.0-2.1","3","1","4auu2yok8fxtbk9","","null","","","","null","","","","","","","","","","","","","","","",""
"audio-keyboard-response","175","551365","0.0-5.0-1.0-3.1","3","1","4auu2yok8fxtbk9","","null","","sounds/sentences/right/14_08_cfSWS.wav","","null","","","","","","","","","","","","","","","",""
"html-keyboard-response","176","552368","0.0-5.0-1.0-4.1","3","1","4auu2yok8fxtbk9","","null","","","","null","","","","","","","","","","","","","","","",""
"html-button-response","177","555098","0.0-5.0-1.0-5.1","3","1","4auu2yok8fxtbk9","","2228","","<p>Press the button below when you are ready to continue.</p>","0","","","","","","","","","","","","","","","","",""
"audio-keyboard-response","178","558096","0.0-5.0-1.0-0.2","3","1","4auu2yok8fxtbk9","","null","","sounds/sentences/left/14_05_cfSWS.wav","","null","","","","","","","","","","","","","","","",""
"sentence-resp","179","584161","0.0-5.0-1.0-1.2","3","1","4auu2yok8fxtbk9","","26064","","","","","","","SWS-SENT-RESPONSE","","","{""Q0"":""your clothes are in the eyes of the sweet girl""}","The glow deepened in the eyes of the sweet girl.","glow,deepened,eyes,sweet,girl","YOUR CLOTHES ARE IN THE EYES OF THE SWEET GIRL","0","0","1","1","1","3","0.6"
"html-keyboard-response","180","585414","0.0-5.0-1.0-2.2","3","1","4auu2yok8fxtbk9","","null","","","","null","","","","","","","","","","","","","","","",""
"audio-keyboard-response","181","587909","0.0-5.0-1.0-3.2","3","1","4auu2yok8fxtbk9","","null","","sounds/sentences/left/14_05_cfSWS.wav","","null","","","","","","","","","","","","","","","",""
"html-keyboard-response","182","588911","0.0-5.0-1.0-4.2","3","1","4auu2yok8fxtbk9","","null","","","","null","","","","","","","","","","","","","","","",""
"html-button-response","183","591893","0.0-5.0-1.0-5.2","3","1","4auu2yok8fxtbk9","","2481","","<p>Press the button below when you are ready to continue.</p>","0","","","","","","","","","","","","","","","","",""
"audio-keyboard-response","184","594776","0.0-5.0-1.0-0.3","3","1","4auu2yok8fxtbk9","","null","","sounds/sentences/right/14_07_cfSWS.wav","","null","","","","","","","","","","","","","","","",""
"sentence-resp","185","606486","0.0-5.0-1.0-1.3","3","1","4auu2yok8fxtbk9","","11709","","","","","","","SWS-SENT-RESPONSE","","","{""Q0"":""my friends refuse to share""}","Write a fond note to the friend you cherish.","write,fond,note,friend,cherish","MY FRIENDS REFUSE TO SHARE","0","0","0","0","0","0","0"
"html-keyboard-response","186","607738","0.0-5.0-1.0-2.3","3","1","4auu2yok8fxtbk9","","null","","","","null","","","","","","","","","","","","","","","",""
"audio-keyboard-response","187","610123","0.0-5.0-1.0-3.3","3","1","4auu2yok8fxtbk9","","null","","sounds/sentences/right/14_07_cfSWS.wav","","null","","","","","","","","","","","","","","","",""
"html-keyboard-response","188","611125","0.0-5.0-1.0-4.3","3","1","4auu2yok8fxtbk9","","null","","","","null","","","","","","","","","","","","","","","",""
"html-button-response","189","613235","0.0-5.0-1.0-5.3","3","1","4auu2yok8fxtbk9","","1608.0000000001164","","<p>Press the button below when you are ready to continue.</p>","0","","","","","","","","","","","","","","","","",""
"audio-keyboard-response","190","615786","0.0-5.0-1.0-0.4","3","1","4auu2yok8fxtbk9","","null","","sounds/sentences/left/14_04_cfSWS.wav","","null","","","","","","","","","","","","","","","",""
"sentence-resp","191","630810","0.0-5.0-1.0-1.4","3","1","4auu2yok8fxtbk9","","15023","","","","","","","SWS-SENT-RESPONSE","","","{""Q0"":""two five seven is less than ten""}","Two plus seven is less than ten.","two,plus,seven,less,ten","TWO FIVE SEVEN IS LESS THAN TEN","1","0","1","1","1","4","0.8"
"html-keyboard-response","192","632064","0.0-5.0-1.0-2.4","3","1","4auu2yok8fxtbk9","","null","","","","null","","","","","","","","","","","","","","","",""
"audio-keyboard-response","193","634121","0.0-5.0-1.0-3.4","3","1","4auu2yok8fxtbk9","","null","","sounds/sentences/left/14_04_cfSWS.wav","","null","","","","","","","","","","","","","","","",""
"html-keyboard-response","194","635124","0.0-5.0-1.0-4.4","3","1","4auu2yok8fxtbk9","","null","","","","null","","","","","","","","","","","","","","","",""
"html-button-response","195","637963","0.0-5.0-1.0-5.4","3","1","4auu2yok8fxtbk9","","2338","","<p>Press the button below when you are ready to continue.</p>","0","","","","","","","","","","","","","","","","",""
"audio-keyboard-response","196","640713","0.0-5.0-1.0-0.5","3","1","4auu2yok8fxtbk9","","null","","sounds/sentences/right/14_06_cfSWS.wav","","null","","","","","","","","","","","","","","","",""
"sentence-resp","197","654167","0.0-5.0-1.0-1.5","3","1","4auu2yok8fxtbk9","","13453","","","","","","","SWS-SENT-RESPONSE","","","{""Q0"":""three meter problems to the wise chief""}","Bring your problems to the wise chief.","bring,your,problems,wise,chief","THREE METER PROBLEMS TO THE WISE CHIEF","0","0","1","1","1","3","0.6"
"html-keyboard-response","198","655420","0.0-5.0-1.0-2.5","3","1","4auu2yok8fxtbk9","","null","","","","null","","","","","","","","","","","","","","","",""
"audio-keyboard-response","199","657673","0.0-5.0-1.0-3.5","3","1","4auu2yok8fxtbk9","","null","","sounds/sentences/right/14_06_cfSWS.wav","","null","","","","","","","","","","","","","","","",""
"html-keyboard-response","200","658675","0.0-5.0-1.0-4.5","3","1","4auu2yok8fxtbk9","","null","","","","null","","","","","","","","","","","","","","","",""
"html-button-response","201","662710","0.0-5.0-1.0-5.5","3","1","4auu2yok8fxtbk9","","3527.0000000001164","","<p>Press the button below when you are ready to continue.</p>","0","","","","","","","","","","","","","","","","",""
"audio-keyboard-response","202","665534","0.0-5.0-1.0-0.6","3","1","4auu2yok8fxtbk9","","null","","sounds/sentences/left/14_02_cfSWS.wav","","null","","","","","","","","","","","","","","","",""
"sentence-resp","203","675859","0.0-5.0-1.0-1.6","3","1","4auu2yok8fxtbk9","","10324","","","","","","","SWS-SENT-RESPONSE","","","{""Q0"":""she said the same phrase 30 times""}","He said the same phrase thirty times.","said,same,phrase,thirty,times","SHE SAID THE SAME PHRASE 30 TIMES","1","1","1","0","1","4","0.8"
"html-keyboard-response","204","677113","0.0-5.0-1.0-2.6","3","1","4auu2yok8fxtbk9","","null","","","","null","","","","","","","","","","","","","","","",""
"audio-keyboard-response","205","679432","0.0-5.0-1.0-3.6","3","1","4auu2yok8fxtbk9","","null","","sounds/sentences/left/14_02_cfSWS.wav","","null","","","","","","","","","","","","","","","",""
"html-keyboard-response","206","680435","0.0-5.0-1.0-4.6","3","1","4auu2yok8fxtbk9","","null","","","","null","","","","","","","","","","","","","","","",""
"html-button-response","207","682776","0.0-5.0-1.0-5.6","3","1","4auu2yok8fxtbk9","","1838","","<p>Press the button below when you are ready to continue.</p>","0","","","","","","","","","","","","","","","","",""
"audio-keyboard-response","208","685896","0.0-5.0-1.0-0.7","3","1","4auu2yok8fxtbk9","","null","","sounds/sentences/left/14_01_cfSWS.wav","","null","","","","","","","","","","","","","","","",""
"sentence-resp","209","700648","0.0-5.0-1.0-1.7","3","1","4auu2yok8fxtbk9","","14750","","","","","","","SWS-SENT-RESPONSE","","","{""Q0"":""he hit his small nose on a dangerous swim""}","A cramp is no small danger on a swim.","cramp,no,small,danger,swim","HE HIT HIS SMALL NOSE ON A DANGEROUS SWIM","0","0","1","0","1","2","0.4"
"html-keyboard-response","210","701900","0.0-5.0-1.0-2.7","3","1","4auu2yok8fxtbk9","","null","","","","null","","","","","","","","","","","","","","","",""
"audio-keyboard-response","211","704520","0.0-5.0-1.0-3.7","3","1","4auu2yok8fxtbk9","","null","","sounds/sentences/left/14_01_cfSWS.wav","","null","","","","","","","","","","","","","","","",""
"html-keyboard-response","212","705522","0.0-5.0-1.0-4.7","3","1","4auu2yok8fxtbk9","","null","","","","null","","","","","","","","","","","","","","","",""
"html-button-response","213","710293","0.0-5.0-1.0-5.7","3","1","4auu2yok8fxtbk9","","4268","","<p>Press the button below when you are ready to continue.</p>","0","","","","","","","","","","","","","","","","",""
"audio-keyboard-response","214","713021","0.0-5.0-1.0-0.8","3","1","4auu2yok8fxtbk9","","null","","sounds/sentences/right/14_09_cfSWS.wav","","null","","","","","","","","","","","","","","","",""
"sentence-resp","215","723582","0.0-5.0-1.0-1.8","3","1","4auu2yok8fxtbk9","","10561","","","","","","","SWS-SENT-RESPONSE","","","{""Q0"":""we frown when events take a bad turn""}","We frown when events take a bad turn.","frown,events,take,bad,turn","WE FROWN WHEN EVENTS TAKE A BAD TURN","1","1","1","1","1","5","1"
"html-keyboard-response","216","724836","0.0-5.0-1.0-2.8","3","1","4auu2yok8fxtbk9","","null","","","","null","","","","","","","","","","","","","","","",""
"audio-keyboard-response","217","727058","0.0-5.0-1.0-3.8","3","1","4auu2yok8fxtbk9","","null","","sounds/sentences/right/14_09_cfSWS.wav","","null","","","","","","","","","","","","","","","",""
"html-keyboard-response","218","728060","0.0-5.0-1.0-4.8","3","1","4auu2yok8fxtbk9","","null","","","","null","","","","","","","","","","","","","","","",""
"html-button-response","219","731957","0.0-5.0-1.0-5.8","3","1","4auu2yok8fxtbk9","","3395","","<p>Press the button below when you are ready to continue.</p>","0","","","","","","","","","","","","","","","","",""
"audio-keyboard-response","220","734973","0.0-5.0-1.0-0.9","3","1","4auu2yok8fxtbk9","","null","","sounds/sentences/right/14_10_cfSWS.wav","","null","","","","","","","","","","","","","","","",""
"sentence-resp","221","756857","0.0-5.0-1.0-1.9","3","1","4auu2yok8fxtbk9","","21883","","","","","","","SWS-SENT-RESPONSE","","","{""Q0"":""four is a strong wine with a smokey taste""}","Port is a strong wine with a smoky taste.","port,strong,wine,smoky,taste","FOUR IS A STRONG WINE WITH A SMOKEY TASTE","0","1","1","0","1","3","0.6"
"html-keyboard-response","222","758110","0.0-5.0-1.0-2.9","3","1","4auu2yok8fxtbk9","","null","","","","null","","","","","","","","","","","","","","","",""
"audio-keyboard-response","223","760626","0.0-5.0-1.0-3.9","3","1","4auu2yok8fxtbk9","","null","","sounds/sentences/right/14_10_cfSWS.wav","","null","","","","","","","","","","","","","","","",""
"html-keyboard-response","224","761628","0.0-5.0-1.0-4.9","3","1","4auu2yok8fxtbk9","","null","","","","null","","","","","","","","","","","","","","","",""
"html-button-response","225","763808","0.0-5.0-1.0-5.9","3","1","4auu2yok8fxtbk9","","1676.9999999998836","","<p>Press the button below when you are ready to continue.</p>","0","","","","","","","","","","","","","","","","",""
"html-keyboard-response","226","785475","0.0-6.0-0.0","3","1","4auu2yok8fxtbk9","","21164","","<p>In this part of the study, you will hear sounds similar to those you just heard.</p><p>Please focus on these sounds, as you may be asked questions about them later.</p><p>Occasionally, the sounds will pause for up to two seconds. When this happens, please press SPACEBAR as quickly as you can.</br>This helps ensure that you are paying attention to the sounds.</p><p>This part of the study will take about 12 minutes to complete, and you will be given the opportunity to take a couple of short breaks every few minutes.</p><p><strong>Press SPACEBAR to begin</strong></p>","","32","","","","","","","","","","","","","","","",""
"html-keyboard-response","227","786477","0.0-6.0-1.0-0.0","3","1","4auu2yok8fxtbk9","","null","","<p style=""font-size: 40px;"">+</p>","","null","","","","","","","","","","","","","","","",""
