"trial_type","trial_index","time_elapsed","internal_node_id","counterbalance","lang_instruct","ParticipantID","view_history","rt","url","stimulus","button_pressed","key_press","correctRESP","correct","designation","location","correctanswer","responses","sentence","keywords","typed_resp","keyword1_acc","keyword2_acc","keyword3_acc","keyword4_acc","keyword5_acc","total_acc","prop_acc"
"pavlovia","0","5","0.0-0.0","2","1","gfb6mlgcondbjt4","","","","","","","","","","","","","","","","","","","","","",""
"instructions","1","114056","0.0-1.0","2","1","gfb6mlgcondbjt4","[{""page_index"":0,""viewing_time"":2696.999999999999},{""page_index"":1,""viewing_time"":111337}]","114053","","","","","","","","","","","","","","","","","","","",""
"external-html","2","118213","0.0-2.0","2","1","gfb6mlgcondbjt4","","4017.9999999999854","consent/consent.html","","","","","","","","","","","","","","","","","","",""
"html-button-response","3","122879","0.0-3.0-0.0-0.0","2","1","gfb6mlgcondbjt4","","4663","","<p>Welcome to the study. You will first complete a short volume calibration and headphone check.</p><p>Please make sure you are in a quiet listening environment, that you are wearing headphones, and that your computer's volume is turned on.<p></p>","0","","","","","","","","","","","","","","","","",""
"html-button-response","4","132803","0.0-3.0-0.0-1.0","2","1","gfb6mlgcondbjt4","","9669","","<p>The volume calibration will be first.</p><p>You will hear a thirty-second noise. Please adjust your computer's volume so that this noise is being presented at a comfortable level.<p></p>","0","","","","","","","","","","","","","","","","",""
"audio-button-response","5","136488","0.0-3.0-0.0-2.0","2","1","gfb6mlgcondbjt4","","3227","","audCalib/volumetest.mp3","0","","","","","","","","","","","","","","","","",""
"html-button-response","6","142136","0.0-3.0-1.0-0.0","2","1","gfb6mlgcondbjt4","","5647.000000000029","","<p>You will now complete a short headphone check.</p><p>On each trial, you will hear three tones. One of these tones will be quieter than the others. Your task is to identify whether the quiet tone occured first, second, or third.</p><p>There are six trials in total.<p></p>","0","","","","","","","","","","","","","","","","",""
"html-keyboard-response","7","142889","0.0-3.0-1.0-1.0-0.0","2","1","gfb6mlgcondbjt4","","null","","<div style=""font-size:60px;"">+</div>","","null","","","","","","","","","","","","","","","",""
"audio-button-response","8","147741","0.0-3.0-1.0-1.0-1.0","2","1","gfb6mlgcondbjt4","","4851","","audCalib/t3_2.mp3","2","","2","1","headphone-test","","","","","","","","","","","","",""
"html-keyboard-response","9","148494","0.0-3.0-1.0-1.0-0.1","2","1","gfb6mlgcondbjt4","","null","","<div style=""font-size:60px;"">+</div>","","null","","","","","","","","","","","","","","","",""
"audio-button-response","10","152989","0.0-3.0-1.0-1.0-1.1","2","1","gfb6mlgcondbjt4","","4493","","audCalib/t2_2.mp3","1","","1","1","headphone-test","","","","","","","","","","","","",""
"html-keyboard-response","11","153741","0.0-3.0-1.0-1.0-0.2","2","1","gfb6mlgcondbjt4","","null","","<div style=""font-size:60px;"">+</div>","","null","","","","","","","","","","","","","","","",""
"audio-button-response","12","158547","0.0-3.0-1.0-1.0-1.2","2","1","gfb6mlgcondbjt4","","4805","","audCalib/t3_1.mp3","2","","2","1","headphone-test","","","","","","","","","","","","",""
"html-keyboard-response","13","159299","0.0-3.0-1.0-1.0-0.3","2","1","gfb6mlgcondbjt4","","null","","<div style=""font-size:60px;"">+</div>","","null","","","","","","","","","","","","","","","",""
"audio-button-response","14","163508","0.0-3.0-1.0-1.0-1.3","2","1","gfb6mlgcondbjt4","","4208","","audCalib/t1_1.mp3","0","","0","1","headphone-test","","","","","","","","","","","","",""
"html-keyboard-response","15","164260","0.0-3.0-1.0-1.0-0.4","2","1","gfb6mlgcondbjt4","","null","","<div style=""font-size:60px;"">+</div>","","null","","","","","","","","","","","","","","","",""
"audio-button-response","16","169115","0.0-3.0-1.0-1.0-1.4","2","1","gfb6mlgcondbjt4","","4856","","audCalib/t1_2.mp3","0","","0","1","headphone-test","","","","","","","","","","","","",""
"html-keyboard-response","17","169867","0.0-3.0-1.0-1.0-0.5","2","1","gfb6mlgcondbjt4","","null","","<div style=""font-size:60px;"">+</div>","","null","","","","","","","","","","","","","","","",""
"audio-button-response","18","173812","0.0-3.0-1.0-1.0-1.5","2","1","gfb6mlgcondbjt4","","3944","","audCalib/t2_1.mp3","1","","1","1","headphone-test","","","","","","","","","","","","",""
"html-button-response","19","175340","0.0-3.0-2.0","2","1","gfb6mlgcondbjt4","","1276","","<p>The volume calibration and headphone check are now complete.</p>","0","","","","","","","","","","","","","","","","",""
"instructions","20","184011","0.0-4.0-0.0","2","1","gfb6mlgcondbjt4","[{""page_index"":0,""viewing_time"":1022},{""page_index"":1,""viewing_time"":5874},{""page_index"":2,""viewing_time"":1774}]","8670","","","","","","","","","","","","","","","","","","","",""
"audio-keyboard-response","21","184312","0.0-4.0-1.0-0.0","2","1","gfb6mlgcondbjt4","","null","","sounds/induction/right/fu_SWS.wav","","null","","","","","","","","","","","","","","","",""
"html-button-response","22","186536","0.0-4.0-1.0-1.0","2","1","gfb6mlgcondbjt4","","2223","","What sound did you hear?","0","","","1","INDUCTION-JUDGMENT","right","0","","","","","","","","","","",""
"html-keyboard-response","23","187538","0.0-4.0-1.0-2.0","2","1","gfb6mlgcondbjt4","","null","","<p style=""color:green;""><b>Correct!</b></p>","","null","","","","","","","","","","","","","","","",""
"audio-keyboard-response","24","188341","0.0-4.0-1.0-0.1","2","1","gfb6mlgcondbjt4","","null","","sounds/induction/right/ko_SWS.wav","","null","","","","","","","","","","","","","","","",""
"html-button-response","25","189709","0.0-4.0-1.0-1.1","2","1","gfb6mlgcondbjt4","","1368","","What sound did you hear?","1","","","0","INDUCTION-JUDGMENT","right","0","","","","","","","","","","",""
"html-keyboard-response","26","190711","0.0-4.0-1.0-2.1","2","1","gfb6mlgcondbjt4","","null","","<p style=""color:red;""><b>Incorrect!</b></p>","","null","","","","","","","","","","","","","","","",""
"audio-keyboard-response","27","191511","0.0-4.0-1.0-0.2","2","1","gfb6mlgcondbjt4","","null","","sounds/induction/left/ko_SWS.wav","","null","","","","","","","","","","","","","","","",""
"html-button-response","28","192692","0.0-4.0-1.0-1.2","2","1","gfb6mlgcondbjt4","","1180","","What sound did you hear?","0","","","0","INDUCTION-JUDGMENT","left","1","","","","","","","","","","",""
"html-keyboard-response","29","193693","0.0-4.0-1.0-2.2","2","1","gfb6mlgcondbjt4","","null","","<p style=""color:red;""><b>Incorrect!</b></p>","","null","","","","","","","","","","","","","","","",""
"audio-keyboard-response","30","194495","0.0-4.0-1.0-0.3","2","1","gfb6mlgcondbjt4","","null","","sounds/induction/left/ru_SWS.wav","","null","","","","","","","","","","","","","","","",""
"html-button-response","31","195741","0.0-4.0-1.0-1.3","2","1","gfb6mlgcondbjt4","","1245","","What sound did you hear?","0","","","1","INDUCTION-JUDGMENT","left","0","","","","","","","","","","",""
"html-keyboard-response","32","196742","0.0-4.0-1.0-2.3","2","1","gfb6mlgcondbjt4","","null","","<p style=""color:green;""><b>Correct!</b></p>","","null","","","","","","","","","","","","","","","",""
"audio-keyboard-response","33","197543","0.0-4.0-1.0-0.4","2","1","gfb6mlgcondbjt4","","null","","sounds/induction/right/fe_SWS.wav","","null","","","","","","","","","","","","","","","",""
"html-button-response","34","198722","0.0-4.0-1.0-1.4","2","1","gfb6mlgcondbjt4","","1178","","What sound did you hear?","0","","","1","INDUCTION-JUDGMENT","right","0","","","","","","","","","","",""
"html-keyboard-response","35","199722","0.0-4.0-1.0-2.4","2","1","gfb6mlgcondbjt4","","null","","<p style=""color:green;""><b>Correct!</b></p>","","null","","","","","","","","","","","","","","","",""
"audio-keyboard-response","36","200522","0.0-4.0-1.0-0.5","2","1","gfb6mlgcondbjt4","","null","","sounds/induction/right/ge_SWS.wav","","null","","","","","","","","","","","","","","","",""
"html-button-response","37","202024","0.0-4.0-1.0-1.5","2","1","gfb6mlgcondbjt4","","1502","","What sound did you hear?","0","","","1","INDUCTION-JUDGMENT","right","0","","","","","","","","","","",""
"html-keyboard-response","38","203024","0.0-4.0-1.0-2.5","2","1","gfb6mlgcondbjt4","","null","","<p style=""color:green;""><b>Correct!</b></p>","","null","","","","","","","","","","","","","","","",""
"audio-keyboard-response","39","203826","0.0-4.0-1.0-0.6","2","1","gfb6mlgcondbjt4","","null","","sounds/induction/left/ta_SWS.wav","","null","","","","","","","","","","","","","","","",""
"html-button-response","40","206544","0.0-4.0-1.0-1.6","2","1","gfb6mlgcondbjt4","","2718","","What sound did you hear?","0","","","1","INDUCTION-JUDGMENT","left","0","","","","","","","","","","",""
"html-keyboard-response","41","207546","0.0-4.0-1.0-2.6","2","1","gfb6mlgcondbjt4","","null","","<p style=""color:green;""><b>Correct!</b></p>","","null","","","","","","","","","","","","","","","",""
"audio-keyboard-response","42","208346","0.0-4.0-1.0-0.7","2","1","gfb6mlgcondbjt4","","null","","sounds/induction/left/su_SWS.wav","","null","","","","","","","","","","","","","","","",""
"html-button-response","43","210852","0.0-4.0-1.0-1.7","2","1","gfb6mlgcondbjt4","","2506","","What sound did you hear?","0","","","1","INDUCTION-JUDGMENT","left","0","","","","","","","","","","",""
"html-keyboard-response","44","211853","0.0-4.0-1.0-2.7","2","1","gfb6mlgcondbjt4","","null","","<p style=""color:green;""><b>Correct!</b></p>","","null","","","","","","","","","","","","","","","",""
"audio-keyboard-response","45","212655","0.0-4.0-1.0-0.8","2","1","gfb6mlgcondbjt4","","null","","sounds/induction/right/me_SWS.wav","","null","","","","","","","","","","","","","","","",""
"html-button-response","46","213925","0.0-4.0-1.0-1.8","2","1","gfb6mlgcondbjt4","","1270","","What sound did you hear?","0","","","1","INDUCTION-JUDGMENT","right","0","","","","","","","","","","",""
"html-keyboard-response","47","214926","0.0-4.0-1.0-2.8","2","1","gfb6mlgcondbjt4","","null","","<p style=""color:green;""><b>Correct!</b></p>","","null","","","","","","","","","","","","","","","",""
"audio-keyboard-response","48","215727","0.0-4.0-1.0-0.9","2","1","gfb6mlgcondbjt4","","null","","sounds/induction/left/ge_SWS.wav","","null","","","","","","","","","","","","","","","",""
"html-button-response","49","216917","0.0-4.0-1.0-1.9","2","1","gfb6mlgcondbjt4","","1190","","What sound did you hear?","0","","","0","INDUCTION-JUDGMENT","left","1","","","","","","","","","","",""
"html-keyboard-response","50","217919","0.0-4.0-1.0-2.9","2","1","gfb6mlgcondbjt4","","null","","<p style=""color:red;""><b>Incorrect!</b></p>","","null","","","","","","","","","","","","","","","",""
"audio-keyboard-response","51","218721","0.0-4.0-1.0-0.10","2","1","gfb6mlgcondbjt4","","null","","sounds/induction/left/me_SWS.wav","","null","","","","","","","","","","","","","","","",""
"html-button-response","52","219974","0.0-4.0-1.0-1.10","2","1","gfb6mlgcondbjt4","","1252","","What sound did you hear?","1","","","1","INDUCTION-JUDGMENT","left","1","","","","","","","","","","",""
"html-keyboard-response","53","220976","0.0-4.0-1.0-2.10","2","1","gfb6mlgcondbjt4","","null","","<p style=""color:green;""><b>Correct!</b></p>","","null","","","","","","","","","","","","","","","",""
"audio-keyboard-response","54","221777","0.0-4.0-1.0-0.11","2","1","gfb6mlgcondbjt4","","null","","sounds/induction/left/re_SWS.wav","","null","","","","","","","","","","","","","","","",""
"html-button-response","55","222720","0.0-4.0-1.0-1.11","2","1","gfb6mlgcondbjt4","","942","","What sound did you hear?","0","","","1","INDUCTION-JUDGMENT","left","0","","","","","","","","","","",""
"html-keyboard-response","56","223721","0.0-4.0-1.0-2.11","2","1","gfb6mlgcondbjt4","","null","","<p style=""color:green;""><b>Correct!</b></p>","","null","","","","","","","","","","","","","","","",""
"audio-keyboard-response","57","224524","0.0-4.0-1.0-0.12","2","1","gfb6mlgcondbjt4","","null","","sounds/induction/left/ta_SWS.wav","","null","","","","","","","","","","","","","","","",""
"html-button-response","58","226154","0.0-4.0-1.0-1.12","2","1","gfb6mlgcondbjt4","","1630","","What sound did you hear?","0","","","1","INDUCTION-JUDGMENT","left","0","","","","","","","","","","",""
"html-keyboard-response","59","227156","0.0-4.0-1.0-2.12","2","1","gfb6mlgcondbjt4","","null","","<p style=""color:green;""><b>Correct!</b></p>","","null","","","","","","","","","","","","","","","",""
"audio-keyboard-response","60","227958","0.0-4.0-1.0-0.13","2","1","gfb6mlgcondbjt4","","null","","sounds/induction/right/re_SWS.wav","","null","","","","","","","","","","","","","","","",""
"html-button-response","61","229005","0.0-4.0-1.0-1.13","2","1","gfb6mlgcondbjt4","","1046","","What sound did you hear?","0","","","0","INDUCTION-JUDGMENT","right","1","","","","","","","","","","",""
"html-keyboard-response","62","230006","0.0-4.0-1.0-2.13","2","1","gfb6mlgcondbjt4","","null","","<p style=""color:red;""><b>Incorrect!</b></p>","","null","","","","","","","","","","","","","","","",""
"audio-keyboard-response","63","230809","0.0-4.0-1.0-0.14","2","1","gfb6mlgcondbjt4","","null","","sounds/induction/left/su_SWS.wav","","null","","","","","","","","","","","","","","","",""
"html-button-response","64","231711","0.0-4.0-1.0-1.14","2","1","gfb6mlgcondbjt4","","901.0000000000291","","What sound did you hear?","0","","","1","INDUCTION-JUDGMENT","left","0","","","","","","","","","","",""
"html-keyboard-response","65","232713","0.0-4.0-1.0-2.14","2","1","gfb6mlgcondbjt4","","null","","<p style=""color:green;""><b>Correct!</b></p>","","null","","","","","","","","","","","","","","","",""
"audio-keyboard-response","66","233516","0.0-4.0-1.0-0.15","2","1","gfb6mlgcondbjt4","","null","","sounds/induction/right/pu_SWS.wav","","null","","","","","","","","","","","","","","","",""
"html-button-response","67","234359","0.0-4.0-1.0-1.15","2","1","gfb6mlgcondbjt4","","843","","What sound did you hear?","1","","","1","INDUCTION-JUDGMENT","right","1","","","","","","","","","","",""
"html-keyboard-response","68","235361","0.0-4.0-1.0-2.15","2","1","gfb6mlgcondbjt4","","null","","<p style=""color:green;""><b>Correct!</b></p>","","null","","","","","","","","","","","","","","","",""
"audio-keyboard-response","69","236164","0.0-4.0-1.0-0.16","2","1","gfb6mlgcondbjt4","","null","","sounds/induction/left/pu_SWS.wav","","null","","","","","","","","","","","","","","","",""
"html-button-response","70","236828","0.0-4.0-1.0-1.16","2","1","gfb6mlgcondbjt4","","663.9999999999709","","What sound did you hear?","0","","","1","INDUCTION-JUDGMENT","left","0","","","","","","","","","","",""
"html-keyboard-response","71","237830","0.0-4.0-1.0-2.16","2","1","gfb6mlgcondbjt4","","null","","<p style=""color:green;""><b>Correct!</b></p>","","null","","","","","","","","","","","","","","","",""
"audio-keyboard-response","72","238633","0.0-4.0-1.0-0.17","2","1","gfb6mlgcondbjt4","","null","","sounds/induction/right/me_SWS.wav","","null","","","","","","","","","","","","","","","",""
"html-button-response","73","239459","0.0-4.0-1.0-1.17","2","1","gfb6mlgcondbjt4","","825.9999999999709","","What sound did you hear?","1","","","0","INDUCTION-JUDGMENT","right","0","","","","","","","","","","",""
"html-keyboard-response","74","240461","0.0-4.0-1.0-2.17","2","1","gfb6mlgcondbjt4","","null","","<p style=""color:red;""><b>Incorrect!</b></p>","","null","","","","","","","","","","","","","","","",""
"audio-keyboard-response","75","241262","0.0-4.0-1.0-0.18","2","1","gfb6mlgcondbjt4","","null","","sounds/induction/right/ta_SWS.wav","","null","","","","","","","","","","","","","","","",""
"html-button-response","76","241911","0.0-4.0-1.0-1.18","2","1","gfb6mlgcondbjt4","","649","","What sound did you hear?","0","","","0","INDUCTION-JUDGMENT","right","1","","","","","","","","","","",""
"html-keyboard-response","77","242913","0.0-4.0-1.0-2.18","2","1","gfb6mlgcondbjt4","","null","","<p style=""color:red;""><b>Incorrect!</b></p>","","null","","","","","","","","","","","","","","","",""
"audio-keyboard-response","78","243715","0.0-4.0-1.0-0.19","2","1","gfb6mlgcondbjt4","","null","","sounds/induction/right/ni_SWS.wav","","null","","","","","","","","","","","","","","","",""
"html-button-response","79","244861","0.0-4.0-1.0-1.19","2","1","gfb6mlgcondbjt4","","1145","","What sound did you hear?","0","","","1","INDUCTION-JUDGMENT","right","0","","","","","","","","","","",""
"html-keyboard-response","80","245862","0.0-4.0-1.0-2.19","2","1","gfb6mlgcondbjt4","","null","","<p style=""color:green;""><b>Correct!</b></p>","","null","","","","","","","","","","","","","","","",""
"audio-keyboard-response","81","246665","0.0-4.0-1.0-0.20","2","1","gfb6mlgcondbjt4","","null","","sounds/induction/right/fe_SWS.wav","","null","","","","","","","","","","","","","","","",""
"html-button-response","82","247371","0.0-4.0-1.0-1.20","2","1","gfb6mlgcondbjt4","","706.0000000000291","","What sound did you hear?","0","","","1","INDUCTION-JUDGMENT","right","0","","","","","","","","","","",""
"html-keyboard-response","83","248373","0.0-4.0-1.0-2.20","2","1","gfb6mlgcondbjt4","","null","","<p style=""color:green;""><b>Correct!</b></p>","","null","","","","","","","","","","","","","","","",""
"audio-keyboard-response","84","249174","0.0-4.0-1.0-0.21","2","1","gfb6mlgcondbjt4","","null","","sounds/induction/left/ge_SWS.wav","","null","","","","","","","","","","","","","","","",""
"html-button-response","85","249855","0.0-4.0-1.0-1.21","2","1","gfb6mlgcondbjt4","","681.0000000000582","","What sound did you hear?","0","","","0","INDUCTION-JUDGMENT","left","1","","","","","","","","","","",""
"html-keyboard-response","86","250857","0.0-4.0-1.0-2.21","2","1","gfb6mlgcondbjt4","","null","","<p style=""color:red;""><b>Incorrect!</b></p>","","null","","","","","","","","","","","","","","","",""
"audio-keyboard-response","87","251659","0.0-4.0-1.0-0.22","2","1","gfb6mlgcondbjt4","","null","","sounds/induction/right/re_SWS.wav","","null","","","","","","","","","","","","","","","",""
"html-button-response","88","252373","0.0-4.0-1.0-1.22","2","1","gfb6mlgcondbjt4","","714","","What sound did you hear?","1","","","1","INDUCTION-JUDGMENT","right","1","","","","","","","","","","",""
"html-keyboard-response","89","253374","0.0-4.0-1.0-2.22","2","1","gfb6mlgcondbjt4","","null","","<p style=""color:green;""><b>Correct!</b></p>","","null","","","","","","","","","","","","","","","",""
"audio-keyboard-response","90","254176","0.0-4.0-1.0-0.23","2","1","gfb6mlgcondbjt4","","null","","sounds/induction/right/ta_SWS.wav","","null","","","","","","","","","","","","","","","",""
"html-button-response","91","255299","0.0-4.0-1.0-1.23","2","1","gfb6mlgcondbjt4","","1120.999999999971","","What sound did you hear?","1","","","1","INDUCTION-JUDGMENT","right","1","","","","","","","","","","",""
"html-keyboard-response","92","256300","0.0-4.0-1.0-2.23","2","1","gfb6mlgcondbjt4","","null","","<p style=""color:green;""><b>Correct!</b></p>","","null","","","","","","","","","","","","","","","",""
"audio-keyboard-response","93","257102","0.0-4.0-1.0-0.24","2","1","gfb6mlgcondbjt4","","null","","sounds/induction/left/pu_SWS.wav","","null","","","","","","","","","","","","","","","",""
"html-button-response","94","257921","0.0-4.0-1.0-1.24","2","1","gfb6mlgcondbjt4","","819","","What sound did you hear?","0","","","1","INDUCTION-JUDGMENT","left","0","","","","","","","","","","",""
"html-keyboard-response","95","258923","0.0-4.0-1.0-2.24","2","1","gfb6mlgcondbjt4","","null","","<p style=""color:green;""><b>Correct!</b></p>","","null","","","","","","","","","","","","","","","",""
"audio-keyboard-response","96","259725","0.0-4.0-1.0-0.25","2","1","gfb6mlgcondbjt4","","null","","sounds/induction/left/ni_SWS.wav","","null","","","","","","","","","","","","","","","",""
"html-button-response","97","261028","0.0-4.0-1.0-1.25","2","1","gfb6mlgcondbjt4","","1302","","What sound did you hear?","0","","","0","INDUCTION-JUDGMENT","left","1","","","","","","","","","","",""
"html-keyboard-response","98","262029","0.0-4.0-1.0-2.25","2","1","gfb6mlgcondbjt4","","null","","<p style=""color:red;""><b>Incorrect!</b></p>","","null","","","","","","","","","","","","","","","",""
"audio-keyboard-response","99","262832","0.0-4.0-1.0-0.26","2","1","gfb6mlgcondbjt4","","null","","sounds/induction/left/fe_SWS.wav","","null","","","","","","","","","","","","","","","",""
"html-button-response","100","263595","0.0-4.0-1.0-1.26","2","1","gfb6mlgcondbjt4","","761.9999999999418","","What sound did you hear?","0","","","0","INDUCTION-JUDGMENT","left","1","","","","","","","","","","",""
"html-keyboard-response","101","264597","0.0-4.0-1.0-2.26","2","1","gfb6mlgcondbjt4","","null","","<p style=""color:red;""><b>Incorrect!</b></p>","","null","","","","","","","","","","","","","","","",""
"audio-keyboard-response","102","265397","0.0-4.0-1.0-0.27","2","1","gfb6mlgcondbjt4","","null","","sounds/induction/right/su_SWS.wav","","null","","","","","","","","","","","","","","","",""
"html-button-response","103","266766","0.0-4.0-1.0-1.27","2","1","gfb6mlgcondbjt4","","1367.9999999999418","","What sound did you hear?","1","","","1","INDUCTION-JUDGMENT","right","1","","","","","","","","","","",""
"html-keyboard-response","104","267767","0.0-4.0-1.0-2.27","2","1","gfb6mlgcondbjt4","","null","","<p style=""color:green;""><b>Correct!</b></p>","","null","","","","","","","","","","","","","","","",""
"audio-keyboard-response","105","268568","0.0-4.0-1.0-0.28","2","1","gfb6mlgcondbjt4","","null","","sounds/induction/left/ti_SWS.wav","","null","","","","","","","","","","","","","","","",""
"html-button-response","106","270019","0.0-4.0-1.0-1.28","2","1","gfb6mlgcondbjt4","","1451","","What sound did you hear?","0","","","1","INDUCTION-JUDGMENT","left","0","","","","","","","","","","",""
"html-keyboard-response","107","271020","0.0-4.0-1.0-2.28","2","1","gfb6mlgcondbjt4","","null","","<p style=""color:green;""><b>Correct!</b></p>","","null","","","","","","","","","","","","","","","",""
"audio-keyboard-response","108","271821","0.0-4.0-1.0-0.29","2","1","gfb6mlgcondbjt4","","null","","sounds/induction/left/me_SWS.wav","","null","","","","","","","","","","","","","","","",""
"html-button-response","109","272658","0.0-4.0-1.0-1.29","2","1","gfb6mlgcondbjt4","","837","","What sound did you hear?","1","","","1","INDUCTION-JUDGMENT","left","1","","","","","","","","","","",""
"html-keyboard-response","110","273660","0.0-4.0-1.0-2.29","2","1","gfb6mlgcondbjt4","","null","","<p style=""color:green;""><b>Correct!</b></p>","","null","","","","","","","","","","","","","","","",""
"audio-keyboard-response","111","274461","0.0-4.0-1.0-0.30","2","1","gfb6mlgcondbjt4","","null","","sounds/induction/right/su_SWS.wav","","null","","","","","","","","","","","","","","","",""
"html-button-response","112","275045","0.0-4.0-1.0-1.30","2","1","gfb6mlgcondbjt4","","584","","What sound did you hear?","1","","","1","INDUCTION-JUDGMENT","right","1","","","","","","","","","","",""
"html-keyboard-response","113","276047","0.0-4.0-1.0-2.30","2","1","gfb6mlgcondbjt4","","null","","<p style=""color:green;""><b>Correct!</b></p>","","null","","","","","","","","","","","","","","","",""
"audio-keyboard-response","114","276848","0.0-4.0-1.0-0.31","2","1","gfb6mlgcondbjt4","","null","","sounds/induction/left/fu_SWS.wav","","null","","","","","","","","","","","","","","","",""
"html-button-response","115","277539","0.0-4.0-1.0-1.31","2","1","gfb6mlgcondbjt4","","691","","What sound did you hear?","0","","","0","INDUCTION-JUDGMENT","left","1","","","","","","","","","","",""
"html-keyboard-response","116","278540","0.0-4.0-1.0-2.31","2","1","gfb6mlgcondbjt4","","null","","<p style=""color:red;""><b>Incorrect!</b></p>","","null","","","","","","","","","","","","","","","",""
"audio-keyboard-response","117","279341","0.0-4.0-1.0-0.32","2","1","gfb6mlgcondbjt4","","null","","sounds/induction/left/ni_SWS.wav","","null","","","","","","","","","","","","","","","",""
"html-button-response","118","280726","0.0-4.0-1.0-1.32","2","1","gfb6mlgcondbjt4","","1385","","What sound did you hear?","1","","","1","INDUCTION-JUDGMENT","left","1","","","","","","","","","","",""
"html-keyboard-response","119","281728","0.0-4.0-1.0-2.32","2","1","gfb6mlgcondbjt4","","null","","<p style=""color:green;""><b>Correct!</b></p>","","null","","","","","","","","","","","","","","","",""
"audio-keyboard-response","120","282530","0.0-4.0-1.0-0.33","2","1","gfb6mlgcondbjt4","","null","","sounds/induction/right/fu_SWS.wav","","null","","","","","","","","","","","","","","","",""
"html-button-response","121","283406","0.0-4.0-1.0-1.33","2","1","gfb6mlgcondbjt4","","876","","What sound did you hear?","0","","","1","INDUCTION-JUDGMENT","right","0","","","","","","","","","","",""
"html-keyboard-response","122","284408","0.0-4.0-1.0-2.33","2","1","gfb6mlgcondbjt4","","null","","<p style=""color:green;""><b>Correct!</b></p>","","null","","","","","","","","","","","","","","","",""
"audio-keyboard-response","123","285210","0.0-4.0-1.0-0.34","2","1","gfb6mlgcondbjt4","","null","","sounds/induction/right/pu_SWS.wav","","null","","","","","","","","","","","","","","","",""
"html-button-response","124","286291","0.0-4.0-1.0-1.34","2","1","gfb6mlgcondbjt4","","1081","","What sound did you hear?","1","","","1","INDUCTION-JUDGMENT","right","1","","","","","","","","","","",""
"html-keyboard-response","125","287293","0.0-4.0-1.0-2.34","2","1","gfb6mlgcondbjt4","","null","","<p style=""color:green;""><b>Correct!</b></p>","","null","","","","","","","","","","","","","","","",""
"audio-keyboard-response","126","288095","0.0-4.0-1.0-0.35","2","1","gfb6mlgcondbjt4","","null","","sounds/induction/right/ko_SWS.wav","","null","","","","","","","","","","","","","","","",""
"html-button-response","127","288834","0.0-4.0-1.0-1.35","2","1","gfb6mlgcondbjt4","","738","","What sound did you hear?","1","","","0","INDUCTION-JUDGMENT","right","0","","","","","","","","","","",""
"html-keyboard-response","128","289835","0.0-4.0-1.0-2.35","2","1","gfb6mlgcondbjt4","","null","","<p style=""color:red;""><b>Incorrect!</b></p>","","null","","","","","","","","","","","","","","","",""
"audio-keyboard-response","129","290637","0.0-4.0-1.0-0.36","2","1","gfb6mlgcondbjt4","","null","","sounds/induction/left/re_SWS.wav","","null","","","","","","","","","","","","","","","",""
"html-button-response","130","291686","0.0-4.0-1.0-1.36","2","1","gfb6mlgcondbjt4","","1049","","What sound did you hear?","0","","","1","INDUCTION-JUDGMENT","left","0","","","","","","","","","","",""
"html-keyboard-response","131","292687","0.0-4.0-1.0-2.36","2","1","gfb6mlgcondbjt4","","null","","<p style=""color:green;""><b>Correct!</b></p>","","null","","","","","","","","","","","","","","","",""
"audio-keyboard-response","132","293490","0.0-4.0-1.0-0.37","2","1","gfb6mlgcondbjt4","","null","","sounds/induction/right/ru_SWS.wav","","null","","","","","","","","","","","","","","","",""
"html-button-response","133","294334","0.0-4.0-1.0-1.37","2","1","gfb6mlgcondbjt4","","844","","What sound did you hear?","1","","","1","INDUCTION-JUDGMENT","right","1","","","","","","","","","","",""
"html-keyboard-response","134","295336","0.0-4.0-1.0-2.37","2","1","gfb6mlgcondbjt4","","null","","<p style=""color:green;""><b>Correct!</b></p>","","null","","","","","","","","","","","","","","","",""
"audio-keyboard-response","135","296138","0.0-4.0-1.0-0.38","2","1","gfb6mlgcondbjt4","","null","","sounds/induction/right/ti_SWS.wav","","null","","","","","","","","","","","","","","","",""
"html-button-response","136","296908","0.0-4.0-1.0-1.38","2","1","gfb6mlgcondbjt4","","770","","What sound did you hear?","1","","","1","INDUCTION-JUDGMENT","right","1","","","","","","","","","","",""
"html-keyboard-response","137","297910","0.0-4.0-1.0-2.38","2","1","gfb6mlgcondbjt4","","null","","<p style=""color:green;""><b>Correct!</b></p>","","null","","","","","","","","","","","","","","","",""
"audio-keyboard-response","138","298711","0.0-4.0-1.0-0.39","2","1","gfb6mlgcondbjt4","","null","","sounds/induction/right/ru_SWS.wav","","null","","","","","","","","","","","","","","","",""
"html-button-response","139","299450","0.0-4.0-1.0-1.39","2","1","gfb6mlgcondbjt4","","738","","What sound did you hear?","1","","","1","INDUCTION-JUDGMENT","right","1","","","","","","","","","","",""
"html-keyboard-response","140","300452","0.0-4.0-1.0-2.39","2","1","gfb6mlgcondbjt4","","null","","<p style=""color:green;""><b>Correct!</b></p>","","null","","","","","","","","","","","","","","","",""
"audio-keyboard-response","141","301252","0.0-4.0-1.0-0.40","2","1","gfb6mlgcondbjt4","","null","","sounds/induction/left/ko_SWS.wav","","null","","","","","","","","","","","","","","","",""
"html-button-response","142","302416","0.0-4.0-1.0-1.40","2","1","gfb6mlgcondbjt4","","1163","","What sound did you hear?","1","","","1","INDUCTION-JUDGMENT","left","1","","","","","","","","","","",""
"html-keyboard-response","143","303418","0.0-4.0-1.0-2.40","2","1","gfb6mlgcondbjt4","","null","","<p style=""color:green;""><b>Correct!</b></p>","","null","","","","","","","","","","","","","","","",""
"audio-keyboard-response","144","304220","0.0-4.0-1.0-0.41","2","1","gfb6mlgcondbjt4","","null","","sounds/induction/left/fu_SWS.wav","","null","","","","","","","","","","","","","","","",""
"html-button-response","145","304966","0.0-4.0-1.0-1.41","2","1","gfb6mlgcondbjt4","","745","","What sound did you hear?","1","","","1","INDUCTION-JUDGMENT","left","1","","","","","","","","","","",""
"html-keyboard-response","146","305967","0.0-4.0-1.0-2.41","2","1","gfb6mlgcondbjt4","","null","","<p style=""color:green;""><b>Correct!</b></p>","","null","","","","","","","","","","","","","","","",""
"audio-keyboard-response","147","306769","0.0-4.0-1.0-0.42","2","1","gfb6mlgcondbjt4","","null","","sounds/induction/left/ru_SWS.wav","","null","","","","","","","","","","","","","","","",""
"html-button-response","148","307558","0.0-4.0-1.0-1.42","2","1","gfb6mlgcondbjt4","","788.0000000000582","","What sound did you hear?","0","","","1","INDUCTION-JUDGMENT","left","0","","","","","","","","","","",""
"html-keyboard-response","149","308559","0.0-4.0-1.0-2.42","2","1","gfb6mlgcondbjt4","","null","","<p style=""color:green;""><b>Correct!</b></p>","","null","","","","","","","","","","","","","","","",""
"audio-keyboard-response","150","309361","0.0-4.0-1.0-0.43","2","1","gfb6mlgcondbjt4","","null","","sounds/induction/left/ti_SWS.wav","","null","","","","","","","","","","","","","","","",""
"html-button-response","151","311008","0.0-4.0-1.0-1.43","2","1","gfb6mlgcondbjt4","","1646","","What sound did you hear?","0","","","1","INDUCTION-JUDGMENT","left","0","","","","","","","","","","",""
"html-keyboard-response","152","312009","0.0-4.0-1.0-2.43","2","1","gfb6mlgcondbjt4","","null","","<p style=""color:green;""><b>Correct!</b></p>","","null","","","","","","","","","","","","","","","",""
"audio-keyboard-response","153","312812","0.0-4.0-1.0-0.44","2","1","gfb6mlgcondbjt4","","null","","sounds/induction/left/fe_SWS.wav","","null","","","","","","","","","","","","","","","",""
"html-button-response","154","313640","0.0-4.0-1.0-1.44","2","1","gfb6mlgcondbjt4","","827","","What sound did you hear?","0","","","0","INDUCTION-JUDGMENT","left","1","","","","","","","","","","",""
"html-keyboard-response","155","314641","0.0-4.0-1.0-2.44","2","1","gfb6mlgcondbjt4","","null","","<p style=""color:red;""><b>Incorrect!</b></p>","","null","","","","","","","","","","","","","","","",""
"audio-keyboard-response","156","315444","0.0-4.0-1.0-0.45","2","1","gfb6mlgcondbjt4","","null","","sounds/induction/right/ge_SWS.wav","","null","","","","","","","","","","","","","","","",""
"html-button-response","157","316229","0.0-4.0-1.0-1.45","2","1","gfb6mlgcondbjt4","","784.9999999999418","","What sound did you hear?","1","","","0","INDUCTION-JUDGMENT","right","0","","","","","","","","","","",""
"html-keyboard-response","158","317231","0.0-4.0-1.0-2.45","2","1","gfb6mlgcondbjt4","","null","","<p style=""color:red;""><b>Incorrect!</b></p>","","null","","","","","","","","","","","","","","","",""
"audio-keyboard-response","159","318033","0.0-4.0-1.0-0.46","2","1","gfb6mlgcondbjt4","","null","","sounds/induction/right/ti_SWS.wav","","null","","","","","","","","","","","","","","","",""
"html-button-response","160","318747","0.0-4.0-1.0-1.46","2","1","gfb6mlgcondbjt4","","714","","What sound did you hear?","0","","","0","INDUCTION-JUDGMENT","right","1","","","","","","","","","","",""
"html-keyboard-response","161","319749","0.0-4.0-1.0-2.46","2","1","gfb6mlgcondbjt4","","null","","<p style=""color:red;""><b>Incorrect!</b></p>","","null","","","","","","","","","","","","","","","",""
"audio-keyboard-response","162","320550","0.0-4.0-1.0-0.47","2","1","gfb6mlgcondbjt4","","null","","sounds/induction/right/ni_SWS.wav","","null","","","","","","","","","","","","","","","",""
"html-button-response","163","321525","0.0-4.0-1.0-1.47","2","1","gfb6mlgcondbjt4","","974","","What sound did you hear?","0","","","1","INDUCTION-JUDGMENT","right","0","","","","","","","","","","",""
"html-keyboard-response","164","322526","0.0-4.0-1.0-2.47","2","1","gfb6mlgcondbjt4","","null","","<p style=""color:green;""><b>Correct!</b></p>","","null","","","","","","","","","","","","","","","",""
"html-button-response","165","332401","0.0-5.0-0.0","2","1","gfb6mlgcondbjt4","","9374","","<p>Thank you for your answers.</p><p>You will now listen to similar sounds. The main difference is that the sounds will be longer and will make up complete sentences.</p><p>Please listen carefully to each sentence. After each sentence, you will be asked to type back what you heard to the best of your ability. After you provide your response, you will be given feedback about the correct answer.</p><p>There are 10 sentences in total.","0","","","","","","","","","","","","","","","","",""
"audio-keyboard-response","166","335390","0.0-5.0-1.0-0.0","2","1","gfb6mlgcondbjt4","","null","","sounds/sentences/left/14_05_cfSWS.wav","","null","","","","","","","","","","","","","","","",""
"sentence-resp","167","349912","0.0-5.0-1.0-1.0","2","1","gfb6mlgcondbjt4","","14520","","","","","","","SWS-SENT-RESPONSE","","","{""Q0"":""eioueeieou""}","The glow deepened in the eyes of the sweet girl.","glow,deepened,eyes,sweet,girl","EIOUEEIEOU","0","0","0","0","0","0","0"
"html-keyboard-response","168","351166","0.0-5.0-1.0-2.0","2","1","gfb6mlgcondbjt4","","null","","","","null","","","","","","","","","","","","","","","",""
"audio-keyboard-response","169","353654","0.0-5.0-1.0-3.0","2","1","gfb6mlgcondbjt4","","null","","sounds/sentences/left/14_05_cfSWS.wav","","null","","","","","","","","","","","","","","","",""
"html-keyboard-response","170","354655","0.0-5.0-1.0-4.0","2","1","gfb6mlgcondbjt4","","null","","","","null","","","","","","","","","","","","","","","",""
"html-button-response","171","357193","0.0-5.0-1.0-5.0","2","1","gfb6mlgcondbjt4","","2036","","<p>Press the button below when you are ready to continue.</p>","0","","","","","","","","","","","","","","","","",""
"audio-keyboard-response","172","359747","0.0-5.0-1.0-0.1","2","1","gfb6mlgcondbjt4","","null","","sounds/sentences/left/14_04_cfSWS.wav","","null","","","","","","","","","","","","","","","",""
"sentence-resp","173","368223","0.0-5.0-1.0-1.1","2","1","gfb6mlgcondbjt4","","8476","","","","","","","SWS-SENT-RESPONSE","","","{""Q0"":""you are seventy less than ten""}","Two plus seven is less than ten.","two,plus,seven,less,ten","YOU ARE SEVENTY LESS THAN TEN","0","0","0","1","1","2","0.4"
"html-keyboard-response","174","369475","0.0-5.0-1.0-2.1","2","1","gfb6mlgcondbjt4","","null","","","","null","","","","","","","","","","","","","","","",""
"audio-keyboard-response","175","371528","0.0-5.0-1.0-3.1","2","1","gfb6mlgcondbjt4","","null","","sounds/sentences/left/14_04_cfSWS.wav","","null","","","","","","","","","","","","","","","",""
"html-keyboard-response","176","372529","0.0-5.0-1.0-4.1","2","1","gfb6mlgcondbjt4","","null","","","","null","","","","","","","","","","","","","","","",""
"html-button-response","177","373862","0.0-5.0-1.0-5.1","2","1","gfb6mlgcondbjt4","","831","","<p>Press the button below when you are ready to continue.</p>","0","","","","","","","","","","","","","","","","",""
"audio-keyboard-response","178","376605","0.0-5.0-1.0-0.2","2","1","gfb6mlgcondbjt4","","null","","sounds/sentences/right/14_06_cfSWS.wav","","null","","","","","","","","","","","","","","","",""
"sentence-resp","179","385013","0.0-5.0-1.0-1.2","2","1","gfb6mlgcondbjt4","","8408","","","","","","","SWS-SENT-RESPONSE","","","{""Q0"":""bring your problems to the wise chief""}","Bring your problems to the wise chief.","bring,your,problems,wise,chief","BRING YOUR PROBLEMS TO THE WISE CHIEF","1","1","1","1","1","5","1"
"html-keyboard-response","180","386265","0.0-5.0-1.0-2.2","2","1","gfb6mlgcondbjt4","","null","","","","null","","","","","","","","","","","","","","","",""
"audio-keyboard-response","181","388506","0.0-5.0-1.0-3.2","2","1","gfb6mlgcondbjt4","","null","","sounds/sentences/right/14_06_cfSWS.wav","","null","","","","","","","","","","","","","","","",""
"html-keyboard-response","182","389506","0.0-5.0-1.0-4.2","2","1","gfb6mlgcondbjt4","","null","","","","null","","","","","","","","","","","","","","","",""
"html-button-response","183","390862","0.0-5.0-1.0-5.2","2","1","gfb6mlgcondbjt4","","853.9999999999418","","<p>Press the button below when you are ready to continue.</p>","0","","","","","","","","","","","","","","","","",""
"audio-keyboard-response","184","393679","0.0-5.0-1.0-0.3","2","1","gfb6mlgcondbjt4","","null","","sounds/sentences/left/14_02_cfSWS.wav","","null","","","","","","","","","","","","","","","",""
"sentence-resp","185","405157","0.0-5.0-1.0-1.3","2","1","gfb6mlgcondbjt4","","11478","","","","","","","SWS-SENT-RESPONSE","","","{""Q0"":""he said the same phrase 30 times\n""}","He said the same phrase thirty times.","said,same,phrase,thirty,times","HE SAID THE SAME PHRASE 30 TIMES ","1","1","1","0","1","4","0.8"
"html-keyboard-response","186","406409","0.0-5.0-1.0-2.3","2","1","gfb6mlgcondbjt4","","null","","","","null","","","","","","","","","","","","","","","",""
"audio-keyboard-response","187","408724","0.0-5.0-1.0-3.3","2","1","gfb6mlgcondbjt4","","null","","sounds/sentences/left/14_02_cfSWS.wav","","null","","","","","","","","","","","","","","","",""
"html-keyboard-response","188","409726","0.0-5.0-1.0-4.3","2","1","gfb6mlgcondbjt4","","null","","","","null","","","","","","","","","","","","","","","",""
"html-button-response","189","410991","0.0-5.0-1.0-5.3","2","1","gfb6mlgcondbjt4","","764","","<p>Press the button below when you are ready to continue.</p>","0","","","","","","","","","","","","","","","","",""
"audio-keyboard-response","190","414006","0.0-5.0-1.0-0.4","2","1","gfb6mlgcondbjt4","","null","","sounds/sentences/right/14_10_cfSWS.wav","","null","","","","","","","","","","","","","","","",""
"sentence-resp","191","422827","0.0-5.0-1.0-1.4","2","1","gfb6mlgcondbjt4","","8819","","","","","","","SWS-SENT-RESPONSE","","","{""Q0"":""ford is a strong lime with a smoky taste\n""}","Port is a strong wine with a smoky taste.","port,strong,wine,smoky,taste","FORD IS A STRONG LIME WITH A SMOKY TASTE ","0","1","0","1","1","3","0.6"
"html-keyboard-response","192","424078","0.0-5.0-1.0-2.4","2","1","gfb6mlgcondbjt4","","null","","","","null","","","","","","","","","","","","","","","",""
"audio-keyboard-response","193","426593","0.0-5.0-1.0-3.4","2","1","gfb6mlgcondbjt4","","null","","sounds/sentences/right/14_10_cfSWS.wav","","null","","","","","","","","","","","","","","","",""
"html-keyboard-response","194","427595","0.0-5.0-1.0-4.4","2","1","gfb6mlgcondbjt4","","null","","","","null","","","","","","","","","","","","","","","",""
"html-button-response","195","429293","0.0-5.0-1.0-5.4","2","1","gfb6mlgcondbjt4","","1197","","<p>Press the button below when you are ready to continue.</p>","0","","","","","","","","","","","","","","","","",""
"audio-keyboard-response","196","432409","0.0-5.0-1.0-0.5","2","1","gfb6mlgcondbjt4","","null","","sounds/sentences/left/14_01_cfSWS.wav","","null","","","","","","","","","","","","","","","",""
"sentence-resp","197","442767","0.0-5.0-1.0-1.5","2","1","gfb6mlgcondbjt4","","10357","","","","","","","SWS-SENT-RESPONSE","","","{""Q0"":""he grabbed his nose small danger to know how to swim""}","A cramp is no small danger on a swim.","cramp,no,small,danger,swim","HE GRABBED HIS NOSE SMALL DANGER TO KNOW HOW TO SWIM","0","0","1","1","1","3","0.6"
"html-keyboard-response","198","444019","0.0-5.0-1.0-2.5","2","1","gfb6mlgcondbjt4","","null","","","","null","","","","","","","","","","","","","","","",""
"audio-keyboard-response","199","446635","0.0-5.0-1.0-3.5","2","1","gfb6mlgcondbjt4","","null","","sounds/sentences/left/14_01_cfSWS.wav","","null","","","","","","","","","","","","","","","",""
"html-keyboard-response","200","447637","0.0-5.0-1.0-4.5","2","1","gfb6mlgcondbjt4","","null","","","","null","","","","","","","","","","","","","","","",""
"html-button-response","201","448812","0.0-5.0-1.0-5.5","2","1","gfb6mlgcondbjt4","","673.9999999999418","","<p>Press the button below when you are ready to continue.</p>","0","","","","","","","","","","","","","","","","",""
"audio-keyboard-response","202","451395","0.0-5.0-1.0-0.6","2","1","gfb6mlgcondbjt4","","null","","sounds/sentences/left/14_03_cfSWS.wav","","null","","","","","","","","","","","","","","","",""
"sentence-resp","203","456555","0.0-5.0-1.0-1.6","2","1","gfb6mlgcondbjt4","","5160","","","","","","","SWS-SENT-RESPONSE","","","{""Q0"":""lots of dry leaves""}","Pluck the bright rose without leaves.","pluck,bright,rose,without,leaves","LOTS OF DRY LEAVES","0","0","0","0","1","1","0.2"
"html-keyboard-response","204","457806","0.0-5.0-1.0-2.6","2","1","gfb6mlgcondbjt4","","null","","","","null","","","","","","","","","","","","","","","",""
"audio-keyboard-response","205","459888","0.0-5.0-1.0-3.6","2","1","gfb6mlgcondbjt4","","null","","sounds/sentences/left/14_03_cfSWS.wav","","null","","","","","","","","","","","","","","","",""
"html-keyboard-response","206","460888","0.0-5.0-1.0-4.6","2","1","gfb6mlgcondbjt4","","null","","","","null","","","","","","","","","","","","","","","",""
"html-button-response","207","461981","0.0-5.0-1.0-5.6","2","1","gfb6mlgcondbjt4","","591","","<p>Press the button below when you are ready to continue.</p>","0","","","","","","","","","","","","","","","","",""
"audio-keyboard-response","208","464709","0.0-5.0-1.0-0.7","2","1","gfb6mlgcondbjt4","","null","","sounds/sentences/right/14_09_cfSWS.wav","","null","","","","","","","","","","","","","","","",""
"sentence-resp","209","473188","0.0-5.0-1.0-1.7","2","1","gfb6mlgcondbjt4","","8478","","","","","","","SWS-SENT-RESPONSE","","","{""Q0"":""we frown this about to take a bad turn\n""}","We frown when events take a bad turn.","frown,events,take,bad,turn","WE FROWN THIS ABOUT TO TAKE A BAD TURN ","1","0","1","1","1","4","0.8"
"html-keyboard-response","210","474439","0.0-5.0-1.0-2.7","2","1","gfb6mlgcondbjt4","","null","","","","null","","","","","","","","","","","","","","","",""
"audio-keyboard-response","211","476667","0.0-5.0-1.0-3.7","2","1","gfb6mlgcondbjt4","","null","","sounds/sentences/right/14_09_cfSWS.wav","","null","","","","","","","","","","","","","","","",""
"html-keyboard-response","212","477669","0.0-5.0-1.0-4.7","2","1","gfb6mlgcondbjt4","","null","","","","null","","","","","","","","","","","","","","","",""
"html-button-response","213","478802","0.0-5.0-1.0-5.7","2","1","gfb6mlgcondbjt4","","631","","<p>Press the button below when you are ready to continue.</p>","0","","","","","","","","","","","","","","","","",""
"audio-keyboard-response","214","481557","0.0-5.0-1.0-0.8","2","1","gfb6mlgcondbjt4","","null","","sounds/sentences/right/14_08_cfSWS.wav","","null","","","","","","","","","","","","","","","",""
"sentence-resp","215","490387","0.0-5.0-1.0-1.8","2","1","gfb6mlgcondbjt4","","8830","","","","","","","SWS-SENT-RESPONSE","","","{""Q0"":""close in lodging are freezing new mittens""}","Clothes and lodging are free to new men.","clothes,lodging,free,new,men","CLOSE IN LODGING ARE FREEZING NEW MITTENS","0","1","0","1","0","2","0.4"
"html-keyboard-response","216","491639","0.0-5.0-1.0-2.8","2","1","gfb6mlgcondbjt4","","null","","","","null","","","","","","","","","","","","","","","",""
"audio-keyboard-response","217","493895","0.0-5.0-1.0-3.8","2","1","gfb6mlgcondbjt4","","null","","sounds/sentences/right/14_08_cfSWS.wav","","null","","","","","","","","","","","","","","","",""
"html-keyboard-response","218","494897","0.0-5.0-1.0-4.8","2","1","gfb6mlgcondbjt4","","null","","","","null","","","","","","","","","","","","","","","",""
"html-button-response","219","496443","0.0-5.0-1.0-5.8","2","1","gfb6mlgcondbjt4","","1045","","<p>Press the button below when you are ready to continue.</p>","0","","","","","","","","","","","","","","","","",""
"audio-keyboard-response","220","499332","0.0-5.0-1.0-0.9","2","1","gfb6mlgcondbjt4","","null","","sounds/sentences/right/14_07_cfSWS.wav","","null","","","","","","","","","","","","","","","",""
"sentence-resp","221","507976","0.0-5.0-1.0-1.9","2","1","gfb6mlgcondbjt4","","8643","","","","","","","SWS-SENT-RESPONSE","","","{""Q0"":""bright is fall know to the friends you cherish""}","Write a fond note to the friend you cherish.","write,fond,note,friend,cherish","BRIGHT IS FALL KNOW TO THE FRIENDS YOU CHERISH","0","0","0","0","1","1","0.2"
"html-keyboard-response","222","509229","0.0-5.0-1.0-2.9","2","1","gfb6mlgcondbjt4","","null","","","","null","","","","","","","","","","","","","","","",""
"audio-keyboard-response","223","511617","0.0-5.0-1.0-3.9","2","1","gfb6mlgcondbjt4","","null","","sounds/sentences/right/14_07_cfSWS.wav","","null","","","","","","","","","","","","","","","",""
"html-keyboard-response","224","512618","0.0-5.0-1.0-4.9","2","1","gfb6mlgcondbjt4","","null","","","","null","","","","","","","","","","","","","","","",""
"html-button-response","225","513709","0.0-5.0-1.0-5.9","2","1","gfb6mlgcondbjt4","","588.9999999999418","","<p>Press the button below when you are ready to continue.</p>","0","","","","","","","","","","","","","","","","",""
"html-keyboard-response","226","530413","0.0-6.0-0.0","2","1","gfb6mlgcondbjt4","","16201.999999999942","","<p>In this part of the study, you will hear sounds similar to those you just heard.</p><p>Please focus on these sounds, as you may be asked questions about them later.</p><p>Occasionally, the sounds will pause for up to two seconds. When this happens, please press SPACEBAR as quickly as you can.</br>This helps ensure that you are paying attention to the sounds.</p><p>This part of the study will take about 12 minutes to complete, and you will be given the opportunity to take a couple of short breaks every few minutes.</p><p><strong>Press SPACEBAR to begin</strong></p>","","32","","","","","","","","","","","","","","","",""
"html-keyboard-response","227","531414","0.0-6.0-1.0-0.0","2","1","gfb6mlgcondbjt4","","null","","<p style=""font-size: 40px;"">+</p>","","null","","","","","","","","","","","","","","","",""
