"trial_type","trial_index","time_elapsed","internal_node_id","counterbalance","lang_instruct","ParticipantID","view_history","rt","url","stimulus","button_pressed","key_press","correctRESP","correct","designation","location","correctanswer","responses","sentence","keywords","typed_resp","keyword1_acc","keyword2_acc","keyword3_acc","keyword4_acc","keyword5_acc","total_acc","prop_acc","timeouts","pause_rt01","pause_rt02","train_file","numKeyPress","sound","fam_type","SYLLABLE","EXEMPLAR","TD_LOCS","TD_TYPE","TDLOC_01","TDLOC_02","TDLOC_03","TDLOC_04","TD_RT_01","TD_RT_02","TD_RT_03","TD_RT_04","TD_SUBJ_RTs","number_of_plays","slider_start","response","question_order","syllable","syllable_type"
"pavlovia","0","3","0.0-0.0","3","1","jg6r2hpaft2plaa","","","","","","","","","","","","","","","","","","","","","","","","","","","","","","","","","","","","","","","","","","","","","","","",""
"instructions","1","28477","0.0-1.0","3","1","jg6r2hpaft2plaa","[{""page_index"":0,""viewing_time"":16959.5},{""page_index"":1,""viewing_time"":11512}]","28474.69999998808","","","","","","","","","","","","","","","","","","","","","","","","","","","","","","","","","","","","","","","","","","","","","",""
"external-html","2","33714","0.0-2.0","3","1","jg6r2hpaft2plaa","","4918.200000017881","consent/consent.html","","","","","","","","","","","","","","","","","","","","","","","","","","","","","","","","","","","","","","","","","","","","",""
"html-button-response","3","76034","0.0-3.0-0.0-0.0","3","1","jg6r2hpaft2plaa","","42318.60000002384","","<p>Welcome to the study. You will first complete a short volume calibration and headphone check.</p><p>Please make sure you are in a quiet listening environment, that you are wearing headphones, and that your computer's volume is turned on.<p></p>","0","","","","","","","","","","","","","","","","","","","","","","","","","","","","","","","","","","","","","","","","","","",""
"html-button-response","4","78909","0.0-3.0-0.0-1.0","3","1","jg6r2hpaft2plaa","","2620.4000000059605","","<p>The volume calibration will be first.</p><p>You will hear a thirty-second noise. Please adjust your computer's volume so that this noise is being presented at a comfortable level.<p></p>","0","","","","","","","","","","","","","","","","","","","","","","","","","","","","","","","","","","","","","","","","","","",""
"audio-button-response","5","85862","0.0-3.0-0.0-2.0","3","1","jg6r2hpaft2plaa","","6397","","audCalib/volumetest.mp3","0","","","","","","","","","","","","","","","","","","","","","","","","","","","","","","","","","","","","","","","","","","",""
"html-button-response","6","89353","0.0-3.0-1.0-0.0","3","1","jg6r2hpaft2plaa","","3488.699999988079","","<p>You will now complete a short headphone check.</p><p>On each trial, you will hear three tones. One of these tones will be quieter than the others. Your task is to identify whether the quiet tone occured first, second, or third.</p><p>There are six trials in total.<p></p>","0","","","","","","","","","","","","","","","","","","","","","","","","","","","","","","","","","","","","","","","","","","",""
"html-keyboard-response","7","90115","0.0-3.0-1.0-1.0-0.0","3","1","jg6r2hpaft2plaa","","null","","<div style=""font-size:60px;"">+</div>","","null","","","","","","","","","","","","","","","","","","","","","","","","","","","","","","","","","","","","","","","","","",""
"audio-button-response","8","94584","0.0-3.0-1.0-1.0-1.0","3","1","jg6r2hpaft2plaa","","4470","","audCalib/t2_1.mp3","1","","1","1","headphone-test","","","","","","","","","","","","","","","","","","","","","","","","","","","","","","","","","","","","","","",""
"html-keyboard-response","9","95341","0.0-3.0-1.0-1.0-0.1","3","1","jg6r2hpaft2plaa","","null","","<div style=""font-size:60px;"">+</div>","","null","","","","","","","","","","","","","","","","","","","","","","","","","","","","","","","","","","","","","","","","","",""
"audio-button-response","10","103177","0.0-3.0-1.0-1.0-1.1","3","1","jg6r2hpaft2plaa","","7831","","audCalib/t1_2.mp3","1","","0","0","headphone-test","","","","","","","","","","","","","","","","","","","","","","","","","","","","","","","","","","","","","","",""
"html-keyboard-response","11","103936","0.0-3.0-1.0-1.0-0.2","3","1","jg6r2hpaft2plaa","","null","","<div style=""font-size:60px;"">+</div>","","null","","","","","","","","","","","","","","","","","","","","","","","","","","","","","","","","","","","","","","","","","",""
"audio-button-response","12","107858","0.0-3.0-1.0-1.0-1.2","3","1","jg6r2hpaft2plaa","","3913","","audCalib/t1_1.mp3","0","","0","1","headphone-test","","","","","","","","","","","","","","","","","","","","","","","","","","","","","","","","","","","","","","",""
"html-keyboard-response","13","108616","0.0-3.0-1.0-1.0-0.3","3","1","jg6r2hpaft2plaa","","null","","<div style=""font-size:60px;"">+</div>","","null","","","","","","","","","","","","","","","","","","","","","","","","","","","","","","","","","","","","","","","","","",""
"audio-button-response","14","112546","0.0-3.0-1.0-1.0-1.3","3","1","jg6r2hpaft2plaa","","3924","","audCalib/t2_2.mp3","1","","1","1","headphone-test","","","","","","","","","","","","","","","","","","","","","","","","","","","","","","","","","","","","","","",""
"html-keyboard-response","15","113301","0.0-3.0-1.0-1.0-0.4","3","1","jg6r2hpaft2plaa","","null","","<div style=""font-size:60px;"">+</div>","","null","","","","","","","","","","","","","","","","","","","","","","","","","","","","","","","","","","","","","","","","","",""
"audio-button-response","16","117584","0.0-3.0-1.0-1.0-1.4","3","1","jg6r2hpaft2plaa","","4278","","audCalib/t3_1.mp3","2","","2","1","headphone-test","","","","","","","","","","","","","","","","","","","","","","","","","","","","","","","","","","","","","","",""
"html-keyboard-response","17","118346","0.0-3.0-1.0-1.0-0.5","3","1","jg6r2hpaft2plaa","","null","","<div style=""font-size:60px;"">+</div>","","null","","","","","","","","","","","","","","","","","","","","","","","","","","","","","","","","","","","","","","","","","",""
"audio-button-response","18","122509","0.0-3.0-1.0-1.0-1.5","3","1","jg6r2hpaft2plaa","","4162","","audCalib/t3_2.mp3","2","","2","1","headphone-test","","","","","","","","","","","","","","","","","","","","","","","","","","","","","","","","","","","","","","",""
"html-button-response","19","124811","0.0-3.0-2.0","3","1","jg6r2hpaft2plaa","","2044.7000000178814","","<p>The volume calibration and headphone check are now complete.</p>","0","","","","","","","","","","","","","","","","","","","","","","","","","","","","","","","","","","","","","","","","","","",""
"instructions","20","133823","0.0-4.0-0.0","3","1","jg6r2hpaft2plaa","[{""page_index"":0,""viewing_time"":1475.3999999761581},{""page_index"":1,""viewing_time"":4833},{""page_index"":2,""viewing_time"":2702.600000023842}]","9011.699999988079","","","","","","","","","","","","","","","","","","","","","","","","","","","","","","","","","","","","","","","","","","","","","",""
"audio-keyboard-response","21","134122","0.0-4.0-1.0-0.0","3","1","jg6r2hpaft2plaa","","null","","sounds/induction/left/me_SWS.wav","","null","","","","","","","","","","","","","","","","","","","","","","","","","","","","","","","","","","","","","","","","","",""
"html-button-response","22","136103","0.0-4.0-1.0-1.0","3","1","jg6r2hpaft2plaa","","1978.5","","What sound did you hear?","1","","","1","INDUCTION-JUDGMENT","left","1","","","","","","","","","","","","","","","","","","","","","","","","","","","","","","","","","","","","",""
"html-keyboard-response","23","137110","0.0-4.0-1.0-2.0","3","1","jg6r2hpaft2plaa","","null","","<p style=""color:green;""><b>Correct!</b></p>","","null","","","","","","","","","","","","","","","","","","","","","","","","","","","","","","","","","","","","","","","","","",""
"audio-keyboard-response","24","137915","0.0-4.0-1.0-0.1","3","1","jg6r2hpaft2plaa","","null","","sounds/induction/left/fe_SWS.wav","","null","","","","","","","","","","","","","","","","","","","","","","","","","","","","","","","","","","","","","","","","","",""
"html-button-response","25","140000","0.0-4.0-1.0-1.1","3","1","jg6r2hpaft2plaa","","2084","","What sound did you hear?","1","","","1","INDUCTION-JUDGMENT","left","1","","","","","","","","","","","","","","","","","","","","","","","","","","","","","","","","","","","","",""
"html-keyboard-response","26","141002","0.0-4.0-1.0-2.1","3","1","jg6r2hpaft2plaa","","null","","<p style=""color:green;""><b>Correct!</b></p>","","null","","","","","","","","","","","","","","","","","","","","","","","","","","","","","","","","","","","","","","","","","",""
"audio-keyboard-response","27","141807","0.0-4.0-1.0-0.2","3","1","jg6r2hpaft2plaa","","null","","sounds/induction/left/fe_SWS.wav","","null","","","","","","","","","","","","","","","","","","","","","","","","","","","","","","","","","","","","","","","","","",""
"html-button-response","28","143386","0.0-4.0-1.0-1.2","3","1","jg6r2hpaft2plaa","","1577.800000011921","","What sound did you hear?","0","","","0","INDUCTION-JUDGMENT","left","1","","","","","","","","","","","","","","","","","","","","","","","","","","","","","","","","","","","","",""
"html-keyboard-response","29","144392","0.0-4.0-1.0-2.2","3","1","jg6r2hpaft2plaa","","null","","<p style=""color:red;""><b>Incorrect!</b></p>","","null","","","","","","","","","","","","","","","","","","","","","","","","","","","","","","","","","","","","","","","","","",""
"audio-keyboard-response","30","145195","0.0-4.0-1.0-0.3","3","1","jg6r2hpaft2plaa","","null","","sounds/induction/left/ko_SWS.wav","","null","","","","","","","","","","","","","","","","","","","","","","","","","","","","","","","","","","","","","","","","","",""
"html-button-response","31","147304","0.0-4.0-1.0-1.3","3","1","jg6r2hpaft2plaa","","2105","","What sound did you hear?","1","","","1","INDUCTION-JUDGMENT","left","1","","","","","","","","","","","","","","","","","","","","","","","","","","","","","","","","","","","","",""
"html-keyboard-response","32","148311","0.0-4.0-1.0-2.3","3","1","jg6r2hpaft2plaa","","null","","<p style=""color:green;""><b>Correct!</b></p>","","null","","","","","","","","","","","","","","","","","","","","","","","","","","","","","","","","","","","","","","","","","",""
"audio-keyboard-response","33","149109","0.0-4.0-1.0-0.4","3","1","jg6r2hpaft2plaa","","null","","sounds/induction/left/ru_SWS.wav","","null","","","","","","","","","","","","","","","","","","","","","","","","","","","","","","","","","","","","","","","","","",""
"html-button-response","34","150211","0.0-4.0-1.0-1.4","3","1","jg6r2hpaft2plaa","","1100","","What sound did you hear?","0","","","1","INDUCTION-JUDGMENT","left","0","","","","","","","","","","","","","","","","","","","","","","","","","","","","","","","","","","","","",""
"html-keyboard-response","35","151213","0.0-4.0-1.0-2.4","3","1","jg6r2hpaft2plaa","","null","","<p style=""color:green;""><b>Correct!</b></p>","","null","","","","","","","","","","","","","","","","","","","","","","","","","","","","","","","","","","","","","","","","","",""
"audio-keyboard-response","36","152017","0.0-4.0-1.0-0.5","3","1","jg6r2hpaft2plaa","","null","","sounds/induction/left/re_SWS.wav","","null","","","","","","","","","","","","","","","","","","","","","","","","","","","","","","","","","","","","","","","","","",""
"html-button-response","37","153041","0.0-4.0-1.0-1.5","3","1","jg6r2hpaft2plaa","","1022.2000000178814","","What sound did you hear?","0","","","1","INDUCTION-JUDGMENT","left","0","","","","","","","","","","","","","","","","","","","","","","","","","","","","","","","","","","","","",""
"html-keyboard-response","38","154044","0.0-4.0-1.0-2.5","3","1","jg6r2hpaft2plaa","","null","","<p style=""color:green;""><b>Correct!</b></p>","","null","","","","","","","","","","","","","","","","","","","","","","","","","","","","","","","","","","","","","","","","","",""
"audio-keyboard-response","39","154843","0.0-4.0-1.0-0.6","3","1","jg6r2hpaft2plaa","","null","","sounds/induction/right/ko_SWS.wav","","null","","","","","","","","","","","","","","","","","","","","","","","","","","","","","","","","","","","","","","","","","",""
"html-button-response","40","156515","0.0-4.0-1.0-1.6","3","1","jg6r2hpaft2plaa","","1670.699999988079","","What sound did you hear?","1","","","0","INDUCTION-JUDGMENT","right","0","","","","","","","","","","","","","","","","","","","","","","","","","","","","","","","","","","","","",""
"html-keyboard-response","41","157521","0.0-4.0-1.0-2.6","3","1","jg6r2hpaft2plaa","","null","","<p style=""color:red;""><b>Incorrect!</b></p>","","null","","","","","","","","","","","","","","","","","","","","","","","","","","","","","","","","","","","","","","","","","",""
"audio-keyboard-response","42","158324","0.0-4.0-1.0-0.7","3","1","jg6r2hpaft2plaa","","null","","sounds/induction/right/su_SWS.wav","","null","","","","","","","","","","","","","","","","","","","","","","","","","","","","","","","","","","","","","","","","","",""
"html-button-response","43","160014","0.0-4.0-1.0-1.7","3","1","jg6r2hpaft2plaa","","1688.300000011921","","What sound did you hear?","0","","","0","INDUCTION-JUDGMENT","right","1","","","","","","","","","","","","","","","","","","","","","","","","","","","","","","","","","","","","",""
"html-keyboard-response","44","161020","0.0-4.0-1.0-2.7","3","1","jg6r2hpaft2plaa","","null","","<p style=""color:red;""><b>Incorrect!</b></p>","","null","","","","","","","","","","","","","","","","","","","","","","","","","","","","","","","","","","","","","","","","","",""
"audio-keyboard-response","45","161822","0.0-4.0-1.0-0.8","3","1","jg6r2hpaft2plaa","","null","","sounds/induction/right/ta_SWS.wav","","null","","","","","","","","","","","","","","","","","","","","","","","","","","","","","","","","","","","","","","","","","",""
"html-button-response","46","162979","0.0-4.0-1.0-1.8","3","1","jg6r2hpaft2plaa","","1155.3999999761581","","What sound did you hear?","0","","","0","INDUCTION-JUDGMENT","right","1","","","","","","","","","","","","","","","","","","","","","","","","","","","","","","","","","","","","",""
"html-keyboard-response","47","163985","0.0-4.0-1.0-2.8","3","1","jg6r2hpaft2plaa","","null","","<p style=""color:red;""><b>Incorrect!</b></p>","","null","","","","","","","","","","","","","","","","","","","","","","","","","","","","","","","","","","","","","","","","","",""
"audio-keyboard-response","48","164787","0.0-4.0-1.0-0.9","3","1","jg6r2hpaft2plaa","","null","","sounds/induction/right/ko_SWS.wav","","null","","","","","","","","","","","","","","","","","","","","","","","","","","","","","","","","","","","","","","","","","",""
"html-button-response","49","165952","0.0-4.0-1.0-1.9","3","1","jg6r2hpaft2plaa","","1164.2999999821186","","What sound did you hear?","0","","","1","INDUCTION-JUDGMENT","right","0","","","","","","","","","","","","","","","","","","","","","","","","","","","","","","","","","","","","",""
"html-keyboard-response","50","166955","0.0-4.0-1.0-2.9","3","1","jg6r2hpaft2plaa","","null","","<p style=""color:green;""><b>Correct!</b></p>","","null","","","","","","","","","","","","","","","","","","","","","","","","","","","","","","","","","","","","","","","","","",""
"audio-keyboard-response","51","167758","0.0-4.0-1.0-0.10","3","1","jg6r2hpaft2plaa","","null","","sounds/induction/right/ge_SWS.wav","","null","","","","","","","","","","","","","","","","","","","","","","","","","","","","","","","","","","","","","","","","","",""
"html-button-response","52","168600","0.0-4.0-1.0-1.10","3","1","jg6r2hpaft2plaa","","840.1000000238419","","What sound did you hear?","0","","","1","INDUCTION-JUDGMENT","right","0","","","","","","","","","","","","","","","","","","","","","","","","","","","","","","","","","","","","",""
"html-keyboard-response","53","169605","0.0-4.0-1.0-2.10","3","1","jg6r2hpaft2plaa","","null","","<p style=""color:green;""><b>Correct!</b></p>","","null","","","","","","","","","","","","","","","","","","","","","","","","","","","","","","","","","","","","","","","","","",""
"audio-keyboard-response","54","170411","0.0-4.0-1.0-0.11","3","1","jg6r2hpaft2plaa","","null","","sounds/induction/right/ru_SWS.wav","","null","","","","","","","","","","","","","","","","","","","","","","","","","","","","","","","","","","","","","","","","","",""
"html-button-response","55","171468","0.0-4.0-1.0-1.11","3","1","jg6r2hpaft2plaa","","1056.1000000238419","","What sound did you hear?","1","","","1","INDUCTION-JUDGMENT","right","1","","","","","","","","","","","","","","","","","","","","","","","","","","","","","","","","","","","","",""
"html-keyboard-response","56","172473","0.0-4.0-1.0-2.11","3","1","jg6r2hpaft2plaa","","null","","<p style=""color:green;""><b>Correct!</b></p>","","null","","","","","","","","","","","","","","","","","","","","","","","","","","","","","","","","","","","","","","","","","",""
"audio-keyboard-response","57","173283","0.0-4.0-1.0-0.12","3","1","jg6r2hpaft2plaa","","null","","sounds/induction/right/pu_SWS.wav","","null","","","","","","","","","","","","","","","","","","","","","","","","","","","","","","","","","","","","","","","","","",""
"html-button-response","58","174354","0.0-4.0-1.0-1.12","3","1","jg6r2hpaft2plaa","","1069.199999988079","","What sound did you hear?","0","","","0","INDUCTION-JUDGMENT","right","1","","","","","","","","","","","","","","","","","","","","","","","","","","","","","","","","","","","","",""
"html-keyboard-response","59","175356","0.0-4.0-1.0-2.12","3","1","jg6r2hpaft2plaa","","null","","<p style=""color:red;""><b>Incorrect!</b></p>","","null","","","","","","","","","","","","","","","","","","","","","","","","","","","","","","","","","","","","","","","","","",""
"audio-keyboard-response","60","176156","0.0-4.0-1.0-0.13","3","1","jg6r2hpaft2plaa","","null","","sounds/induction/left/ru_SWS.wav","","null","","","","","","","","","","","","","","","","","","","","","","","","","","","","","","","","","","","","","","","","","",""
"html-button-response","61","176872","0.0-4.0-1.0-1.13","3","1","jg6r2hpaft2plaa","","715.3000000119209","","What sound did you hear?","0","","","1","INDUCTION-JUDGMENT","left","0","","","","","","","","","","","","","","","","","","","","","","","","","","","","","","","","","","","","",""
"html-keyboard-response","62","177876","0.0-4.0-1.0-2.13","3","1","jg6r2hpaft2plaa","","null","","<p style=""color:green;""><b>Correct!</b></p>","","null","","","","","","","","","","","","","","","","","","","","","","","","","","","","","","","","","","","","","","","","","",""
"audio-keyboard-response","63","178681","0.0-4.0-1.0-0.14","3","1","jg6r2hpaft2plaa","","null","","sounds/induction/left/fu_SWS.wav","","null","","","","","","","","","","","","","","","","","","","","","","","","","","","","","","","","","","","","","","","","","",""
"html-button-response","64","179479","0.0-4.0-1.0-1.14","3","1","jg6r2hpaft2plaa","","796.4000000059605","","What sound did you hear?","0","","","0","INDUCTION-JUDGMENT","left","1","","","","","","","","","","","","","","","","","","","","","","","","","","","","","","","","","","","","",""
"html-keyboard-response","65","180482","0.0-4.0-1.0-2.14","3","1","jg6r2hpaft2plaa","","null","","<p style=""color:red;""><b>Incorrect!</b></p>","","null","","","","","","","","","","","","","","","","","","","","","","","","","","","","","","","","","","","","","","","","","",""
"audio-keyboard-response","66","181287","0.0-4.0-1.0-0.15","3","1","jg6r2hpaft2plaa","","null","","sounds/induction/right/fu_SWS.wav","","null","","","","","","","","","","","","","","","","","","","","","","","","","","","","","","","","","","","","","","","","","",""
"html-button-response","67","183088","0.0-4.0-1.0-1.15","3","1","jg6r2hpaft2plaa","","1800.300000011921","","What sound did you hear?","0","","","1","INDUCTION-JUDGMENT","right","0","","","","","","","","","","","","","","","","","","","","","","","","","","","","","","","","","","","","",""
"html-keyboard-response","68","184090","0.0-4.0-1.0-2.15","3","1","jg6r2hpaft2plaa","","null","","<p style=""color:green;""><b>Correct!</b></p>","","null","","","","","","","","","","","","","","","","","","","","","","","","","","","","","","","","","","","","","","","","","",""
"audio-keyboard-response","69","184895","0.0-4.0-1.0-0.16","3","1","jg6r2hpaft2plaa","","null","","sounds/induction/right/ti_SWS.wav","","null","","","","","","","","","","","","","","","","","","","","","","","","","","","","","","","","","","","","","","","","","",""
"html-button-response","70","186452","0.0-4.0-1.0-1.16","3","1","jg6r2hpaft2plaa","","1555.9000000059605","","What sound did you hear?","1","","","1","INDUCTION-JUDGMENT","right","1","","","","","","","","","","","","","","","","","","","","","","","","","","","","","","","","","","","","",""
"html-keyboard-response","71","187456","0.0-4.0-1.0-2.16","3","1","jg6r2hpaft2plaa","","null","","<p style=""color:green;""><b>Correct!</b></p>","","null","","","","","","","","","","","","","","","","","","","","","","","","","","","","","","","","","","","","","","","","","",""
"audio-keyboard-response","72","188266","0.0-4.0-1.0-0.17","3","1","jg6r2hpaft2plaa","","null","","sounds/induction/right/me_SWS.wav","","null","","","","","","","","","","","","","","","","","","","","","","","","","","","","","","","","","","","","","","","","","",""
"html-button-response","73","189314","0.0-4.0-1.0-1.17","3","1","jg6r2hpaft2plaa","","1047.0999999940395","","What sound did you hear?","0","","","1","INDUCTION-JUDGMENT","right","0","","","","","","","","","","","","","","","","","","","","","","","","","","","","","","","","","","","","",""
"html-keyboard-response","74","190316","0.0-4.0-1.0-2.17","3","1","jg6r2hpaft2plaa","","null","","<p style=""color:green;""><b>Correct!</b></p>","","null","","","","","","","","","","","","","","","","","","","","","","","","","","","","","","","","","","","","","","","","","",""
"audio-keyboard-response","75","191121","0.0-4.0-1.0-0.18","3","1","jg6r2hpaft2plaa","","null","","sounds/induction/right/ru_SWS.wav","","null","","","","","","","","","","","","","","","","","","","","","","","","","","","","","","","","","","","","","","","","","",""
"html-button-response","76","191969","0.0-4.0-1.0-1.18","3","1","jg6r2hpaft2plaa","","846.7000000178814","","What sound did you hear?","1","","","1","INDUCTION-JUDGMENT","right","1","","","","","","","","","","","","","","","","","","","","","","","","","","","","","","","","","","","","",""
"html-keyboard-response","77","192976","0.0-4.0-1.0-2.18","3","1","jg6r2hpaft2plaa","","null","","<p style=""color:green;""><b>Correct!</b></p>","","null","","","","","","","","","","","","","","","","","","","","","","","","","","","","","","","","","","","","","","","","","",""
"audio-keyboard-response","78","193773","0.0-4.0-1.0-0.19","3","1","jg6r2hpaft2plaa","","null","","sounds/induction/left/fu_SWS.wav","","null","","","","","","","","","","","","","","","","","","","","","","","","","","","","","","","","","","","","","","","","","",""
"html-button-response","79","194807","0.0-4.0-1.0-1.19","3","1","jg6r2hpaft2plaa","","1032.5","","What sound did you hear?","0","","","0","INDUCTION-JUDGMENT","left","1","","","","","","","","","","","","","","","","","","","","","","","","","","","","","","","","","","","","",""
"html-keyboard-response","80","195813","0.0-4.0-1.0-2.19","3","1","jg6r2hpaft2plaa","","null","","<p style=""color:red;""><b>Incorrect!</b></p>","","null","","","","","","","","","","","","","","","","","","","","","","","","","","","","","","","","","","","","","","","","","",""
"audio-keyboard-response","81","196617","0.0-4.0-1.0-0.20","3","1","jg6r2hpaft2plaa","","null","","sounds/induction/left/su_SWS.wav","","null","","","","","","","","","","","","","","","","","","","","","","","","","","","","","","","","","","","","","","","","","",""
"html-button-response","82","199054","0.0-4.0-1.0-1.20","3","1","jg6r2hpaft2plaa","","2436.100000023842","","What sound did you hear?","0","","","1","INDUCTION-JUDGMENT","left","0","","","","","","","","","","","","","","","","","","","","","","","","","","","","","","","","","","","","",""
"html-keyboard-response","83","200056","0.0-4.0-1.0-2.20","3","1","jg6r2hpaft2plaa","","null","","<p style=""color:green;""><b>Correct!</b></p>","","null","","","","","","","","","","","","","","","","","","","","","","","","","","","","","","","","","","","","","","","","","",""
"audio-keyboard-response","84","200862","0.0-4.0-1.0-0.21","3","1","jg6r2hpaft2plaa","","null","","sounds/induction/right/ti_SWS.wav","","null","","","","","","","","","","","","","","","","","","","","","","","","","","","","","","","","","","","","","","","","","",""
"html-button-response","85","202546","0.0-4.0-1.0-1.21","3","1","jg6r2hpaft2plaa","","1682.5","","What sound did you hear?","1","","","1","INDUCTION-JUDGMENT","right","1","","","","","","","","","","","","","","","","","","","","","","","","","","","","","","","","","","","","",""
"html-keyboard-response","86","203549","0.0-4.0-1.0-2.21","3","1","jg6r2hpaft2plaa","","null","","<p style=""color:green;""><b>Correct!</b></p>","","null","","","","","","","","","","","","","","","","","","","","","","","","","","","","","","","","","","","","","","","","","",""
"audio-keyboard-response","87","204348","0.0-4.0-1.0-0.22","3","1","jg6r2hpaft2plaa","","null","","sounds/induction/left/ni_SWS.wav","","null","","","","","","","","","","","","","","","","","","","","","","","","","","","","","","","","","","","","","","","","","",""
"html-button-response","88","206062","0.0-4.0-1.0-1.22","3","1","jg6r2hpaft2plaa","","1711.7000000178814","","What sound did you hear?","1","","","1","INDUCTION-JUDGMENT","left","1","","","","","","","","","","","","","","","","","","","","","","","","","","","","","","","","","","","","",""
"html-keyboard-response","89","207065","0.0-4.0-1.0-2.22","3","1","jg6r2hpaft2plaa","","null","","<p style=""color:green;""><b>Correct!</b></p>","","null","","","","","","","","","","","","","","","","","","","","","","","","","","","","","","","","","","","","","","","","","",""
"audio-keyboard-response","90","207870","0.0-4.0-1.0-0.23","3","1","jg6r2hpaft2plaa","","null","","sounds/induction/right/re_SWS.wav","","null","","","","","","","","","","","","","","","","","","","","","","","","","","","","","","","","","","","","","","","","","",""
"html-button-response","91","209090","0.0-4.0-1.0-1.23","3","1","jg6r2hpaft2plaa","","1218.199999988079","","What sound did you hear?","1","","","1","INDUCTION-JUDGMENT","right","1","","","","","","","","","","","","","","","","","","","","","","","","","","","","","","","","","","","","",""
"html-keyboard-response","92","210094","0.0-4.0-1.0-2.23","3","1","jg6r2hpaft2plaa","","null","","<p style=""color:green;""><b>Correct!</b></p>","","null","","","","","","","","","","","","","","","","","","","","","","","","","","","","","","","","","","","","","","","","","",""
"audio-keyboard-response","93","210904","0.0-4.0-1.0-0.24","3","1","jg6r2hpaft2plaa","","null","","sounds/induction/right/re_SWS.wav","","null","","","","","","","","","","","","","","","","","","","","","","","","","","","","","","","","","","","","","","","","","",""
"html-button-response","94","211805","0.0-4.0-1.0-1.24","3","1","jg6r2hpaft2plaa","","898.8000000119209","","What sound did you hear?","1","","","1","INDUCTION-JUDGMENT","right","1","","","","","","","","","","","","","","","","","","","","","","","","","","","","","","","","","","","","",""
"html-keyboard-response","95","212810","0.0-4.0-1.0-2.24","3","1","jg6r2hpaft2plaa","","null","","<p style=""color:green;""><b>Correct!</b></p>","","null","","","","","","","","","","","","","","","","","","","","","","","","","","","","","","","","","","","","","","","","","",""
"audio-keyboard-response","96","213614","0.0-4.0-1.0-0.25","3","1","jg6r2hpaft2plaa","","null","","sounds/induction/right/pu_SWS.wav","","null","","","","","","","","","","","","","","","","","","","","","","","","","","","","","","","","","","","","","","","","","",""
"html-button-response","97","214952","0.0-4.0-1.0-1.25","3","1","jg6r2hpaft2plaa","","1336.300000011921","","What sound did you hear?","1","","","1","INDUCTION-JUDGMENT","right","1","","","","","","","","","","","","","","","","","","","","","","","","","","","","","","","","","","","","",""
"html-keyboard-response","98","215956","0.0-4.0-1.0-2.25","3","1","jg6r2hpaft2plaa","","null","","<p style=""color:green;""><b>Correct!</b></p>","","null","","","","","","","","","","","","","","","","","","","","","","","","","","","","","","","","","","","","","","","","","",""
"audio-keyboard-response","99","216754","0.0-4.0-1.0-0.26","3","1","jg6r2hpaft2plaa","","null","","sounds/induction/left/ti_SWS.wav","","null","","","","","","","","","","","","","","","","","","","","","","","","","","","","","","","","","","","","","","","","","",""
"html-button-response","100","217534","0.0-4.0-1.0-1.26","3","1","jg6r2hpaft2plaa","","779.3000000119209","","What sound did you hear?","0","","","1","INDUCTION-JUDGMENT","left","0","","","","","","","","","","","","","","","","","","","","","","","","","","","","","","","","","","","","",""
"html-keyboard-response","101","218538","0.0-4.0-1.0-2.26","3","1","jg6r2hpaft2plaa","","null","","<p style=""color:green;""><b>Correct!</b></p>","","null","","","","","","","","","","","","","","","","","","","","","","","","","","","","","","","","","","","","","","","","","",""
"audio-keyboard-response","102","219342","0.0-4.0-1.0-0.27","3","1","jg6r2hpaft2plaa","","null","","sounds/induction/left/su_SWS.wav","","null","","","","","","","","","","","","","","","","","","","","","","","","","","","","","","","","","","","","","","","","","",""
"html-button-response","103","220425","0.0-4.0-1.0-1.27","3","1","jg6r2hpaft2plaa","","1081.7000000178814","","What sound did you hear?","1","","","0","INDUCTION-JUDGMENT","left","0","","","","","","","","","","","","","","","","","","","","","","","","","","","","","","","","","","","","",""
"html-keyboard-response","104","221428","0.0-4.0-1.0-2.27","3","1","jg6r2hpaft2plaa","","null","","<p style=""color:red;""><b>Incorrect!</b></p>","","null","","","","","","","","","","","","","","","","","","","","","","","","","","","","","","","","","","","","","","","","","",""
"audio-keyboard-response","105","222226","0.0-4.0-1.0-0.28","3","1","jg6r2hpaft2plaa","","null","","sounds/induction/left/ge_SWS.wav","","null","","","","","","","","","","","","","","","","","","","","","","","","","","","","","","","","","","","","","","","","","",""
"html-button-response","106","223306","0.0-4.0-1.0-1.28","3","1","jg6r2hpaft2plaa","","1078.5","","What sound did you hear?","1","","","1","INDUCTION-JUDGMENT","left","1","","","","","","","","","","","","","","","","","","","","","","","","","","","","","","","","","","","","",""
"html-keyboard-response","107","224313","0.0-4.0-1.0-2.28","3","1","jg6r2hpaft2plaa","","null","","<p style=""color:green;""><b>Correct!</b></p>","","null","","","","","","","","","","","","","","","","","","","","","","","","","","","","","","","","","","","","","","","","","",""
"audio-keyboard-response","108","225118","0.0-4.0-1.0-0.29","3","1","jg6r2hpaft2plaa","","null","","sounds/induction/right/fu_SWS.wav","","null","","","","","","","","","","","","","","","","","","","","","","","","","","","","","","","","","","","","","","","","","",""
"html-button-response","109","226614","0.0-4.0-1.0-1.29","3","1","jg6r2hpaft2plaa","","1495.5","","What sound did you hear?","0","","","1","INDUCTION-JUDGMENT","right","0","","","","","","","","","","","","","","","","","","","","","","","","","","","","","","","","","","","","",""
"html-keyboard-response","110","227620","0.0-4.0-1.0-2.29","3","1","jg6r2hpaft2plaa","","null","","<p style=""color:green;""><b>Correct!</b></p>","","null","","","","","","","","","","","","","","","","","","","","","","","","","","","","","","","","","","","","","","","","","",""
"audio-keyboard-response","111","228419","0.0-4.0-1.0-0.30","3","1","jg6r2hpaft2plaa","","null","","sounds/induction/left/ni_SWS.wav","","null","","","","","","","","","","","","","","","","","","","","","","","","","","","","","","","","","","","","","","","","","",""
"html-button-response","112","229562","0.0-4.0-1.0-1.30","3","1","jg6r2hpaft2plaa","","1141.9000000059605","","What sound did you hear?","1","","","1","INDUCTION-JUDGMENT","left","1","","","","","","","","","","","","","","","","","","","","","","","","","","","","","","","","","","","","",""
"html-keyboard-response","113","230567","0.0-4.0-1.0-2.30","3","1","jg6r2hpaft2plaa","","null","","<p style=""color:green;""><b>Correct!</b></p>","","null","","","","","","","","","","","","","","","","","","","","","","","","","","","","","","","","","","","","","","","","","",""
"audio-keyboard-response","114","231373","0.0-4.0-1.0-0.31","3","1","jg6r2hpaft2plaa","","null","","sounds/induction/left/ko_SWS.wav","","null","","","","","","","","","","","","","","","","","","","","","","","","","","","","","","","","","","","","","","","","","",""
"html-button-response","115","232247","0.0-4.0-1.0-1.31","3","1","jg6r2hpaft2plaa","","873.2000000178814","","What sound did you hear?","1","","","1","INDUCTION-JUDGMENT","left","1","","","","","","","","","","","","","","","","","","","","","","","","","","","","","","","","","","","","",""
"html-keyboard-response","116","233252","0.0-4.0-1.0-2.31","3","1","jg6r2hpaft2plaa","","null","","<p style=""color:green;""><b>Correct!</b></p>","","null","","","","","","","","","","","","","","","","","","","","","","","","","","","","","","","","","","","","","","","","","",""
"audio-keyboard-response","117","234054","0.0-4.0-1.0-0.32","3","1","jg6r2hpaft2plaa","","null","","sounds/induction/left/pu_SWS.wav","","null","","","","","","","","","","","","","","","","","","","","","","","","","","","","","","","","","","","","","","","","","",""
"html-button-response","118","235518","0.0-4.0-1.0-1.32","3","1","jg6r2hpaft2plaa","","1462","","What sound did you hear?","1","","","0","INDUCTION-JUDGMENT","left","0","","","","","","","","","","","","","","","","","","","","","","","","","","","","","","","","","","","","",""
"html-keyboard-response","119","236521","0.0-4.0-1.0-2.32","3","1","jg6r2hpaft2plaa","","null","","<p style=""color:red;""><b>Incorrect!</b></p>","","null","","","","","","","","","","","","","","","","","","","","","","","","","","","","","","","","","","","","","","","","","",""
"audio-keyboard-response","120","237326","0.0-4.0-1.0-0.33","3","1","jg6r2hpaft2plaa","","null","","sounds/induction/left/ta_SWS.wav","","null","","","","","","","","","","","","","","","","","","","","","","","","","","","","","","","","","","","","","","","","","",""
"html-button-response","121","238769","0.0-4.0-1.0-1.33","3","1","jg6r2hpaft2plaa","","1442","","What sound did you hear?","0","","","1","INDUCTION-JUDGMENT","left","0","","","","","","","","","","","","","","","","","","","","","","","","","","","","","","","","","","","","",""
"html-keyboard-response","122","239776","0.0-4.0-1.0-2.33","3","1","jg6r2hpaft2plaa","","null","","<p style=""color:green;""><b>Correct!</b></p>","","null","","","","","","","","","","","","","","","","","","","","","","","","","","","","","","","","","","","","","","","","","",""
"audio-keyboard-response","123","240575","0.0-4.0-1.0-0.34","3","1","jg6r2hpaft2plaa","","null","","sounds/induction/right/ge_SWS.wav","","null","","","","","","","","","","","","","","","","","","","","","","","","","","","","","","","","","","","","","","","","","",""
"html-button-response","124","241718","0.0-4.0-1.0-1.34","3","1","jg6r2hpaft2plaa","","1141.300000011921","","What sound did you hear?","0","","","1","INDUCTION-JUDGMENT","right","0","","","","","","","","","","","","","","","","","","","","","","","","","","","","","","","","","","","","",""
"html-keyboard-response","125","242724","0.0-4.0-1.0-2.34","3","1","jg6r2hpaft2plaa","","null","","<p style=""color:green;""><b>Correct!</b></p>","","null","","","","","","","","","","","","","","","","","","","","","","","","","","","","","","","","","","","","","","","","","",""
"audio-keyboard-response","126","243523","0.0-4.0-1.0-0.35","3","1","jg6r2hpaft2plaa","","null","","sounds/induction/left/me_SWS.wav","","null","","","","","","","","","","","","","","","","","","","","","","","","","","","","","","","","","","","","","","","","","",""
"html-button-response","127","244603","0.0-4.0-1.0-1.35","3","1","jg6r2hpaft2plaa","","1078.3999999761581","","What sound did you hear?","1","","","1","INDUCTION-JUDGMENT","left","1","","","","","","","","","","","","","","","","","","","","","","","","","","","","","","","","","","","","",""
"html-keyboard-response","128","245608","0.0-4.0-1.0-2.35","3","1","jg6r2hpaft2plaa","","null","","<p style=""color:green;""><b>Correct!</b></p>","","null","","","","","","","","","","","","","","","","","","","","","","","","","","","","","","","","","","","","","","","","","",""
"audio-keyboard-response","129","246418","0.0-4.0-1.0-0.36","3","1","jg6r2hpaft2plaa","","null","","sounds/induction/left/ge_SWS.wav","","null","","","","","","","","","","","","","","","","","","","","","","","","","","","","","","","","","","","","","","","","","",""
"html-button-response","130","247512","0.0-4.0-1.0-1.36","3","1","jg6r2hpaft2plaa","","1092.300000011921","","What sound did you hear?","1","","","1","INDUCTION-JUDGMENT","left","1","","","","","","","","","","","","","","","","","","","","","","","","","","","","","","","","","","","","",""
"html-keyboard-response","131","248515","0.0-4.0-1.0-2.36","3","1","jg6r2hpaft2plaa","","null","","<p style=""color:green;""><b>Correct!</b></p>","","null","","","","","","","","","","","","","","","","","","","","","","","","","","","","","","","","","","","","","","","","","",""
"audio-keyboard-response","132","249320","0.0-4.0-1.0-0.37","3","1","jg6r2hpaft2plaa","","null","","sounds/induction/left/ta_SWS.wav","","null","","","","","","","","","","","","","","","","","","","","","","","","","","","","","","","","","","","","","","","","","",""
"html-button-response","133","250279","0.0-4.0-1.0-1.37","3","1","jg6r2hpaft2plaa","","956.6999999880791","","What sound did you hear?","1","","","0","INDUCTION-JUDGMENT","left","0","","","","","","","","","","","","","","","","","","","","","","","","","","","","","","","","","","","","",""
"html-keyboard-response","134","251282","0.0-4.0-1.0-2.37","3","1","jg6r2hpaft2plaa","","null","","<p style=""color:red;""><b>Incorrect!</b></p>","","null","","","","","","","","","","","","","","","","","","","","","","","","","","","","","","","","","","","","","","","","","",""
"audio-keyboard-response","135","252088","0.0-4.0-1.0-0.38","3","1","jg6r2hpaft2plaa","","null","","sounds/induction/right/ni_SWS.wav","","null","","","","","","","","","","","","","","","","","","","","","","","","","","","","","","","","","","","","","","","","","",""
"html-button-response","136","253477","0.0-4.0-1.0-1.38","3","1","jg6r2hpaft2plaa","","1386.7000000178814","","What sound did you hear?","1","","","0","INDUCTION-JUDGMENT","right","0","","","","","","","","","","","","","","","","","","","","","","","","","","","","","","","","","","","","",""
"html-keyboard-response","137","254482","0.0-4.0-1.0-2.38","3","1","jg6r2hpaft2plaa","","null","","<p style=""color:red;""><b>Incorrect!</b></p>","","null","","","","","","","","","","","","","","","","","","","","","","","","","","","","","","","","","","","","","","","","","",""
"audio-keyboard-response","138","255285","0.0-4.0-1.0-0.39","3","1","jg6r2hpaft2plaa","","null","","sounds/induction/left/ti_SWS.wav","","null","","","","","","","","","","","","","","","","","","","","","","","","","","","","","","","","","","","","","","","","","",""
"html-button-response","139","256091","0.0-4.0-1.0-1.39","3","1","jg6r2hpaft2plaa","","804.3999999761581","","What sound did you hear?","0","","","1","INDUCTION-JUDGMENT","left","0","","","","","","","","","","","","","","","","","","","","","","","","","","","","","","","","","","","","",""
"html-keyboard-response","140","257098","0.0-4.0-1.0-2.39","3","1","jg6r2hpaft2plaa","","null","","<p style=""color:green;""><b>Correct!</b></p>","","null","","","","","","","","","","","","","","","","","","","","","","","","","","","","","","","","","","","","","","","","","",""
"audio-keyboard-response","141","257903","0.0-4.0-1.0-0.40","3","1","jg6r2hpaft2plaa","","null","","sounds/induction/right/ni_SWS.wav","","null","","","","","","","","","","","","","","","","","","","","","","","","","","","","","","","","","","","","","","","","","",""
"html-button-response","142","258640","0.0-4.0-1.0-1.40","3","1","jg6r2hpaft2plaa","","735.6999999880791","","What sound did you hear?","0","","","1","INDUCTION-JUDGMENT","right","0","","","","","","","","","","","","","","","","","","","","","","","","","","","","","","","","","","","","",""
"html-keyboard-response","143","259643","0.0-4.0-1.0-2.40","3","1","jg6r2hpaft2plaa","","null","","<p style=""color:green;""><b>Correct!</b></p>","","null","","","","","","","","","","","","","","","","","","","","","","","","","","","","","","","","","","","","","","","","","",""
"audio-keyboard-response","144","260446","0.0-4.0-1.0-0.41","3","1","jg6r2hpaft2plaa","","null","","sounds/induction/right/me_SWS.wav","","null","","","","","","","","","","","","","","","","","","","","","","","","","","","","","","","","","","","","","","","","","",""
"html-button-response","145","261199","0.0-4.0-1.0-1.41","3","1","jg6r2hpaft2plaa","","751.5","","What sound did you hear?","0","","","1","INDUCTION-JUDGMENT","right","0","","","","","","","","","","","","","","","","","","","","","","","","","","","","","","","","","","","","",""
"html-keyboard-response","146","262205","0.0-4.0-1.0-2.41","3","1","jg6r2hpaft2plaa","","null","","<p style=""color:green;""><b>Correct!</b></p>","","null","","","","","","","","","","","","","","","","","","","","","","","","","","","","","","","","","","","","","","","","","",""
"audio-keyboard-response","147","263005","0.0-4.0-1.0-0.42","3","1","jg6r2hpaft2plaa","","null","","sounds/induction/left/pu_SWS.wav","","null","","","","","","","","","","","","","","","","","","","","","","","","","","","","","","","","","","","","","","","","","",""
"html-button-response","148","264571","0.0-4.0-1.0-1.42","3","1","jg6r2hpaft2plaa","","1563.6000000238419","","What sound did you hear?","1","","","0","INDUCTION-JUDGMENT","left","0","","","","","","","","","","","","","","","","","","","","","","","","","","","","","","","","","","","","",""
"html-keyboard-response","149","265576","0.0-4.0-1.0-2.42","3","1","jg6r2hpaft2plaa","","null","","<p style=""color:red;""><b>Incorrect!</b></p>","","null","","","","","","","","","","","","","","","","","","","","","","","","","","","","","","","","","","","","","","","","","",""
"audio-keyboard-response","150","266382","0.0-4.0-1.0-0.43","3","1","jg6r2hpaft2plaa","","null","","sounds/induction/right/ta_SWS.wav","","null","","","","","","","","","","","","","","","","","","","","","","","","","","","","","","","","","","","","","","","","","",""
"html-button-response","151","267425","0.0-4.0-1.0-1.43","3","1","jg6r2hpaft2plaa","","1041.0999999940395","","What sound did you hear?","1","","","1","INDUCTION-JUDGMENT","right","1","","","","","","","","","","","","","","","","","","","","","","","","","","","","","","","","","","","","",""
"html-keyboard-response","152","268429","0.0-4.0-1.0-2.43","3","1","jg6r2hpaft2plaa","","null","","<p style=""color:green;""><b>Correct!</b></p>","","null","","","","","","","","","","","","","","","","","","","","","","","","","","","","","","","","","","","","","","","","","",""
"audio-keyboard-response","153","269231","0.0-4.0-1.0-0.44","3","1","jg6r2hpaft2plaa","","null","","sounds/induction/left/re_SWS.wav","","null","","","","","","","","","","","","","","","","","","","","","","","","","","","","","","","","","","","","","","","","","",""
"html-button-response","154","269863","0.0-4.0-1.0-1.44","3","1","jg6r2hpaft2plaa","","630.2000000178814","","What sound did you hear?","0","","","1","INDUCTION-JUDGMENT","left","0","","","","","","","","","","","","","","","","","","","","","","","","","","","","","","","","","","","","",""
"html-keyboard-response","155","270866","0.0-4.0-1.0-2.44","3","1","jg6r2hpaft2plaa","","null","","<p style=""color:green;""><b>Correct!</b></p>","","null","","","","","","","","","","","","","","","","","","","","","","","","","","","","","","","","","","","","","","","","","",""
"audio-keyboard-response","156","271675","0.0-4.0-1.0-0.45","3","1","jg6r2hpaft2plaa","","null","","sounds/induction/right/fe_SWS.wav","","null","","","","","","","","","","","","","","","","","","","","","","","","","","","","","","","","","","","","","","","","","",""
"html-button-response","157","272430","0.0-4.0-1.0-1.45","3","1","jg6r2hpaft2plaa","","754.1999999880791","","What sound did you hear?","1","","","0","INDUCTION-JUDGMENT","right","0","","","","","","","","","","","","","","","","","","","","","","","","","","","","","","","","","","","","",""
"html-keyboard-response","158","273436","0.0-4.0-1.0-2.45","3","1","jg6r2hpaft2plaa","","null","","<p style=""color:red;""><b>Incorrect!</b></p>","","null","","","","","","","","","","","","","","","","","","","","","","","","","","","","","","","","","","","","","","","","","",""
"audio-keyboard-response","159","274241","0.0-4.0-1.0-0.46","3","1","jg6r2hpaft2plaa","","null","","sounds/induction/right/fe_SWS.wav","","null","","","","","","","","","","","","","","","","","","","","","","","","","","","","","","","","","","","","","","","","","",""
"html-button-response","160","275812","0.0-4.0-1.0-1.46","3","1","jg6r2hpaft2plaa","","1569.5999999940395","","What sound did you hear?","0","","","1","INDUCTION-JUDGMENT","right","0","","","","","","","","","","","","","","","","","","","","","","","","","","","","","","","","","","","","",""
"html-keyboard-response","161","276818","0.0-4.0-1.0-2.46","3","1","jg6r2hpaft2plaa","","null","","<p style=""color:green;""><b>Correct!</b></p>","","null","","","","","","","","","","","","","","","","","","","","","","","","","","","","","","","","","","","","","","","","","",""
"audio-keyboard-response","162","277623","0.0-4.0-1.0-0.47","3","1","jg6r2hpaft2plaa","","null","","sounds/induction/right/su_SWS.wav","","null","","","","","","","","","","","","","","","","","","","","","","","","","","","","","","","","","","","","","","","","","",""
"html-button-response","163","279007","0.0-4.0-1.0-1.47","3","1","jg6r2hpaft2plaa","","1381.5999999940395","","What sound did you hear?","1","","","1","INDUCTION-JUDGMENT","right","1","","","","","","","","","","","","","","","","","","","","","","","","","","","","","","","","","","","","",""
"html-keyboard-response","164","280012","0.0-4.0-1.0-2.47","3","1","jg6r2hpaft2plaa","","null","","<p style=""color:green;""><b>Correct!</b></p>","","null","","","","","","","","","","","","","","","","","","","","","","","","","","","","","","","","","","","","","","","","","",""
"html-button-response","165","612839","0.0-5.0-0.0","3","1","jg6r2hpaft2plaa","","332336","","<p>Thank you for your answers.</p><p>You will now listen to similar sounds. The main difference is that the sounds will be longer and will make up complete sentences.</p><p>Please listen carefully to each sentence. After each sentence, you will be asked to type back what you heard to the best of your ability. After you provide your response, you will be given feedback about the correct answer.</p><p>There are 10 sentences in total.","0","","","","","","","","","","","","","","","","","","","","","","","","","","","","","","","","","","","","","","","","","","",""
"audio-keyboard-response","166","615967","0.0-5.0-1.0-0.0","3","1","jg6r2hpaft2plaa","","null","","sounds/sentences/left/14_03_cfSWS.wav","","null","","","","","","","","","","","","","","","","","","","","","","","","","","","","","","","","","","","","","","","","","",""
"sentence-resp","167","629950","0.0-5.0-1.0-1.0","3","1","jg6r2hpaft2plaa","","13977","","","","","","","SWS-SENT-RESPONSE","","","{""Q0"":""raa ruu raa ree""}","Pluck the bright rose without leaves.","pluck,bright,rose,without,leaves","RAA RUU RAA REE","0","0","0","0","0","0","0","","","","","","","","","","","","","","","","","","","","","","","","","",""
"html-keyboard-response","168","631211","0.0-5.0-1.0-2.0","3","1","jg6r2hpaft2plaa","","null","","","","null","","","","","","","","","","","","","","","","","","","","","","","","","","","","","","","","","","","","","","","","","",""
"audio-keyboard-response","169","633296","0.0-5.0-1.0-3.0","3","1","jg6r2hpaft2plaa","","null","","sounds/sentences/left/14_03_cfSWS.wav","","null","","","","","","","","","","","","","","","","","","","","","","","","","","","","","","","","","","","","","","","","","",""
"html-keyboard-response","170","634302","0.0-5.0-1.0-4.0","3","1","jg6r2hpaft2plaa","","null","","","","null","","","","","","","","","","","","","","","","","","","","","","","","","","","","","","","","","","","","","","","","","",""
"html-button-response","171","639250","0.0-5.0-1.0-5.0","3","1","jg6r2hpaft2plaa","","4442","","<p>Press the button below when you are ready to continue.</p>","0","","","","","","","","","","","","","","","","","","","","","","","","","","","","","","","","","","","","","","","","","","",""
"audio-keyboard-response","172","642145","0.0-5.0-1.0-0.1","3","1","jg6r2hpaft2plaa","","null","","sounds/sentences/right/14_07_cfSWS.wav","","null","","","","","","","","","","","","","","","","","","","","","","","","","","","","","","","","","","","","","","","","","",""
"sentence-resp","173","664563","0.0-5.0-1.0-1.1","3","1","jg6r2hpaft2plaa","","22416","","","","","","","SWS-SENT-RESPONSE","","","{""Q0"":""wee ruu wee oo wee wee""}","Write a fond note to the friend you cherish.","write,fond,note,friend,cherish","WEE RUU WEE OO WEE WEE","0","0","0","0","0","0","0","","","","","","","","","","","","","","","","","","","","","","","","","",""
"html-keyboard-response","174","665824","0.0-5.0-1.0-2.1","3","1","jg6r2hpaft2plaa","","null","","","","null","","","","","","","","","","","","","","","","","","","","","","","","","","","","","","","","","","","","","","","","","",""
"audio-keyboard-response","175","668212","0.0-5.0-1.0-3.1","3","1","jg6r2hpaft2plaa","","null","","sounds/sentences/right/14_07_cfSWS.wav","","null","","","","","","","","","","","","","","","","","","","","","","","","","","","","","","","","","","","","","","","","","",""
"html-keyboard-response","176","669218","0.0-5.0-1.0-4.1","3","1","jg6r2hpaft2plaa","","null","","","","null","","","","","","","","","","","","","","","","","","","","","","","","","","","","","","","","","","","","","","","","","",""
"html-button-response","177","688268","0.0-5.0-1.0-5.1","3","1","jg6r2hpaft2plaa","","18544.20000001788","","<p>Press the button below when you are ready to continue.</p>","0","","","","","","","","","","","","","","","","","","","","","","","","","","","","","","","","","","","","","","","","","","",""
"audio-keyboard-response","178","691088","0.0-5.0-1.0-0.2","3","1","jg6r2hpaft2plaa","","null","","sounds/sentences/left/14_02_cfSWS.wav","","null","","","","","","","","","","","","","","","","","","","","","","","","","","","","","","","","","","","","","","","","","",""
"sentence-resp","179","701978","0.0-5.0-1.0-1.2","3","1","jg6r2hpaft2plaa","","10887","","","","","","","SWS-SENT-RESPONSE","","","{""Q0"":""you have the same type of dirty gloves\n""}","He said the same phrase thirty times.","said,same,phrase,thirty,times","YOU HAVE THE SAME TYPE OF DIRTY GLOVES ","0","1","0","0","0","1","0.2","","","","","","","","","","","","","","","","","","","","","","","","","",""
"html-keyboard-response","180","703233","0.0-5.0-1.0-2.2","3","1","jg6r2hpaft2plaa","","null","","","","null","","","","","","","","","","","","","","","","","","","","","","","","","","","","","","","","","","","","","","","","","",""
"audio-keyboard-response","181","705550","0.0-5.0-1.0-3.2","3","1","jg6r2hpaft2plaa","","null","","sounds/sentences/left/14_02_cfSWS.wav","","null","","","","","","","","","","","","","","","","","","","","","","","","","","","","","","","","","","","","","","","","","",""
"html-keyboard-response","182","706551","0.0-5.0-1.0-4.2","3","1","jg6r2hpaft2plaa","","null","","","","null","","","","","","","","","","","","","","","","","","","","","","","","","","","","","","","","","","","","","","","","","",""
"html-button-response","183","709687","0.0-5.0-1.0-5.2","3","1","jg6r2hpaft2plaa","","2630.800000011921","","<p>Press the button below when you are ready to continue.</p>","0","","","","","","","","","","","","","","","","","","","","","","","","","","","","","","","","","","","","","","","","","","",""
"audio-keyboard-response","184","712679","0.0-5.0-1.0-0.3","3","1","jg6r2hpaft2plaa","","null","","sounds/sentences/left/14_05_cfSWS.wav","","null","","","","","","","","","","","","","","","","","","","","","","","","","","","","","","","","","","","","","","","","","",""
"sentence-resp","185","724815","0.0-5.0-1.0-1.3","3","1","jg6r2hpaft2plaa","","12133","","","","","","","SWS-SENT-RESPONSE","","","{""Q0"":""you have to get your eyes checked by the girls\n""}","The glow deepened in the eyes of the sweet girl.","glow,deepened,eyes,sweet,girl","YOU HAVE TO GET YOUR EYES CHECKED BY THE GIRLS ","0","0","1","0","0","1","0.2","","","","","","","","","","","","","","","","","","","","","","","","","",""
"html-keyboard-response","186","726075","0.0-5.0-1.0-2.3","3","1","jg6r2hpaft2plaa","","null","","","","null","","","","","","","","","","","","","","","","","","","","","","","","","","","","","","","","","","","","","","","","","",""
"audio-keyboard-response","187","728564","0.0-5.0-1.0-3.3","3","1","jg6r2hpaft2plaa","","null","","sounds/sentences/left/14_05_cfSWS.wav","","null","","","","","","","","","","","","","","","","","","","","","","","","","","","","","","","","","","","","","","","","","",""
"html-keyboard-response","188","729569","0.0-5.0-1.0-4.3","3","1","jg6r2hpaft2plaa","","null","","","","null","","","","","","","","","","","","","","","","","","","","","","","","","","","","","","","","","","","","","","","","","",""
"html-button-response","189","731573","0.0-5.0-1.0-5.3","3","1","jg6r2hpaft2plaa","","1500.7000000178814","","<p>Press the button below when you are ready to continue.</p>","0","","","","","","","","","","","","","","","","","","","","","","","","","","","","","","","","","","","","","","","","","","",""
"audio-keyboard-response","190","734333","0.0-5.0-1.0-0.4","3","1","jg6r2hpaft2plaa","","null","","sounds/sentences/right/14_08_cfSWS.wav","","null","","","","","","","","","","","","","","","","","","","","","","","","","","","","","","","","","","","","","","","","","",""
"sentence-resp","191","748563","0.0-5.0-1.0-1.4","3","1","jg6r2hpaft2plaa","","14227","","","","","","","SWS-SENT-RESPONSE","","","{""Q0"":""you have to go take the cups out of your room\n""}","Clothes and lodging are free to new men.","clothes,lodging,free,new,men","YOU HAVE TO GO TAKE THE CUPS OUT OF YOUR ROOM ","0","0","0","0","0","0","0","","","","","","","","","","","","","","","","","","","","","","","","","",""
"html-keyboard-response","192","749822","0.0-5.0-1.0-2.4","3","1","jg6r2hpaft2plaa","","null","","","","null","","","","","","","","","","","","","","","","","","","","","","","","","","","","","","","","","","","","","","","","","",""
"audio-keyboard-response","193","752078","0.0-5.0-1.0-3.4","3","1","jg6r2hpaft2plaa","","null","","sounds/sentences/right/14_08_cfSWS.wav","","null","","","","","","","","","","","","","","","","","","","","","","","","","","","","","","","","","","","","","","","","","",""
"html-keyboard-response","194","753085","0.0-5.0-1.0-4.4","3","1","jg6r2hpaft2plaa","","null","","","","null","","","","","","","","","","","","","","","","","","","","","","","","","","","","","","","","","","","","","","","","","",""
"html-button-response","195","757826","0.0-5.0-1.0-5.4","3","1","jg6r2hpaft2plaa","","4236.700000017881","","<p>Press the button below when you are ready to continue.</p>","0","","","","","","","","","","","","","","","","","","","","","","","","","","","","","","","","","","","","","","","","","","",""
"audio-keyboard-response","196","760846","0.0-5.0-1.0-0.5","3","1","jg6r2hpaft2plaa","","null","","sounds/sentences/right/14_10_cfSWS.wav","","null","","","","","","","","","","","","","","","","","","","","","","","","","","","","","","","","","","","","","","","","","",""
"sentence-resp","197","777376","0.0-5.0-1.0-1.5","3","1","jg6r2hpaft2plaa","","16526","","","","","","","SWS-SENT-RESPONSE","","","{""Q0"":""sportschek has sales online before it ends\n""}","Port is a strong wine with a smoky taste.","port,strong,wine,smoky,taste","SPORTSCHEK HAS SALES ONLINE BEFORE IT ENDS ","0","0","0","0","0","0","0","","","","","","","","","","","","","","","","","","","","","","","","","",""
"html-keyboard-response","198","778638","0.0-5.0-1.0-2.5","3","1","jg6r2hpaft2plaa","","null","","","","null","","","","","","","","","","","","","","","","","","","","","","","","","","","","","","","","","","","","","","","","","",""
"audio-keyboard-response","199","781157","0.0-5.0-1.0-3.5","3","1","jg6r2hpaft2plaa","","null","","sounds/sentences/right/14_10_cfSWS.wav","","null","","","","","","","","","","","","","","","","","","","","","","","","","","","","","","","","","","","","","","","","","",""
"html-keyboard-response","200","782163","0.0-5.0-1.0-4.5","3","1","jg6r2hpaft2plaa","","null","","","","null","","","","","","","","","","","","","","","","","","","","","","","","","","","","","","","","","","","","","","","","","",""
"html-button-response","201","783469","0.0-5.0-1.0-5.5","3","1","jg6r2hpaft2plaa","","804.1000000238419","","<p>Press the button below when you are ready to continue.</p>","0","","","","","","","","","","","","","","","","","","","","","","","","","","","","","","","","","","","","","","","","","","",""
"audio-keyboard-response","202","786201","0.0-5.0-1.0-0.6","3","1","jg6r2hpaft2plaa","","null","","sounds/sentences/right/14_09_cfSWS.wav","","null","","","","","","","","","","","","","","","","","","","","","","","","","","","","","","","","","","","","","","","","","",""
"sentence-resp","203","805670","0.0-5.0-1.0-1.6","3","1","jg6r2hpaft2plaa","","19466","","","","","","","SWS-SENT-RESPONSE","","","{""Q0"":""we strongly advise using the bathroom""}","We frown when events take a bad turn.","frown,events,take,bad,turn","WE STRONGLY ADVISE USING THE BATHROOM","0","0","0","0","0","0","0","","","","","","","","","","","","","","","","","","","","","","","","","",""
"html-keyboard-response","204","806927","0.0-5.0-1.0-2.6","3","1","jg6r2hpaft2plaa","","null","","","","null","","","","","","","","","","","","","","","","","","","","","","","","","","","","","","","","","","","","","","","","","",""
"audio-keyboard-response","205","809153","0.0-5.0-1.0-3.6","3","1","jg6r2hpaft2plaa","","null","","sounds/sentences/right/14_09_cfSWS.wav","","null","","","","","","","","","","","","","","","","","","","","","","","","","","","","","","","","","","","","","","","","","",""
"html-keyboard-response","206","810160","0.0-5.0-1.0-4.6","3","1","jg6r2hpaft2plaa","","null","","","","null","","","","","","","","","","","","","","","","","","","","","","","","","","","","","","","","","","","","","","","","","",""
"html-button-response","207","842845","0.0-5.0-1.0-5.6","3","1","jg6r2hpaft2plaa","","32180.79999998212","","<p>Press the button below when you are ready to continue.</p>","0","","","","","","","","","","","","","","","","","","","","","","","","","","","","","","","","","","","","","","","","","","",""
"audio-keyboard-response","208","845891","0.0-5.0-1.0-0.7","3","1","jg6r2hpaft2plaa","","null","","sounds/sentences/right/14_06_cfSWS.wav","","null","","","","","","","","","","","","","","","","","","","","","","","","","","","","","","","","","","","","","","","","","",""
"sentence-resp","209","860833","0.0-5.0-1.0-1.7","3","1","jg6r2hpaft2plaa","","14939","","","","","","","SWS-SENT-RESPONSE","","","{""Q0"":""we strongly advise you not to eat the cheese""}","Bring your problems to the wise chief.","bring,your,problems,wise,chief","WE STRONGLY ADVISE YOU NOT TO EAT THE CHEESE","0","0","0","0","0","0","0","","","","","","","","","","","","","","","","","","","","","","","","","",""
"html-keyboard-response","210","862094","0.0-5.0-1.0-2.7","3","1","jg6r2hpaft2plaa","","null","","","","null","","","","","","","","","","","","","","","","","","","","","","","","","","","","","","","","","","","","","","","","","",""
"audio-keyboard-response","211","864337","0.0-5.0-1.0-3.7","3","1","jg6r2hpaft2plaa","","null","","sounds/sentences/right/14_06_cfSWS.wav","","null","","","","","","","","","","","","","","","","","","","","","","","","","","","","","","","","","","","","","","","","","",""
"html-keyboard-response","212","865341","0.0-5.0-1.0-4.7","3","1","jg6r2hpaft2plaa","","null","","","","null","","","","","","","","","","","","","","","","","","","","","","","","","","","","","","","","","","","","","","","","","",""
"html-button-response","213","911080","0.0-5.0-1.0-5.7","3","1","jg6r2hpaft2plaa","","45237.69999998808","","<p>Press the button below when you are ready to continue.</p>","0","","","","","","","","","","","","","","","","","","","","","","","","","","","","","","","","","","","","","","","","","","",""
"audio-keyboard-response","214","914764","0.0-5.0-1.0-0.8","3","1","jg6r2hpaft2plaa","","null","","sounds/sentences/left/14_01_cfSWS.wav","","null","","","","","","","","","","","","","","","","","","","","","","","","","","","","","","","","","","","","","","","","","",""
"sentence-resp","215","930892","0.0-5.0-1.0-1.8","3","1","jg6r2hpaft2plaa","","16126","","","","","","","SWS-SENT-RESPONSE","","","{""Q0"":""the crab is as small as the children""}","A cramp is no small danger on a swim.","cramp,no,small,danger,swim","THE CRAB IS AS SMALL AS THE CHILDREN","0","0","1","0","0","1","0.2","","","","","","","","","","","","","","","","","","","","","","","","","",""
"html-keyboard-response","216","932150","0.0-5.0-1.0-2.8","3","1","jg6r2hpaft2plaa","","null","","","","null","","","","","","","","","","","","","","","","","","","","","","","","","","","","","","","","","","","","","","","","","",""
"audio-keyboard-response","217","934767","0.0-5.0-1.0-3.8","3","1","jg6r2hpaft2plaa","","null","","sounds/sentences/left/14_01_cfSWS.wav","","null","","","","","","","","","","","","","","","","","","","","","","","","","","","","","","","","","","","","","","","","","",""
"html-keyboard-response","218","935772","0.0-5.0-1.0-4.8","3","1","jg6r2hpaft2plaa","","null","","","","null","","","","","","","","","","","","","","","","","","","","","","","","","","","","","","","","","","","","","","","","","",""
"html-button-response","219","959659","0.0-5.0-1.0-5.8","3","1","jg6r2hpaft2plaa","","23384.90000000596","","<p>Press the button below when you are ready to continue.</p>","0","","","","","","","","","","","","","","","","","","","","","","","","","","","","","","","","","","","","","","","","","","",""
"audio-keyboard-response","220","962219","0.0-5.0-1.0-0.9","3","1","jg6r2hpaft2plaa","","null","","sounds/sentences/left/14_04_cfSWS.wav","","null","","","","","","","","","","","","","","","","","","","","","","","","","","","","","","","","","","","","","","","","","",""
"sentence-resp","221","1018864","0.0-5.0-1.0-1.9","3","1","jg6r2hpaft2plaa","","56643","","","","","","","SWS-SENT-RESPONSE","","","{""Q0"":""you have to respond to him ""}","Two plus seven is less than ten.","two,plus,seven,less,ten","YOU HAVE TO RESPOND TO HIM ","0","0","0","0","0","0","0","","","","","","","","","","","","","","","","","","","","","","","","","",""
"html-keyboard-response","222","1020123","0.0-5.0-1.0-2.9","3","1","jg6r2hpaft2plaa","","null","","","","null","","","","","","","","","","","","","","","","","","","","","","","","","","","","","","","","","","","","","","","","","",""
"audio-keyboard-response","223","1022663","0.0-5.0-1.0-3.9","3","1","jg6r2hpaft2plaa","","null","","sounds/sentences/left/14_04_cfSWS.wav","","null","","","","","","","","","","","","","","","","","","","","","","","","","","","","","","","","","","","","","","","","","",""
"html-keyboard-response","224","1023665","0.0-5.0-1.0-4.9","3","1","jg6r2hpaft2plaa","","null","","","","null","","","","","","","","","","","","","","","","","","","","","","","","","","","","","","","","","","","","","","","","","",""
"html-button-response","225","1034668","0.0-5.0-1.0-5.9","3","1","jg6r2hpaft2plaa","","10498.600000023842","","<p>Press the button below when you are ready to continue.</p>","0","","","","","","","","","","","","","","","","","","","","","","","","","","","","","","","","","","","","","","","","","","",""
"html-keyboard-response","226","1048214","0.0-6.0-0.0","3","1","jg6r2hpaft2plaa","","13039.40000000596","","<p>In this part of the study, you will hear sounds similar to those you just heard.</p><p>Please focus on these sounds, as you may be asked questions about them later.</p><p>Occasionally, the sounds will pause for up to two seconds. When this happens, please press SPACEBAR as quickly as you can.</br>This helps ensure that you are paying attention to the sounds.</p><p>This part of the study will take about 12 minutes to complete, and you will be given the opportunity to take a couple of short breaks every few minutes.</p><p><strong>Press SPACEBAR to begin</strong></p>","","32","","","","","","","","","","","","","","","","","","","","","","","","","","","","","","","","","","","","","","","","","",""
"html-keyboard-response","227","1049217","0.0-6.0-1.0-0.0","3","1","jg6r2hpaft2plaa","","null","","<p style=""font-size: 40px;"">+</p>","","null","","","","","","","","","","","","","","","","","","","","","","","","","","","","","","","","","","","","","","","","","",""
"html-keyboard-response","228","1234231","0.0-6.0-1.0-1.0","3","1","jg6r2hpaft2plaa","","null","","","","null","","","SL-TRAIN","","","","","","","","","","","","","","0","1334.300000011921","1215.800000011921","sounds/C/TRAIN/SEQ__04.mp3","4","","","","","","","","","","","","","","","","","","","","",""
"html-button-response","229","1247850","0.0-6.0-1.0-2.0","3","1","jg6r2hpaft2plaa","","13617.40000000596","","<p>You may take a short break if you wish.</p>","0","","","","","","","","","","","","","","","","","","","","","","","","","","","","","","","","","","","","","","","","","","",""
"html-keyboard-response","230","1248854","0.0-6.0-1.0-3.0","3","1","jg6r2hpaft2plaa","","null","","<p style=""font-size: 40px;"">+</p>","","null","","","","","","","","","","","","","","","","","","","","","","","","","","","","","","","","","","","","","","","","","",""
"html-keyboard-response","231","1433856","0.0-6.0-1.0-4.0","3","1","jg6r2hpaft2plaa","","null","","","","null","","","SL-TRAIN","","","","","","","","","","","","","","0","1304.9000000059605","1300","sounds/C/TRAIN/SEQ__02.mp3","5","","","","","","","","","","","","","","","","","","","","",""
"html-button-response","232","1438445","0.0-6.0-1.0-5.0","3","1","jg6r2hpaft2plaa","","4586.199999988079","","<p>You may take a short break if you wish.</p>","0","","","","","","","","","","","","","","","","","","","","","","","","","","","","","","","","","","","","","","","","","","",""
"html-keyboard-response","233","1439447","0.0-6.0-1.0-6.0","3","1","jg6r2hpaft2plaa","","null","","<p style=""font-size: 40px;"">+</p>","","null","","","","","","","","","","","","","","","","","","","","","","","","","","","","","","","","","","","","","","","","","",""
"html-keyboard-response","234","1624445","0.0-6.0-1.0-7.0","3","1","jg6r2hpaft2plaa","","null","","","","null","","","SL-TRAIN","","","","","","","","","","","","","","0","1556.1000000238419","1254.7000000178814","sounds/C/TRAIN/SEQ__03.mp3","8","","","","","","","","","","","","","","","","","","","","",""
"html-button-response","235","1625832","0.0-6.0-1.0-8.0","3","1","jg6r2hpaft2plaa","","1384.300000011921","","<p>You may take a short break if you wish.</p>","0","","","","","","","","","","","","","","","","","","","","","","","","","","","","","","","","","","","","","","","","","","",""
"html-keyboard-response","236","1626837","0.0-6.0-1.0-9.0","3","1","jg6r2hpaft2plaa","","null","","<p style=""font-size: 40px;"">+</p>","","null","","","","","","","","","","","","","","","","","","","","","","","","","","","","","","","","","","","","","","","","","",""
"html-keyboard-response","237","1811835","0.0-6.0-1.0-10.0","3","1","jg6r2hpaft2plaa","","null","","","","null","","","SL-TRAIN","","","","","","","","","","","","","","0","1310.7999999821186","1403.699999988079","sounds/C/TRAIN/SEQ__08.mp3","8","","","","","","","","","","","","","","","","","","","","",""
"html-button-response","238","1814130","0.0-6.0-1.0-11.0","3","1","jg6r2hpaft2plaa","","2293.0999999940395","","<p>You may take a short break if you wish.</p>","0","","","","","","","","","","","","","","","","","","","","","","","","","","","","","","","","","","","","","","","","","","",""
"html-button-response","239","1820999","0.0-7.0-0.0","3","1","jg6r2hpaft2plaa","","6867.200000017881","","<p>Welcome to the second part of the study. This is a <u>familiarity task</u>.</p><p>You will now hear short sounds and will be asked to rate how familiar they sound to you <b>based on what you heard in the previous part of the study</b>.</p><p>You will rate 12 sounds in total.</p>","0","","","","","","","","","","","","","","","","","","","","","","","","","","","","","","","","","","","","","","","","","","",""
"html-keyboard-response","240","1822005","0.0-7.0-1.0-0.0","3","1","jg6r2hpaft2plaa","","null","","","","null","","","","","","","","","","","","","","","","","","","","","","","","","","","","","","","","","","","","","","","","","",""
"audio-keyboard-response","241","1822949","0.0-7.0-1.0-1.0","3","1","jg6r2hpaft2plaa","","null","","sounds/C/FAM/W003.mp3","","null","","","","","","","","","","","","","","","","","","","","","","","","","","","","","","","","","","","","","","","","","",""
"html-keyboard-response","242","1827800","0.0-7.0-1.0-2.0","3","1","jg6r2hpaft2plaa","","4346.5","","<p>How familiar did this sound to you?</p><p>1&nbsp;&nbsp;&nbsp;&nbsp;&nbsp;&nbsp;&nbsp;&nbsp;&nbsp;&nbsp;&nbsp;&nbsp;&nbsp;&nbsp;&nbsp;&nbsp;&nbsp;&nbsp;&nbsp;2&nbsp;&nbsp;&nbsp;&nbsp;&nbsp;&nbsp;&nbsp;&nbsp;&nbsp;&nbsp;&nbsp;&nbsp;&nbsp;&nbsp;&nbsp;&nbsp;&nbsp;&nbsp;&nbsp;3&nbsp;&nbsp;&nbsp;&nbsp;&nbsp;&nbsp;&nbsp;&nbsp;&nbsp;&nbsp;&nbsp;&nbsp;&nbsp;&nbsp;&nbsp;&nbsp;&nbsp;&nbsp;&nbsp;4</p><p style=""font-size:14px"">Not at all familiar&nbsp;&nbsp;&nbsp;&nbsp;A little familiar&nbsp;&nbsp;&nbsp;Moderately familiar&nbsp;&nbsp;&nbsp;Extremely familiar</p><p>(press the corresponding number on your keyboard)</p>","","52","","","FAM-RESPONSE","","","","","","","","","","","","","","","","","","","sounds/C/FAM/W003.mp3","word","","","","","","","","","","","","","","","","","","",""
"html-keyboard-response","243","1829809","0.0-7.0-1.0-0.1","3","1","jg6r2hpaft2plaa","","null","","","","null","","","","","","","","","","","","","","","","","","","","","","","","","","","","","","","","","","","","","","","","","",""
"audio-keyboard-response","244","1830750","0.0-7.0-1.0-1.1","3","1","jg6r2hpaft2plaa","","null","","sounds/C/FAM/P001.mp3","","null","","","","","","","","","","","","","","","","","","","","","","","","","","","","","","","","","","","","","","","","","",""
"html-keyboard-response","245","1832379","0.0-7.0-1.0-2.1","3","1","jg6r2hpaft2plaa","","1124.199999988079","","<p>How familiar did this sound to you?</p><p>1&nbsp;&nbsp;&nbsp;&nbsp;&nbsp;&nbsp;&nbsp;&nbsp;&nbsp;&nbsp;&nbsp;&nbsp;&nbsp;&nbsp;&nbsp;&nbsp;&nbsp;&nbsp;&nbsp;2&nbsp;&nbsp;&nbsp;&nbsp;&nbsp;&nbsp;&nbsp;&nbsp;&nbsp;&nbsp;&nbsp;&nbsp;&nbsp;&nbsp;&nbsp;&nbsp;&nbsp;&nbsp;&nbsp;3&nbsp;&nbsp;&nbsp;&nbsp;&nbsp;&nbsp;&nbsp;&nbsp;&nbsp;&nbsp;&nbsp;&nbsp;&nbsp;&nbsp;&nbsp;&nbsp;&nbsp;&nbsp;&nbsp;4</p><p style=""font-size:14px"">Not at all familiar&nbsp;&nbsp;&nbsp;&nbsp;A little familiar&nbsp;&nbsp;&nbsp;Moderately familiar&nbsp;&nbsp;&nbsp;Extremely familiar</p><p>(press the corresponding number on your keyboard)</p>","","52","","","FAM-RESPONSE","","","","","","","","","","","","","","","","","","","sounds/C/FAM/P001.mp3","partword","","","","","","","","","","","","","","","","","","",""
"html-keyboard-response","246","1834388","0.0-7.0-1.0-0.2","3","1","jg6r2hpaft2plaa","","null","","","","null","","","","","","","","","","","","","","","","","","","","","","","","","","","","","","","","","","","","","","","","","",""
"audio-keyboard-response","247","1835332","0.0-7.0-1.0-1.2","3","1","jg6r2hpaft2plaa","","null","","sounds/C/FAM/N004.mp3","","null","","","","","","","","","","","","","","","","","","","","","","","","","","","","","","","","","","","","","","","","","",""
"html-keyboard-response","248","1837208","0.0-7.0-1.0-2.2","3","1","jg6r2hpaft2plaa","","1372.5999999940395","","<p>How familiar did this sound to you?</p><p>1&nbsp;&nbsp;&nbsp;&nbsp;&nbsp;&nbsp;&nbsp;&nbsp;&nbsp;&nbsp;&nbsp;&nbsp;&nbsp;&nbsp;&nbsp;&nbsp;&nbsp;&nbsp;&nbsp;2&nbsp;&nbsp;&nbsp;&nbsp;&nbsp;&nbsp;&nbsp;&nbsp;&nbsp;&nbsp;&nbsp;&nbsp;&nbsp;&nbsp;&nbsp;&nbsp;&nbsp;&nbsp;&nbsp;3&nbsp;&nbsp;&nbsp;&nbsp;&nbsp;&nbsp;&nbsp;&nbsp;&nbsp;&nbsp;&nbsp;&nbsp;&nbsp;&nbsp;&nbsp;&nbsp;&nbsp;&nbsp;&nbsp;4</p><p style=""font-size:14px"">Not at all familiar&nbsp;&nbsp;&nbsp;&nbsp;A little familiar&nbsp;&nbsp;&nbsp;Moderately familiar&nbsp;&nbsp;&nbsp;Extremely familiar</p><p>(press the corresponding number on your keyboard)</p>","","52","","","FAM-RESPONSE","","","","","","","","","","","","","","","","","","","sounds/C/FAM/N004.mp3","nonword","","","","","","","","","","","","","","","","","","",""
"html-keyboard-response","249","1839216","0.0-7.0-1.0-0.3","3","1","jg6r2hpaft2plaa","","null","","","","null","","","","","","","","","","","","","","","","","","","","","","","","","","","","","","","","","","","","","","","","","",""
"audio-keyboard-response","250","1840162","0.0-7.0-1.0-1.3","3","1","jg6r2hpaft2plaa","","null","","sounds/C/FAM/W002.mp3","","null","","","","","","","","","","","","","","","","","","","","","","","","","","","","","","","","","","","","","","","","","",""
"html-keyboard-response","251","1841147","0.0-7.0-1.0-2.3","3","1","jg6r2hpaft2plaa","","483.19999998807907","","<p>How familiar did this sound to you?</p><p>1&nbsp;&nbsp;&nbsp;&nbsp;&nbsp;&nbsp;&nbsp;&nbsp;&nbsp;&nbsp;&nbsp;&nbsp;&nbsp;&nbsp;&nbsp;&nbsp;&nbsp;&nbsp;&nbsp;2&nbsp;&nbsp;&nbsp;&nbsp;&nbsp;&nbsp;&nbsp;&nbsp;&nbsp;&nbsp;&nbsp;&nbsp;&nbsp;&nbsp;&nbsp;&nbsp;&nbsp;&nbsp;&nbsp;3&nbsp;&nbsp;&nbsp;&nbsp;&nbsp;&nbsp;&nbsp;&nbsp;&nbsp;&nbsp;&nbsp;&nbsp;&nbsp;&nbsp;&nbsp;&nbsp;&nbsp;&nbsp;&nbsp;4</p><p style=""font-size:14px"">Not at all familiar&nbsp;&nbsp;&nbsp;&nbsp;A little familiar&nbsp;&nbsp;&nbsp;Moderately familiar&nbsp;&nbsp;&nbsp;Extremely familiar</p><p>(press the corresponding number on your keyboard)</p>","","52","","","FAM-RESPONSE","","","","","","","","","","","","","","","","","","","sounds/C/FAM/W002.mp3","word","","","","","","","","","","","","","","","","","","",""
"html-keyboard-response","252","1843156","0.0-7.0-1.0-0.4","3","1","jg6r2hpaft2plaa","","null","","","","null","","","","","","","","","","","","","","","","","","","","","","","","","","","","","","","","","","","","","","","","","",""
"audio-keyboard-response","253","1844094","0.0-7.0-1.0-1.4","3","1","jg6r2hpaft2plaa","","null","","sounds/C/FAM/W004.mp3","","null","","","","","","","","","","","","","","","","","","","","","","","","","","","","","","","","","","","","","","","","","",""
"html-keyboard-response","254","1845387","0.0-7.0-1.0-2.4","3","1","jg6r2hpaft2plaa","","789.0999999940395","","<p>How familiar did this sound to you?</p><p>1&nbsp;&nbsp;&nbsp;&nbsp;&nbsp;&nbsp;&nbsp;&nbsp;&nbsp;&nbsp;&nbsp;&nbsp;&nbsp;&nbsp;&nbsp;&nbsp;&nbsp;&nbsp;&nbsp;2&nbsp;&nbsp;&nbsp;&nbsp;&nbsp;&nbsp;&nbsp;&nbsp;&nbsp;&nbsp;&nbsp;&nbsp;&nbsp;&nbsp;&nbsp;&nbsp;&nbsp;&nbsp;&nbsp;3&nbsp;&nbsp;&nbsp;&nbsp;&nbsp;&nbsp;&nbsp;&nbsp;&nbsp;&nbsp;&nbsp;&nbsp;&nbsp;&nbsp;&nbsp;&nbsp;&nbsp;&nbsp;&nbsp;4</p><p style=""font-size:14px"">Not at all familiar&nbsp;&nbsp;&nbsp;&nbsp;A little familiar&nbsp;&nbsp;&nbsp;Moderately familiar&nbsp;&nbsp;&nbsp;Extremely familiar</p><p>(press the corresponding number on your keyboard)</p>","","51","","","FAM-RESPONSE","","","","","","","","","","","","","","","","","","","sounds/C/FAM/W004.mp3","word","","","","","","","","","","","","","","","","","","",""
"html-keyboard-response","255","1847398","0.0-7.0-1.0-0.5","3","1","jg6r2hpaft2plaa","","null","","","","null","","","","","","","","","","","","","","","","","","","","","","","","","","","","","","","","","","","","","","","","","",""
"audio-keyboard-response","256","1848340","0.0-7.0-1.0-1.5","3","1","jg6r2hpaft2plaa","","null","","sounds/C/FAM/P002.mp3","","null","","","","","","","","","","","","","","","","","","","","","","","","","","","","","","","","","","","","","","","","","",""
"html-keyboard-response","257","1849282","0.0-7.0-1.0-2.5","3","1","jg6r2hpaft2plaa","","438.40000000596046","","<p>How familiar did this sound to you?</p><p>1&nbsp;&nbsp;&nbsp;&nbsp;&nbsp;&nbsp;&nbsp;&nbsp;&nbsp;&nbsp;&nbsp;&nbsp;&nbsp;&nbsp;&nbsp;&nbsp;&nbsp;&nbsp;&nbsp;2&nbsp;&nbsp;&nbsp;&nbsp;&nbsp;&nbsp;&nbsp;&nbsp;&nbsp;&nbsp;&nbsp;&nbsp;&nbsp;&nbsp;&nbsp;&nbsp;&nbsp;&nbsp;&nbsp;3&nbsp;&nbsp;&nbsp;&nbsp;&nbsp;&nbsp;&nbsp;&nbsp;&nbsp;&nbsp;&nbsp;&nbsp;&nbsp;&nbsp;&nbsp;&nbsp;&nbsp;&nbsp;&nbsp;4</p><p style=""font-size:14px"">Not at all familiar&nbsp;&nbsp;&nbsp;&nbsp;A little familiar&nbsp;&nbsp;&nbsp;Moderately familiar&nbsp;&nbsp;&nbsp;Extremely familiar</p><p>(press the corresponding number on your keyboard)</p>","","52","","","FAM-RESPONSE","","","","","","","","","","","","","","","","","","","sounds/C/FAM/P002.mp3","partword","","","","","","","","","","","","","","","","","","",""
"html-keyboard-response","258","1851286","0.0-7.0-1.0-0.6","3","1","jg6r2hpaft2plaa","","null","","","","null","","","","","","","","","","","","","","","","","","","","","","","","","","","","","","","","","","","","","","","","","",""
"audio-keyboard-response","259","1852225","0.0-7.0-1.0-1.6","3","1","jg6r2hpaft2plaa","","null","","sounds/C/FAM/W001.mp3","","null","","","","","","","","","","","","","","","","","","","","","","","","","","","","","","","","","","","","","","","","","",""
"html-keyboard-response","260","1853461","0.0-7.0-1.0-2.6","3","1","jg6r2hpaft2plaa","","731.0999999940395","","<p>How familiar did this sound to you?</p><p>1&nbsp;&nbsp;&nbsp;&nbsp;&nbsp;&nbsp;&nbsp;&nbsp;&nbsp;&nbsp;&nbsp;&nbsp;&nbsp;&nbsp;&nbsp;&nbsp;&nbsp;&nbsp;&nbsp;2&nbsp;&nbsp;&nbsp;&nbsp;&nbsp;&nbsp;&nbsp;&nbsp;&nbsp;&nbsp;&nbsp;&nbsp;&nbsp;&nbsp;&nbsp;&nbsp;&nbsp;&nbsp;&nbsp;3&nbsp;&nbsp;&nbsp;&nbsp;&nbsp;&nbsp;&nbsp;&nbsp;&nbsp;&nbsp;&nbsp;&nbsp;&nbsp;&nbsp;&nbsp;&nbsp;&nbsp;&nbsp;&nbsp;4</p><p style=""font-size:14px"">Not at all familiar&nbsp;&nbsp;&nbsp;&nbsp;A little familiar&nbsp;&nbsp;&nbsp;Moderately familiar&nbsp;&nbsp;&nbsp;Extremely familiar</p><p>(press the corresponding number on your keyboard)</p>","","52","","","FAM-RESPONSE","","","","","","","","","","","","","","","","","","","sounds/C/FAM/W001.mp3","word","","","","","","","","","","","","","","","","","","",""
"html-keyboard-response","261","1855468","0.0-7.0-1.0-0.7","3","1","jg6r2hpaft2plaa","","null","","","","null","","","","","","","","","","","","","","","","","","","","","","","","","","","","","","","","","","","","","","","","","",""
"audio-keyboard-response","262","1856406","0.0-7.0-1.0-1.7","3","1","jg6r2hpaft2plaa","","null","","sounds/C/FAM/P004.mp3","","null","","","","","","","","","","","","","","","","","","","","","","","","","","","","","","","","","","","","","","","","","",""
"html-keyboard-response","263","1857315","0.0-7.0-1.0-2.7","3","1","jg6r2hpaft2plaa","","404.5","","<p>How familiar did this sound to you?</p><p>1&nbsp;&nbsp;&nbsp;&nbsp;&nbsp;&nbsp;&nbsp;&nbsp;&nbsp;&nbsp;&nbsp;&nbsp;&nbsp;&nbsp;&nbsp;&nbsp;&nbsp;&nbsp;&nbsp;2&nbsp;&nbsp;&nbsp;&nbsp;&nbsp;&nbsp;&nbsp;&nbsp;&nbsp;&nbsp;&nbsp;&nbsp;&nbsp;&nbsp;&nbsp;&nbsp;&nbsp;&nbsp;&nbsp;3&nbsp;&nbsp;&nbsp;&nbsp;&nbsp;&nbsp;&nbsp;&nbsp;&nbsp;&nbsp;&nbsp;&nbsp;&nbsp;&nbsp;&nbsp;&nbsp;&nbsp;&nbsp;&nbsp;4</p><p style=""font-size:14px"">Not at all familiar&nbsp;&nbsp;&nbsp;&nbsp;A little familiar&nbsp;&nbsp;&nbsp;Moderately familiar&nbsp;&nbsp;&nbsp;Extremely familiar</p><p>(press the corresponding number on your keyboard)</p>","","51","","","FAM-RESPONSE","","","","","","","","","","","","","","","","","","","sounds/C/FAM/P004.mp3","partword","","","","","","","","","","","","","","","","","","",""
"html-keyboard-response","264","1859319","0.0-7.0-1.0-0.8","3","1","jg6r2hpaft2plaa","","null","","","","null","","","","","","","","","","","","","","","","","","","","","","","","","","","","","","","","","","","","","","","","","",""
"audio-keyboard-response","265","1860264","0.0-7.0-1.0-1.8","3","1","jg6r2hpaft2plaa","","null","","sounds/C/FAM/N003.mp3","","null","","","","","","","","","","","","","","","","","","","","","","","","","","","","","","","","","","","","","","","","","",""
"html-keyboard-response","266","1861206","0.0-7.0-1.0-2.8","3","1","jg6r2hpaft2plaa","","438.5","","<p>How familiar did this sound to you?</p><p>1&nbsp;&nbsp;&nbsp;&nbsp;&nbsp;&nbsp;&nbsp;&nbsp;&nbsp;&nbsp;&nbsp;&nbsp;&nbsp;&nbsp;&nbsp;&nbsp;&nbsp;&nbsp;&nbsp;2&nbsp;&nbsp;&nbsp;&nbsp;&nbsp;&nbsp;&nbsp;&nbsp;&nbsp;&nbsp;&nbsp;&nbsp;&nbsp;&nbsp;&nbsp;&nbsp;&nbsp;&nbsp;&nbsp;3&nbsp;&nbsp;&nbsp;&nbsp;&nbsp;&nbsp;&nbsp;&nbsp;&nbsp;&nbsp;&nbsp;&nbsp;&nbsp;&nbsp;&nbsp;&nbsp;&nbsp;&nbsp;&nbsp;4</p><p style=""font-size:14px"">Not at all familiar&nbsp;&nbsp;&nbsp;&nbsp;A little familiar&nbsp;&nbsp;&nbsp;Moderately familiar&nbsp;&nbsp;&nbsp;Extremely familiar</p><p>(press the corresponding number on your keyboard)</p>","","51","","","FAM-RESPONSE","","","","","","","","","","","","","","","","","","","sounds/C/FAM/N003.mp3","nonword","","","","","","","","","","","","","","","","","","",""
"html-keyboard-response","267","1863215","0.0-7.0-1.0-0.9","3","1","jg6r2hpaft2plaa","","null","","","","null","","","","","","","","","","","","","","","","","","","","","","","","","","","","","","","","","","","","","","","","","",""
"audio-keyboard-response","268","1864150","0.0-7.0-1.0-1.9","3","1","jg6r2hpaft2plaa","","null","","sounds/C/FAM/N001.mp3","","null","","","","","","","","","","","","","","","","","","","","","","","","","","","","","","","","","","","","","","","","","",""
"html-keyboard-response","269","1865087","0.0-7.0-1.0-2.9","3","1","jg6r2hpaft2plaa","","435.59999999403954","","<p>How familiar did this sound to you?</p><p>1&nbsp;&nbsp;&nbsp;&nbsp;&nbsp;&nbsp;&nbsp;&nbsp;&nbsp;&nbsp;&nbsp;&nbsp;&nbsp;&nbsp;&nbsp;&nbsp;&nbsp;&nbsp;&nbsp;2&nbsp;&nbsp;&nbsp;&nbsp;&nbsp;&nbsp;&nbsp;&nbsp;&nbsp;&nbsp;&nbsp;&nbsp;&nbsp;&nbsp;&nbsp;&nbsp;&nbsp;&nbsp;&nbsp;3&nbsp;&nbsp;&nbsp;&nbsp;&nbsp;&nbsp;&nbsp;&nbsp;&nbsp;&nbsp;&nbsp;&nbsp;&nbsp;&nbsp;&nbsp;&nbsp;&nbsp;&nbsp;&nbsp;4</p><p style=""font-size:14px"">Not at all familiar&nbsp;&nbsp;&nbsp;&nbsp;A little familiar&nbsp;&nbsp;&nbsp;Moderately familiar&nbsp;&nbsp;&nbsp;Extremely familiar</p><p>(press the corresponding number on your keyboard)</p>","","51","","","FAM-RESPONSE","","","","","","","","","","","","","","","","","","","sounds/C/FAM/N001.mp3","nonword","","","","","","","","","","","","","","","","","","",""
"html-keyboard-response","270","1867091","0.0-7.0-1.0-0.10","3","1","jg6r2hpaft2plaa","","null","","","","null","","","","","","","","","","","","","","","","","","","","","","","","","","","","","","","","","","","","","","","","","",""
"audio-keyboard-response","271","1868036","0.0-7.0-1.0-1.10","3","1","jg6r2hpaft2plaa","","null","","sounds/C/FAM/P003.mp3","","null","","","","","","","","","","","","","","","","","","","","","","","","","","","","","","","","","","","","","","","","","",""
"html-keyboard-response","272","1868969","0.0-7.0-1.0-2.10","3","1","jg6r2hpaft2plaa","","429.19999998807907","","<p>How familiar did this sound to you?</p><p>1&nbsp;&nbsp;&nbsp;&nbsp;&nbsp;&nbsp;&nbsp;&nbsp;&nbsp;&nbsp;&nbsp;&nbsp;&nbsp;&nbsp;&nbsp;&nbsp;&nbsp;&nbsp;&nbsp;2&nbsp;&nbsp;&nbsp;&nbsp;&nbsp;&nbsp;&nbsp;&nbsp;&nbsp;&nbsp;&nbsp;&nbsp;&nbsp;&nbsp;&nbsp;&nbsp;&nbsp;&nbsp;&nbsp;3&nbsp;&nbsp;&nbsp;&nbsp;&nbsp;&nbsp;&nbsp;&nbsp;&nbsp;&nbsp;&nbsp;&nbsp;&nbsp;&nbsp;&nbsp;&nbsp;&nbsp;&nbsp;&nbsp;4</p><p style=""font-size:14px"">Not at all familiar&nbsp;&nbsp;&nbsp;&nbsp;A little familiar&nbsp;&nbsp;&nbsp;Moderately familiar&nbsp;&nbsp;&nbsp;Extremely familiar</p><p>(press the corresponding number on your keyboard)</p>","","51","","","FAM-RESPONSE","","","","","","","","","","","","","","","","","","","sounds/C/FAM/P003.mp3","partword","","","","","","","","","","","","","","","","","","",""
"html-keyboard-response","273","1870972","0.0-7.0-1.0-0.11","3","1","jg6r2hpaft2plaa","","null","","","","null","","","","","","","","","","","","","","","","","","","","","","","","","","","","","","","","","","","","","","","","","",""
"audio-keyboard-response","274","1871910","0.0-7.0-1.0-1.11","3","1","jg6r2hpaft2plaa","","null","","sounds/C/FAM/N002.mp3","","null","","","","","","","","","","","","","","","","","","","","","","","","","","","","","","","","","","","","","","","","","",""
"html-keyboard-response","275","1873011","0.0-7.0-1.0-2.11","3","1","jg6r2hpaft2plaa","","596.7000000178814","","<p>How familiar did this sound to you?</p><p>1&nbsp;&nbsp;&nbsp;&nbsp;&nbsp;&nbsp;&nbsp;&nbsp;&nbsp;&nbsp;&nbsp;&nbsp;&nbsp;&nbsp;&nbsp;&nbsp;&nbsp;&nbsp;&nbsp;2&nbsp;&nbsp;&nbsp;&nbsp;&nbsp;&nbsp;&nbsp;&nbsp;&nbsp;&nbsp;&nbsp;&nbsp;&nbsp;&nbsp;&nbsp;&nbsp;&nbsp;&nbsp;&nbsp;3&nbsp;&nbsp;&nbsp;&nbsp;&nbsp;&nbsp;&nbsp;&nbsp;&nbsp;&nbsp;&nbsp;&nbsp;&nbsp;&nbsp;&nbsp;&nbsp;&nbsp;&nbsp;&nbsp;4</p><p style=""font-size:14px"">Not at all familiar&nbsp;&nbsp;&nbsp;&nbsp;A little familiar&nbsp;&nbsp;&nbsp;Moderately familiar&nbsp;&nbsp;&nbsp;Extremely familiar</p><p>(press the corresponding number on your keyboard)</p>","","51","","","FAM-RESPONSE","","","","","","","","","","","","","","","","","","","sounds/C/FAM/N002.mp3","nonword","","","","","","","","","","","","","","","","","","",""
"html-button-response","276","1881696","0.0-8.0-0.0","3","1","jg6r2hpaft2plaa","","7680.9000000059605","","<p>You will now listen to longer sound sequences.</p><p>Each sound sequence will last about 16 seconds.</p><p>On each trial, you will be given a <u>TARGET SOUND</u>. Your task is to listen very carefully for this sound.</p><p>Every time you hear the <u>TARGET SOUND</u>, you will press the <b>SPACEBAR</b> as quickly and accurately as you can.</p>","0","","","","","","","","","","","","","","","","","","","","","","","","","","","","","","","","","","","","","","","","","","",""
"html-button-response","277","1888026","0.0-8.0-1.0","3","1","jg6r2hpaft2plaa","","6074.300000011921","","<p>It is very important that you make your responses as quickly and accurately as possible.</p><p>To help you make your responses, you will be able to listen to the <u>TARGET SOUND</u> at the beginning of each trial.</p><p>There will be 36 total trials.</p><p><b>Note: This is meant to be a difficult task. We simply want you to try your best.</p>","0","","","","","","","","","","","","","","","","","","","","","","","","","","","","","","","","","","","","","","","","","","",""
"html-button-response","278","1890161","0.0-8.0-2.0-0.0","3","1","jg6r2hpaft2plaa","","1875.4000000059605","","<p>Trial 1 of 36</p>","0","","","","","","","","","","","","","","","","","","","","","","","","","RE","sounds/syllables/re_SWS.wav","3000,5700,8400,11100","2","","","","","","","","","","","","","","",""
"html-keyboard-response","279","1893581","0.0-8.0-2.0-1.0","3","1","jg6r2hpaft2plaa","","3418.4000000059605","","","","80","","","","","","","","","","","","","","","","","","","","","","","","RE","","3000,5700,8400,11100","2","","","","","","","","","","","","","","",""
"audio-keyboard-response","280","1893882","0.0-8.0-2.0-2.0-0.0","3","1","jg6r2hpaft2plaa","","null","","sounds/syllables/re_SWS.wav","","null","","","","","","","","","","","","","","","","","","","","","","","","","","","","","","","","","","","","","","","","","",""
"html-keyboard-response","281","1897099","0.0-8.0-2.0-2.0-1.0","3","1","jg6r2hpaft2plaa","","3215.9000000059605","","<p>To replay the <u>TARGET SOUND</u>, press P.</p> When you are ready to begin, press SPACEBAR.","","80","","","","","","","","","","","","","","","","","","","","","","","","","","","","","","","","","","","","","","","","","",""
"audio-keyboard-response","282","1897913","0.0-8.0-2.0-2.1-0.1","3","1","jg6r2hpaft2plaa","","null","","sounds/syllables/re_SWS.wav","","null","","","","","","","","","","","","","","","","","","","","","","","","","","","","","","","","","","","","","","","","","",""
"html-keyboard-response","283","1899040","0.0-8.0-2.0-2.1-1.1","3","1","jg6r2hpaft2plaa","","1125.9000000059605","","<p>To replay the <u>TARGET SOUND</u>, press P.</p> When you are ready to begin, press SPACEBAR.","","32","","","","","","","","","","","","","","","","","","","","","","","","","","","","","","","","","","","","","","","","","",""
"audio-keyboard-response","284","1913991","0.0-8.0-2.0-3.0","3","1","jg6r2hpaft2plaa","","3344","","sounds/C/TD/RE_10_TD.mp3","","32","","","TD_SUMMARY","","","","","","","","","","","","","","","","","","","","","RE","","3000,5700,8400,11100","2","3000","5700","8400","11100","1055.5999999940395","591.3000000119209","351.7000000178814","406.90000000596046","3341.5_4055.5999999940395_4584.300000011921_5998.700000017881_6291.300000011921_8601.09999999404_8751.700000017881_11341_11506.90000000596_13990.40000000596_14153.5_14303.700000017881","2","","","","",""
"html-button-response","285","1915214","0.0-8.0-2.0-0.1","3","1","jg6r2hpaft2plaa","","1218.800000011921","","<p>Trial 2 of 36</p>","0","","","","","","","","","","","","","","","","","","","","","","","","","SU","sounds/syllables/su_SWS.wav","3600,6300,8100,9900","1","","","","","","","","","","","","","","",""
"html-keyboard-response","286","1917134","0.0-8.0-2.0-1.1","3","1","jg6r2hpaft2plaa","","1918.7000000178814","","","","80","","","","","","","","","","","","","","","","","","","","","","","","SU","","3600,6300,8100,9900","1","","","","","","","","","","","","","","",""
"audio-keyboard-response","287","1917436","0.0-8.0-2.0-2.2-0.2","3","1","jg6r2hpaft2plaa","","null","","sounds/syllables/su_SWS.wav","","null","","","","","","","","","","","","","","","","","","","","","","","","","","","","","","","","","","","","","","","","","",""
"html-keyboard-response","288","1917956","0.0-8.0-2.0-2.2-1.2","3","1","jg6r2hpaft2plaa","","518.8000000119209","","<p>To replay the <u>TARGET SOUND</u>, press P.</p> When you are ready to begin, press SPACEBAR.","","80","","","","","","","","","","","","","","","","","","","","","","","","","","","","","","","","","","","","","","","","","",""
"audio-keyboard-response","289","1918757","0.0-8.0-2.0-2.3-0.3","3","1","jg6r2hpaft2plaa","","null","","sounds/syllables/su_SWS.wav","","null","","","","","","","","","","","","","","","","","","","","","","","","","","","","","","","","","","","","","","","","","",""
"html-keyboard-response","290","1919359","0.0-8.0-2.0-2.3-1.3","3","1","jg6r2hpaft2plaa","","601","","<p>To replay the <u>TARGET SOUND</u>, press P.</p> When you are ready to begin, press SPACEBAR.","","80","","","","","","","","","","","","","","","","","","","","","","","","","","","","","","","","","","","","","","","","","",""
"audio-keyboard-response","291","1920164","0.0-8.0-2.0-2.4-0.4","3","1","jg6r2hpaft2plaa","","null","","sounds/syllables/su_SWS.wav","","null","","","","","","","","","","","","","","","","","","","","","","","","","","","","","","","","","","","","","","","","","",""
"html-keyboard-response","292","1920690","0.0-8.0-2.0-2.4-1.4","3","1","jg6r2hpaft2plaa","","524.4000000059605","","<p>To replay the <u>TARGET SOUND</u>, press P.</p> When you are ready to begin, press SPACEBAR.","","80","","","","","","","","","","","","","","","","","","","","","","","","","","","","","","","","","","","","","","","","","",""
"audio-keyboard-response","293","1921491","0.0-8.0-2.0-2.5-0.5","3","1","jg6r2hpaft2plaa","","null","","sounds/syllables/su_SWS.wav","","null","","","","","","","","","","","","","","","","","","","","","","","","","","","","","","","","","","","","","","","","","",""
"html-keyboard-response","294","1923924","0.0-8.0-2.0-2.5-1.5","3","1","jg6r2hpaft2plaa","","2432.699999988079","","<p>To replay the <u>TARGET SOUND</u>, press P.</p> When you are ready to begin, press SPACEBAR.","","32","","","","","","","","","","","","","","","","","","","","","","","","","","","","","","","","","","","","","","","","","",""
"audio-keyboard-response","295","1938877","0.0-8.0-2.0-3.1","3","1","jg6r2hpaft2plaa","","4441","","sounds/C/TD/SU_10_TD.mp3","","32","","","TD_SUMMARY","","","","","","","","","","","","","","","","","","","","","SU","","3600,6300,8100,9900","1","3600","6300","8100","9900","838.1000000238419","763.3000000119209","726.3000000119209","null","____________4438.100000023842_7063.300000011921_8826.300000011921_9869.100000023842_12256.300000011921","4","","","","",""
"html-button-response","296","1940008","0.0-8.0-2.0-0.2","3","1","jg6r2hpaft2plaa","","1127.8999999761581","","<p>Trial 3 of 36</p>","0","","","","","","","","","","","","","","","","","","","","","","","","","PU","sounds/syllables/pu_SWS.wav","2400,4200,8700,10500","3","","","","","","","","","","","","","","",""
"html-keyboard-response","297","1941610","0.0-8.0-2.0-1.2","3","1","jg6r2hpaft2plaa","","1600.0999999940395","","","","80","","","","","","","","","","","","","","","","","","","","","","","","PU","","2400,4200,8700,10500","3","","","","","","","","","","","","","","",""
"audio-keyboard-response","298","1941911","0.0-8.0-2.0-2.6-0.6","3","1","jg6r2hpaft2plaa","","null","","sounds/syllables/pu_SWS.wav","","null","","","","","","","","","","","","","","","","","","","","","","","","","","","","","","","","","","","","","","","","","",""
"html-keyboard-response","299","1942463","0.0-8.0-2.0-2.6-1.6","3","1","jg6r2hpaft2plaa","","551.0999999940395","","<p>To replay the <u>TARGET SOUND</u>, press P.</p> When you are ready to begin, press SPACEBAR.","","80","","","","","","","","","","","","","","","","","","","","","","","","","","","","","","","","","","","","","","","","","",""
"audio-keyboard-response","300","1943266","0.0-8.0-2.0-2.7-0.7","3","1","jg6r2hpaft2plaa","","null","","sounds/syllables/pu_SWS.wav","","null","","","","","","","","","","","","","","","","","","","","","","","","","","","","","","","","","","","","","","","","","",""
"html-keyboard-response","301","1944330","0.0-8.0-2.0-2.7-1.7","3","1","jg6r2hpaft2plaa","","1063.0999999940395","","<p>To replay the <u>TARGET SOUND</u>, press P.</p> When you are ready to begin, press SPACEBAR.","","32","","","","","","","","","","","","","","","","","","","","","","","","","","","","","","","","","","","","","","","","","",""
"audio-keyboard-response","302","1959280","0.0-8.0-2.0-3.2","3","1","jg6r2hpaft2plaa","","1515","","sounds/C/TD/PU_06_TD.mp3","","32","","","TD_SUMMARY","","","","","","","","","","","","","","","","","","","","","PU","","2400,4200,8700,10500","3","2400","4200","8700","10500","818.0999999940395","null","755.1999999880791","654.5999999940395","_________________1514.4000000059605_2881.199999988079_3218.0999999940395_7601_8642.299999982119_9043.59999999404_9455.199999988079_10411.299999982119_11154.59999999404","2","","","","",""
"html-button-response","303","1962379","0.0-8.0-2.0-0.3","3","1","jg6r2hpaft2plaa","","3096.300000011921","","<p>Trial 4 of 36</p>","0","","","","","","","","","","","","","","","","","","","","","","","","","PU","sounds/syllables/pu_SWS.wav","3300,9600,11400,13200","3","","","","","","","","","","","","","","",""
"html-keyboard-response","304","1964162","0.0-8.0-2.0-1.3","3","1","jg6r2hpaft2plaa","","1781.699999988079","","","","80","","","","","","","","","","","","","","","","","","","","","","","","PU","","3300,9600,11400,13200","3","","","","","","","","","","","","","","",""
"audio-keyboard-response","305","1964463","0.0-8.0-2.0-2.8-0.8","3","1","jg6r2hpaft2plaa","","null","","sounds/syllables/pu_SWS.wav","","null","","","","","","","","","","","","","","","","","","","","","","","","","","","","","","","","","","","","","","","","","",""
"html-keyboard-response","306","1964957","0.0-8.0-2.0-2.8-1.8","3","1","jg6r2hpaft2plaa","","493.5","","<p>To replay the <u>TARGET SOUND</u>, press P.</p> When you are ready to begin, press SPACEBAR.","","80","","","","","","","","","","","","","","","","","","","","","","","","","","","","","","","","","","","","","","","","","",""
"audio-keyboard-response","307","1965760","0.0-8.0-2.0-2.9-0.9","3","1","jg6r2hpaft2plaa","","null","","sounds/syllables/pu_SWS.wav","","null","","","","","","","","","","","","","","","","","","","","","","","","","","","","","","","","","","","","","","","","","",""
"html-keyboard-response","308","1966488","0.0-8.0-2.0-2.9-1.9","3","1","jg6r2hpaft2plaa","","726.3000000119209","","<p>To replay the <u>TARGET SOUND</u>, press P.</p> When you are ready to begin, press SPACEBAR.","","32","","","","","","","","","","","","","","","","","","","","","","","","","","","","","","","","","","","","","","","","","",""
"audio-keyboard-response","309","1981438","0.0-8.0-2.0-3.3","3","1","jg6r2hpaft2plaa","","3175","","sounds/C/TD/PU_09_TD.mp3","","32","","","TD_SUMMARY","","","","","","","","","","","","","","","","","","","","","PU","","3300,9600,11400,13200","3","3300","9600","11400","13200","713.4000000059605","931.5","664.1000000238419","798","__________________________3174.7000000178814_3778.600000023842_4013.4000000059605_7293.200000017881_7687.700000017881_10107.90000000596_10331.300000011921_10531.5_11857.800000011921_12064.100000023842_13824.700000017881_13998","2","","","","",""
"html-button-response","310","1983622","0.0-8.0-2.0-0.4","3","1","jg6r2hpaft2plaa","","2180.0999999940395","","<p>Trial 5 of 36</p>","0","","","","","","","","","","","","","","","","","","","","","","","","","NI","sounds/syllables/ni_SWS.wav","900,3600,6300,9900","1","","","","","","","","","","","","","","",""
"html-keyboard-response","311","1985187","0.0-8.0-2.0-1.4","3","1","jg6r2hpaft2plaa","","1564.2000000178814","","","","80","","","","","","","","","","","","","","","","","","","","","","","","NI","","900,3600,6300,9900","1","","","","","","","","","","","","","","",""
"audio-keyboard-response","312","1985486","0.0-8.0-2.0-2.10-0.10","3","1","jg6r2hpaft2plaa","","null","","sounds/syllables/ni_SWS.wav","","null","","","","","","","","","","","","","","","","","","","","","","","","","","","","","","","","","","","","","","","","","",""
"html-keyboard-response","313","1985866","0.0-8.0-2.0-2.10-1.10","3","1","jg6r2hpaft2plaa","","379","","<p>To replay the <u>TARGET SOUND</u>, press P.</p> When you are ready to begin, press SPACEBAR.","","80","","","","","","","","","","","","","","","","","","","","","","","","","","","","","","","","","","","","","","","","","",""
