"trial_type","trial_index","time_elapsed","internal_node_id","counterbalance","lang_instruct","ParticipantID","view_history","rt","url","stimulus","button_pressed","key_press","correctRESP","correct","designation","location","correctanswer","timeouts","pause_rt01","pause_rt02","train_file","numKeyPress","sound","fam_type","SYLLABLE","EXEMPLAR","TD_LOCS","TD_TYPE","TDLOC_01","TDLOC_02","TDLOC_03","TDLOC_04","TD_RT_01","TD_RT_02","TD_RT_03","TD_RT_04","TD_SUBJ_RTs","number_of_plays","responses","slider_start","response","question_order","syllable","syllable_type"
"pavlovia","0","5","0.0-0.0","3","0","hmm0htc1h1jd1of","","","","","","","","","","","","","","","","","","","","","","","","","","","","","","","","","","","","","",""
"instructions","1","17047","0.0-1.0","3","0","hmm0htc1h1jd1of","[{""page_index"":0,""viewing_time"":1470.5999999642372},{""page_index"":1,""viewing_time"":15566.199999988079}]","17041","","","","","","","","","","","","","","","","","","","","","","","","","","","","","","","","","","","",""
"external-html","2","22055","0.0-2.0","3","0","hmm0htc1h1jd1of","","4885.400000035763","consent/consent.html","","","","","","","","","","","","","","","","","","","","","","","","","","","","","","","","","","",""
"html-button-response","3","97141","0.0-3.0-0.0-0.0","3","0","hmm0htc1h1jd1of","","75082.19999998808","","<p>Welcome to the study. You will first complete a short volume calibration and headphone check.</p><p>Please make sure you are in a quiet listening environment, that you are wearing headphones, and that your computer's volume is turned on.<p></p>","0","","","","","","","","","","","","","","","","","","","","","","","","","","","","","","","","",""
"html-button-response","4","104923","0.0-3.0-0.0-1.0","3","0","hmm0htc1h1jd1of","","7529.099999964237","","<p>The volume calibration will be first.</p><p>You will hear a thirty-second noise. Please adjust your computer's volume so that this noise is being presented at a comfortable level.<p></p>","0","","","","","","","","","","","","","","","","","","","","","","","","","","","","","","","","",""
"audio-button-response","5","111545","0.0-3.0-0.0-2.0","3","0","hmm0htc1h1jd1of","","6291","","audCalib/volumetest.mp3","0","","","","","","","","","","","","","","","","","","","","","","","","","","","","","","","","",""
"html-button-response","6","121928","0.0-3.0-1.0-0.0","3","0","hmm0htc1h1jd1of","","10382","","<p>You will now complete a short headphone check.</p><p>On each trial, you will hear three tones. One of these tones will be quieter than the others. Your task is to identify whether the quiet tone occured first, second, or third.</p><p>There are six trials in total.<p></p>","0","","","","","","","","","","","","","","","","","","","","","","","","","","","","","","","","",""
"html-keyboard-response","7","122682","0.0-3.0-1.0-1.0-0.0","3","0","hmm0htc1h1jd1of","","null","","<div style=""font-size:60px;"">+</div>","","null","","","","","","","","","","","","","","","","","","","","","","","","","","","","","","","",""
"audio-button-response","8","127385","0.0-3.0-1.0-1.0-1.0","3","0","hmm0htc1h1jd1of","","4701","","audCalib/t1_2.mp3","0","","0","1","headphone-test","","","","","","","","","","","","","","","","","","","","","","","","","","","","",""
"html-keyboard-response","9","128151","0.0-3.0-1.0-1.0-0.1","3","0","hmm0htc1h1jd1of","","null","","<div style=""font-size:60px;"">+</div>","","null","","","","","","","","","","","","","","","","","","","","","","","","","","","","","","","",""
"audio-button-response","10","132895","0.0-3.0-1.0-1.0-1.1","3","0","hmm0htc1h1jd1of","","4739","","audCalib/t3_2.mp3","2","","2","1","headphone-test","","","","","","","","","","","","","","","","","","","","","","","","","","","","",""
"html-keyboard-response","11","133648","0.0-3.0-1.0-1.0-0.2","3","0","hmm0htc1h1jd1of","","null","","<div style=""font-size:60px;"">+</div>","","null","","","","","","","","","","","","","","","","","","","","","","","","","","","","","","","",""
"audio-button-response","12","137995","0.0-3.0-1.0-1.0-1.2","3","0","hmm0htc1h1jd1of","","4352","","audCalib/t2_1.mp3","1","","1","1","headphone-test","","","","","","","","","","","","","","","","","","","","","","","","","","","","",""
"html-keyboard-response","13","138775","0.0-3.0-1.0-1.0-0.3","3","0","hmm0htc1h1jd1of","","null","","<div style=""font-size:60px;"">+</div>","","null","","","","","","","","","","","","","","","","","","","","","","","","","","","","","","","",""
"audio-button-response","14","142893","0.0-3.0-1.0-1.0-1.3","3","0","hmm0htc1h1jd1of","","4120","","audCalib/t1_1.mp3","0","","0","1","headphone-test","","","","","","","","","","","","","","","","","","","","","","","","","","","","",""
"html-keyboard-response","15","143654","0.0-3.0-1.0-1.0-0.4","3","0","hmm0htc1h1jd1of","","null","","<div style=""font-size:60px;"">+</div>","","null","","","","","","","","","","","","","","","","","","","","","","","","","","","","","","","",""
"audio-button-response","16","147836","0.0-3.0-1.0-1.0-1.4","3","0","hmm0htc1h1jd1of","","4181","","audCalib/t3_1.mp3","2","","2","1","headphone-test","","","","","","","","","","","","","","","","","","","","","","","","","","","","",""
"html-keyboard-response","17","148590","0.0-3.0-1.0-1.0-0.5","3","0","hmm0htc1h1jd1of","","null","","<div style=""font-size:60px;"">+</div>","","null","","","","","","","","","","","","","","","","","","","","","","","","","","","","","","","",""
"audio-button-response","18","152555","0.0-3.0-1.0-1.0-1.5","3","0","hmm0htc1h1jd1of","","3960","","audCalib/t2_2.mp3","1","","1","1","headphone-test","","","","","","","","","","","","","","","","","","","","","","","","","","","","",""
"html-button-response","19","154367","0.0-3.0-2.0","3","0","hmm0htc1h1jd1of","","1557.9000000357628","","<p>The volume calibration and headphone check are now complete.</p>","0","","","","","","","","","","","","","","","","","","","","","","","","","","","","","","","","",""
"instructions","20","166698","0.0-4.0-0.0","3","0","hmm0htc1h1jd1of","[{""page_index"":0,""viewing_time"":2503.7000000476837},{""page_index"":1,""viewing_time"":7440.799999952316},{""page_index"":2,""viewing_time"":2385.300000011921}]","12330.400000035763","","","","","","","","","","","","","","","","","","","","","","","","","","","","","","","","","","","",""
"audio-keyboard-response","21","166991","0.0-4.0-1.0-0.0","3","0","hmm0htc1h1jd1of","","null","","sounds/induction/right_rev/ti_SWS.wav","","null","","","","","","","","","","","","","","","","","","","","","","","","","","","","","","","",""
"html-button-response","22","168629","0.0-4.0-1.0-1.0","3","0","hmm0htc1h1jd1of","","1636.3999999761581","","Was the sound coming from the left or the right?","1","","","1","INDUCTION-JUDGMENT","right","1","","","","","","","","","","","","","","","","","","","","","","","","","","",""
"html-keyboard-response","23","169639","0.0-4.0-1.0-2.0","3","0","hmm0htc1h1jd1of","","null","","<p style=""color:#054d00;""><b>Correct!</b></p>","","null","","","","","","","","","","","","","","","","","","","","","","","","","","","","","","","",""
"audio-keyboard-response","24","170451","0.0-4.0-1.0-0.1","3","0","hmm0htc1h1jd1of","","null","","sounds/induction/right_rev/ru_SWS.wav","","null","","","","","","","","","","","","","","","","","","","","","","","","","","","","","","","",""
"html-button-response","25","171201","0.0-4.0-1.0-1.1","3","0","hmm0htc1h1jd1of","","748","","Was the sound coming from the left or the right?","1","","","1","INDUCTION-JUDGMENT","right","1","","","","","","","","","","","","","","","","","","","","","","","","","","",""
"html-keyboard-response","26","172204","0.0-4.0-1.0-2.1","3","0","hmm0htc1h1jd1of","","null","","<p style=""color:#054d00;""><b>Correct!</b></p>","","null","","","","","","","","","","","","","","","","","","","","","","","","","","","","","","","",""
"audio-keyboard-response","27","173021","0.0-4.0-1.0-0.2","3","0","hmm0htc1h1jd1of","","null","","sounds/induction/right_rev/ta_SWS.wav","","null","","","","","","","","","","","","","","","","","","","","","","","","","","","","","","","",""
"html-button-response","28","173840","0.0-4.0-1.0-1.2","3","0","hmm0htc1h1jd1of","","817.6000000238419","","Was the sound coming from the left or the right?","1","","","1","INDUCTION-JUDGMENT","right","1","","","","","","","","","","","","","","","","","","","","","","","","","","",""
"html-keyboard-response","29","174846","0.0-4.0-1.0-2.2","3","0","hmm0htc1h1jd1of","","null","","<p style=""color:#054d00;""><b>Correct!</b></p>","","null","","","","","","","","","","","","","","","","","","","","","","","","","","","","","","","",""
"audio-keyboard-response","30","175661","0.0-4.0-1.0-0.3","3","0","hmm0htc1h1jd1of","","null","","sounds/induction/left_rev/ti_SWS.wav","","null","","","","","","","","","","","","","","","","","","","","","","","","","","","","","","","",""
"html-button-response","31","176823","0.0-4.0-1.0-1.3","3","0","hmm0htc1h1jd1of","","1160.3999999761581","","Was the sound coming from the left or the right?","0","","","1","INDUCTION-JUDGMENT","left","0","","","","","","","","","","","","","","","","","","","","","","","","","","",""
"html-keyboard-response","32","177834","0.0-4.0-1.0-2.3","3","0","hmm0htc1h1jd1of","","null","","<p style=""color:#054d00;""><b>Correct!</b></p>","","null","","","","","","","","","","","","","","","","","","","","","","","","","","","","","","","",""
"audio-keyboard-response","33","178652","0.0-4.0-1.0-0.4","3","0","hmm0htc1h1jd1of","","null","","sounds/induction/right_rev/pu_SWS.wav","","null","","","","","","","","","","","","","","","","","","","","","","","","","","","","","","","",""
"html-button-response","34","179618","0.0-4.0-1.0-1.4","3","0","hmm0htc1h1jd1of","","964.3000000119209","","Was the sound coming from the left or the right?","1","","","1","INDUCTION-JUDGMENT","right","1","","","","","","","","","","","","","","","","","","","","","","","","","","",""
"html-keyboard-response","35","180630","0.0-4.0-1.0-2.4","3","0","hmm0htc1h1jd1of","","null","","<p style=""color:#054d00;""><b>Correct!</b></p>","","null","","","","","","","","","","","","","","","","","","","","","","","","","","","","","","","",""
"audio-keyboard-response","36","181431","0.0-4.0-1.0-0.5","3","0","hmm0htc1h1jd1of","","null","","sounds/induction/left_rev/pu_SWS.wav","","null","","","","","","","","","","","","","","","","","","","","","","","","","","","","","","","",""
"html-button-response","37","182272","0.0-4.0-1.0-1.5","3","0","hmm0htc1h1jd1of","","839.3000000119209","","Was the sound coming from the left or the right?","0","","","1","INDUCTION-JUDGMENT","left","0","","","","","","","","","","","","","","","","","","","","","","","","","","",""
"html-keyboard-response","38","183281","0.0-4.0-1.0-2.5","3","0","hmm0htc1h1jd1of","","null","","<p style=""color:#054d00;""><b>Correct!</b></p>","","null","","","","","","","","","","","","","","","","","","","","","","","","","","","","","","","",""
"audio-keyboard-response","39","184091","0.0-4.0-1.0-0.6","3","0","hmm0htc1h1jd1of","","null","","sounds/induction/right_rev/ge_SWS.wav","","null","","","","","","","","","","","","","","","","","","","","","","","","","","","","","","","",""
"html-button-response","40","184851","0.0-4.0-1.0-1.6","3","0","hmm0htc1h1jd1of","","758.5999999642372","","Was the sound coming from the left or the right?","1","","","1","INDUCTION-JUDGMENT","right","1","","","","","","","","","","","","","","","","","","","","","","","","","","",""
"html-keyboard-response","41","185853","0.0-4.0-1.0-2.6","3","0","hmm0htc1h1jd1of","","null","","<p style=""color:#054d00;""><b>Correct!</b></p>","","null","","","","","","","","","","","","","","","","","","","","","","","","","","","","","","","",""
"audio-keyboard-response","42","186662","0.0-4.0-1.0-0.7","3","0","hmm0htc1h1jd1of","","null","","sounds/induction/left_rev/ni_SWS.wav","","null","","","","","","","","","","","","","","","","","","","","","","","","","","","","","","","",""
"html-button-response","43","187432","0.0-4.0-1.0-1.7","3","0","hmm0htc1h1jd1of","","768.5999999642372","","Was the sound coming from the left or the right?","0","","","1","INDUCTION-JUDGMENT","left","0","","","","","","","","","","","","","","","","","","","","","","","","","","",""
"html-keyboard-response","44","188433","0.0-4.0-1.0-2.7","3","0","hmm0htc1h1jd1of","","null","","<p style=""color:#054d00;""><b>Correct!</b></p>","","null","","","","","","","","","","","","","","","","","","","","","","","","","","","","","","","",""
"audio-keyboard-response","45","189232","0.0-4.0-1.0-0.8","3","0","hmm0htc1h1jd1of","","null","","sounds/induction/right_rev/me_SWS.wav","","null","","","","","","","","","","","","","","","","","","","","","","","","","","","","","","","",""
"html-button-response","46","190115","0.0-4.0-1.0-1.8","3","0","hmm0htc1h1jd1of","","881.8999999761581","","Was the sound coming from the left or the right?","1","","","1","INDUCTION-JUDGMENT","right","1","","","","","","","","","","","","","","","","","","","","","","","","","","",""
"html-keyboard-response","47","191117","0.0-4.0-1.0-2.8","3","0","hmm0htc1h1jd1of","","null","","<p style=""color:#054d00;""><b>Correct!</b></p>","","null","","","","","","","","","","","","","","","","","","","","","","","","","","","","","","","",""
"audio-keyboard-response","48","191912","0.0-4.0-1.0-0.9","3","0","hmm0htc1h1jd1of","","null","","sounds/induction/right_rev/fe_SWS.wav","","null","","","","","","","","","","","","","","","","","","","","","","","","","","","","","","","",""
"html-button-response","49","192873","0.0-4.0-1.0-1.9","3","0","hmm0htc1h1jd1of","","960","","Was the sound coming from the left or the right?","1","","","1","INDUCTION-JUDGMENT","right","1","","","","","","","","","","","","","","","","","","","","","","","","","","",""
"html-keyboard-response","50","193875","0.0-4.0-1.0-2.9","3","0","hmm0htc1h1jd1of","","null","","<p style=""color:#054d00;""><b>Correct!</b></p>","","null","","","","","","","","","","","","","","","","","","","","","","","","","","","","","","","",""
"audio-keyboard-response","51","194671","0.0-4.0-1.0-0.10","3","0","hmm0htc1h1jd1of","","null","","sounds/induction/right_rev/fu_SWS.wav","","null","","","","","","","","","","","","","","","","","","","","","","","","","","","","","","","",""
"html-button-response","52","195468","0.0-4.0-1.0-1.10","3","0","hmm0htc1h1jd1of","","795.5","","Was the sound coming from the left or the right?","1","","","1","INDUCTION-JUDGMENT","right","1","","","","","","","","","","","","","","","","","","","","","","","","","","",""
"html-keyboard-response","53","196470","0.0-4.0-1.0-2.10","3","0","hmm0htc1h1jd1of","","null","","<p style=""color:#054d00;""><b>Correct!</b></p>","","null","","","","","","","","","","","","","","","","","","","","","","","","","","","","","","","",""
"audio-keyboard-response","54","197271","0.0-4.0-1.0-0.11","3","0","hmm0htc1h1jd1of","","null","","sounds/induction/left_rev/me_SWS.wav","","null","","","","","","","","","","","","","","","","","","","","","","","","","","","","","","","",""
"html-button-response","55","197995","0.0-4.0-1.0-1.11","3","0","hmm0htc1h1jd1of","","722.3000000119209","","Was the sound coming from the left or the right?","0","","","1","INDUCTION-JUDGMENT","left","0","","","","","","","","","","","","","","","","","","","","","","","","","","",""
"html-keyboard-response","56","198997","0.0-4.0-1.0-2.11","3","0","hmm0htc1h1jd1of","","null","","<p style=""color:#054d00;""><b>Correct!</b></p>","","null","","","","","","","","","","","","","","","","","","","","","","","","","","","","","","","",""
"audio-keyboard-response","57","199792","0.0-4.0-1.0-0.12","3","0","hmm0htc1h1jd1of","","null","","sounds/induction/right_rev/su_SWS.wav","","null","","","","","","","","","","","","","","","","","","","","","","","","","","","","","","","",""
"html-button-response","58","200739","0.0-4.0-1.0-1.12","3","0","hmm0htc1h1jd1of","","945.0999999642372","","Was the sound coming from the left or the right?","1","","","1","INDUCTION-JUDGMENT","right","1","","","","","","","","","","","","","","","","","","","","","","","","","","",""
"html-keyboard-response","59","201741","0.0-4.0-1.0-2.12","3","0","hmm0htc1h1jd1of","","null","","<p style=""color:#054d00;""><b>Correct!</b></p>","","null","","","","","","","","","","","","","","","","","","","","","","","","","","","","","","","",""
"audio-keyboard-response","60","202542","0.0-4.0-1.0-0.13","3","0","hmm0htc1h1jd1of","","null","","sounds/induction/right_rev/ko_SWS.wav","","null","","","","","","","","","","","","","","","","","","","","","","","","","","","","","","","",""
"html-button-response","61","203170","0.0-4.0-1.0-1.13","3","0","hmm0htc1h1jd1of","","626.1999999880791","","Was the sound coming from the left or the right?","1","","","1","INDUCTION-JUDGMENT","right","1","","","","","","","","","","","","","","","","","","","","","","","","","","",""
"html-keyboard-response","62","204172","0.0-4.0-1.0-2.13","3","0","hmm0htc1h1jd1of","","null","","<p style=""color:#054d00;""><b>Correct!</b></p>","","null","","","","","","","","","","","","","","","","","","","","","","","","","","","","","","","",""
"audio-keyboard-response","63","204982","0.0-4.0-1.0-0.14","3","0","hmm0htc1h1jd1of","","null","","sounds/induction/left_rev/ta_SWS.wav","","null","","","","","","","","","","","","","","","","","","","","","","","","","","","","","","","",""
"html-button-response","64","206129","0.0-4.0-1.0-1.14","3","0","hmm0htc1h1jd1of","","1145.699999988079","","Was the sound coming from the left or the right?","0","","","1","INDUCTION-JUDGMENT","left","0","","","","","","","","","","","","","","","","","","","","","","","","","","",""
"html-keyboard-response","65","207135","0.0-4.0-1.0-2.14","3","0","hmm0htc1h1jd1of","","null","","<p style=""color:#054d00;""><b>Correct!</b></p>","","null","","","","","","","","","","","","","","","","","","","","","","","","","","","","","","","",""
"audio-keyboard-response","66","207941","0.0-4.0-1.0-0.15","3","0","hmm0htc1h1jd1of","","null","","sounds/induction/left_rev/ko_SWS.wav","","null","","","","","","","","","","","","","","","","","","","","","","","","","","","","","","","",""
"html-button-response","67","208708","0.0-4.0-1.0-1.15","3","0","hmm0htc1h1jd1of","","765.4000000357628","","Was the sound coming from the left or the right?","0","","","1","INDUCTION-JUDGMENT","left","0","","","","","","","","","","","","","","","","","","","","","","","","","","",""
"html-keyboard-response","68","209710","0.0-4.0-1.0-2.15","3","0","hmm0htc1h1jd1of","","null","","<p style=""color:#054d00;""><b>Correct!</b></p>","","null","","","","","","","","","","","","","","","","","","","","","","","","","","","","","","","",""
"audio-keyboard-response","69","210502","0.0-4.0-1.0-0.16","3","0","hmm0htc1h1jd1of","","null","","sounds/induction/right_rev/ta_SWS.wav","","null","","","","","","","","","","","","","","","","","","","","","","","","","","","","","","","",""
"html-button-response","70","211295","0.0-4.0-1.0-1.16","3","0","hmm0htc1h1jd1of","","791.6999999880791","","Was the sound coming from the left or the right?","1","","","1","INDUCTION-JUDGMENT","right","1","","","","","","","","","","","","","","","","","","","","","","","","","","",""
"html-keyboard-response","71","212296","0.0-4.0-1.0-2.16","3","0","hmm0htc1h1jd1of","","null","","<p style=""color:#054d00;""><b>Correct!</b></p>","","null","","","","","","","","","","","","","","","","","","","","","","","","","","","","","","","",""
"audio-keyboard-response","72","213102","0.0-4.0-1.0-0.17","3","0","hmm0htc1h1jd1of","","null","","sounds/induction/left_rev/pu_SWS.wav","","null","","","","","","","","","","","","","","","","","","","","","","","","","","","","","","","",""
"html-button-response","73","216924","0.0-4.0-1.0-1.17","3","0","hmm0htc1h1jd1of","","3819.899999976158","","Was the sound coming from the left or the right?","0","","","1","INDUCTION-JUDGMENT","left","0","","","","","","","","","","","","","","","","","","","","","","","","","","",""
"html-keyboard-response","74","217936","0.0-4.0-1.0-2.17","3","0","hmm0htc1h1jd1of","","null","","<p style=""color:#054d00;""><b>Correct!</b></p>","","null","","","","","","","","","","","","","","","","","","","","","","","","","","","","","","","",""
"audio-keyboard-response","75","218742","0.0-4.0-1.0-0.18","3","0","hmm0htc1h1jd1of","","null","","sounds/induction/left_rev/re_SWS.wav","","null","","","","","","","","","","","","","","","","","","","","","","","","","","","","","","","",""
"html-button-response","76","225591","0.0-4.0-1.0-1.18","3","0","hmm0htc1h1jd1of","","6848.399999976158","","Was the sound coming from the left or the right?","0","","","1","INDUCTION-JUDGMENT","left","0","","","","","","","","","","","","","","","","","","","","","","","","","","",""
"html-keyboard-response","77","226594","0.0-4.0-1.0-2.18","3","0","hmm0htc1h1jd1of","","null","","<p style=""color:#054d00;""><b>Correct!</b></p>","","null","","","","","","","","","","","","","","","","","","","","","","","","","","","","","","","",""
"audio-keyboard-response","78","227392","0.0-4.0-1.0-0.19","3","0","hmm0htc1h1jd1of","","null","","sounds/induction/left_rev/su_SWS.wav","","null","","","","","","","","","","","","","","","","","","","","","","","","","","","","","","","",""
"html-button-response","79","228723","0.0-4.0-1.0-1.19","3","0","hmm0htc1h1jd1of","","1329.5","","Was the sound coming from the left or the right?","0","","","1","INDUCTION-JUDGMENT","left","0","","","","","","","","","","","","","","","","","","","","","","","","","","",""
"html-keyboard-response","80","229725","0.0-4.0-1.0-2.19","3","0","hmm0htc1h1jd1of","","null","","<p style=""color:#054d00;""><b>Correct!</b></p>","","null","","","","","","","","","","","","","","","","","","","","","","","","","","","","","","","",""
"audio-keyboard-response","81","230532","0.0-4.0-1.0-0.20","3","0","hmm0htc1h1jd1of","","null","","sounds/induction/right_rev/pu_SWS.wav","","null","","","","","","","","","","","","","","","","","","","","","","","","","","","","","","","",""
"html-button-response","82","231534","0.0-4.0-1.0-1.20","3","0","hmm0htc1h1jd1of","","1000.1999999880791","","Was the sound coming from the left or the right?","1","","","1","INDUCTION-JUDGMENT","right","1","","","","","","","","","","","","","","","","","","","","","","","","","","",""
"html-keyboard-response","83","232550","0.0-4.0-1.0-2.20","3","0","hmm0htc1h1jd1of","","null","","<p style=""color:#054d00;""><b>Correct!</b></p>","","null","","","","","","","","","","","","","","","","","","","","","","","","","","","","","","","",""
"audio-keyboard-response","84","233352","0.0-4.0-1.0-0.21","3","0","hmm0htc1h1jd1of","","null","","sounds/induction/left_rev/ge_SWS.wav","","null","","","","","","","","","","","","","","","","","","","","","","","","","","","","","","","",""
"html-button-response","85","241983","0.0-4.0-1.0-1.21","3","0","hmm0htc1h1jd1of","","8630.199999988079","","Was the sound coming from the left or the right?","0","","","1","INDUCTION-JUDGMENT","left","0","","","","","","","","","","","","","","","","","","","","","","","","","","",""
"html-keyboard-response","86","242985","0.0-4.0-1.0-2.21","3","0","hmm0htc1h1jd1of","","null","","<p style=""color:#054d00;""><b>Correct!</b></p>","","null","","","","","","","","","","","","","","","","","","","","","","","","","","","","","","","",""
"audio-keyboard-response","87","243781","0.0-4.0-1.0-0.22","3","0","hmm0htc1h1jd1of","","null","","sounds/induction/left_rev/ti_SWS.wav","","null","","","","","","","","","","","","","","","","","","","","","","","","","","","","","","","",""
"html-button-response","88","244578","0.0-4.0-1.0-1.22","3","0","hmm0htc1h1jd1of","","795","","Was the sound coming from the left or the right?","0","","","1","INDUCTION-JUDGMENT","left","0","","","","","","","","","","","","","","","","","","","","","","","","","","",""
"html-keyboard-response","89","245579","0.0-4.0-1.0-2.22","3","0","hmm0htc1h1jd1of","","null","","<p style=""color:#054d00;""><b>Correct!</b></p>","","null","","","","","","","","","","","","","","","","","","","","","","","","","","","","","","","",""
"audio-keyboard-response","90","246382","0.0-4.0-1.0-0.23","3","0","hmm0htc1h1jd1of","","null","","sounds/induction/left_rev/ni_SWS.wav","","null","","","","","","","","","","","","","","","","","","","","","","","","","","","","","","","",""
"html-button-response","91","246874","0.0-4.0-1.0-1.23","3","0","hmm0htc1h1jd1of","","491","","Was the sound coming from the left or the right?","0","","","1","INDUCTION-JUDGMENT","left","0","","","","","","","","","","","","","","","","","","","","","","","","","","",""
"html-keyboard-response","92","247878","0.0-4.0-1.0-2.23","3","0","hmm0htc1h1jd1of","","null","","<p style=""color:#054d00;""><b>Correct!</b></p>","","null","","","","","","","","","","","","","","","","","","","","","","","","","","","","","","","",""
"audio-keyboard-response","93","248691","0.0-4.0-1.0-0.24","3","0","hmm0htc1h1jd1of","","null","","sounds/induction/right_rev/me_SWS.wav","","null","","","","","","","","","","","","","","","","","","","","","","","","","","","","","","","",""
"html-button-response","94","249505","0.0-4.0-1.0-1.24","3","0","hmm0htc1h1jd1of","","812.6000000238419","","Was the sound coming from the left or the right?","1","","","1","INDUCTION-JUDGMENT","right","1","","","","","","","","","","","","","","","","","","","","","","","","","","",""
"html-keyboard-response","95","250507","0.0-4.0-1.0-2.24","3","0","hmm0htc1h1jd1of","","null","","<p style=""color:#054d00;""><b>Correct!</b></p>","","null","","","","","","","","","","","","","","","","","","","","","","","","","","","","","","","",""
"audio-keyboard-response","96","251302","0.0-4.0-1.0-0.25","3","0","hmm0htc1h1jd1of","","null","","sounds/induction/right_rev/ko_SWS.wav","","null","","","","","","","","","","","","","","","","","","","","","","","","","","","","","","","",""
"html-button-response","97","252018","0.0-4.0-1.0-1.25","3","0","hmm0htc1h1jd1of","","714.0999999642372","","Was the sound coming from the left or the right?","1","","","1","INDUCTION-JUDGMENT","right","1","","","","","","","","","","","","","","","","","","","","","","","","","","",""
"html-keyboard-response","98","253019","0.0-4.0-1.0-2.25","3","0","hmm0htc1h1jd1of","","null","","<p style=""color:#054d00;""><b>Correct!</b></p>","","null","","","","","","","","","","","","","","","","","","","","","","","","","","","","","","","",""
"audio-keyboard-response","99","253831","0.0-4.0-1.0-0.26","3","0","hmm0htc1h1jd1of","","null","","sounds/induction/left_rev/fu_SWS.wav","","null","","","","","","","","","","","","","","","","","","","","","","","","","","","","","","","",""
"html-button-response","100","254791","0.0-4.0-1.0-1.26","3","0","hmm0htc1h1jd1of","","958.3000000119209","","Was the sound coming from the left or the right?","0","","","1","INDUCTION-JUDGMENT","left","0","","","","","","","","","","","","","","","","","","","","","","","","","","",""
"html-keyboard-response","101","255792","0.0-4.0-1.0-2.26","3","0","hmm0htc1h1jd1of","","null","","<p style=""color:#054d00;""><b>Correct!</b></p>","","null","","","","","","","","","","","","","","","","","","","","","","","","","","","","","","","",""
"audio-keyboard-response","102","256612","0.0-4.0-1.0-0.27","3","0","hmm0htc1h1jd1of","","null","","sounds/induction/right_rev/ti_SWS.wav","","null","","","","","","","","","","","","","","","","","","","","","","","","","","","","","","","",""
"html-button-response","103","257274","0.0-4.0-1.0-1.27","3","0","hmm0htc1h1jd1of","","660.8000000119209","","Was the sound coming from the left or the right?","1","","","1","INDUCTION-JUDGMENT","right","1","","","","","","","","","","","","","","","","","","","","","","","","","","",""
"html-keyboard-response","104","258277","0.0-4.0-1.0-2.27","3","0","hmm0htc1h1jd1of","","null","","<p style=""color:#054d00;""><b>Correct!</b></p>","","null","","","","","","","","","","","","","","","","","","","","","","","","","","","","","","","",""
"audio-keyboard-response","105","259072","0.0-4.0-1.0-0.28","3","0","hmm0htc1h1jd1of","","null","","sounds/induction/left_rev/ta_SWS.wav","","null","","","","","","","","","","","","","","","","","","","","","","","","","","","","","","","",""
"html-button-response","106","259823","0.0-4.0-1.0-1.28","3","0","hmm0htc1h1jd1of","","750.1000000238419","","Was the sound coming from the left or the right?","0","","","1","INDUCTION-JUDGMENT","left","0","","","","","","","","","","","","","","","","","","","","","","","","","","",""
"html-keyboard-response","107","260826","0.0-4.0-1.0-2.28","3","0","hmm0htc1h1jd1of","","null","","<p style=""color:#054d00;""><b>Correct!</b></p>","","null","","","","","","","","","","","","","","","","","","","","","","","","","","","","","","","",""
"audio-keyboard-response","108","261621","0.0-4.0-1.0-0.29","3","0","hmm0htc1h1jd1of","","null","","sounds/induction/left_rev/fe_SWS.wav","","null","","","","","","","","","","","","","","","","","","","","","","","","","","","","","","","",""
"html-button-response","109","262485","0.0-4.0-1.0-1.29","3","0","hmm0htc1h1jd1of","","862.3000000119209","","Was the sound coming from the left or the right?","0","","","1","INDUCTION-JUDGMENT","left","0","","","","","","","","","","","","","","","","","","","","","","","","","","",""
"html-keyboard-response","110","263487","0.0-4.0-1.0-2.29","3","0","hmm0htc1h1jd1of","","null","","<p style=""color:#054d00;""><b>Correct!</b></p>","","null","","","","","","","","","","","","","","","","","","","","","","","","","","","","","","","",""
"audio-keyboard-response","111","264291","0.0-4.0-1.0-0.30","3","0","hmm0htc1h1jd1of","","null","","sounds/induction/left_rev/fu_SWS.wav","","null","","","","","","","","","","","","","","","","","","","","","","","","","","","","","","","",""
"html-button-response","112","265057","0.0-4.0-1.0-1.30","3","0","hmm0htc1h1jd1of","","764.2000000476837","","Was the sound coming from the left or the right?","0","","","1","INDUCTION-JUDGMENT","left","0","","","","","","","","","","","","","","","","","","","","","","","","","","",""
"html-keyboard-response","113","266060","0.0-4.0-1.0-2.30","3","0","hmm0htc1h1jd1of","","null","","<p style=""color:#054d00;""><b>Correct!</b></p>","","null","","","","","","","","","","","","","","","","","","","","","","","","","","","","","","","",""
"audio-keyboard-response","114","266861","0.0-4.0-1.0-0.31","3","0","hmm0htc1h1jd1of","","null","","sounds/induction/right_rev/ni_SWS.wav","","null","","","","","","","","","","","","","","","","","","","","","","","","","","","","","","","",""
"html-button-response","115","267577","0.0-4.0-1.0-1.31","3","0","hmm0htc1h1jd1of","","714.8999999761581","","Was the sound coming from the left or the right?","1","","","1","INDUCTION-JUDGMENT","right","1","","","","","","","","","","","","","","","","","","","","","","","","","","",""
"html-keyboard-response","116","268586","0.0-4.0-1.0-2.31","3","0","hmm0htc1h1jd1of","","null","","<p style=""color:#054d00;""><b>Correct!</b></p>","","null","","","","","","","","","","","","","","","","","","","","","","","","","","","","","","","",""
"audio-keyboard-response","117","269382","0.0-4.0-1.0-0.32","3","0","hmm0htc1h1jd1of","","null","","sounds/induction/right_rev/fe_SWS.wav","","null","","","","","","","","","","","","","","","","","","","","","","","","","","","","","","","",""
"html-button-response","118","270238","0.0-4.0-1.0-1.32","3","0","hmm0htc1h1jd1of","","854.9000000357628","","Was the sound coming from the left or the right?","1","","","1","INDUCTION-JUDGMENT","right","1","","","","","","","","","","","","","","","","","","","","","","","","","","",""
"html-keyboard-response","119","271245","0.0-4.0-1.0-2.32","3","0","hmm0htc1h1jd1of","","null","","<p style=""color:#054d00;""><b>Correct!</b></p>","","null","","","","","","","","","","","","","","","","","","","","","","","","","","","","","","","",""
"audio-keyboard-response","120","272061","0.0-4.0-1.0-0.33","3","0","hmm0htc1h1jd1of","","null","","sounds/induction/right_rev/ge_SWS.wav","","null","","","","","","","","","","","","","","","","","","","","","","","","","","","","","","","",""
"html-button-response","121","272699","0.0-4.0-1.0-1.33","3","0","hmm0htc1h1jd1of","","635.1999999880791","","Was the sound coming from the left or the right?","1","","","1","INDUCTION-JUDGMENT","right","1","","","","","","","","","","","","","","","","","","","","","","","","","","",""
"html-keyboard-response","122","273705","0.0-4.0-1.0-2.33","3","0","hmm0htc1h1jd1of","","null","","<p style=""color:#054d00;""><b>Correct!</b></p>","","null","","","","","","","","","","","","","","","","","","","","","","","","","","","","","","","",""
"audio-keyboard-response","123","274512","0.0-4.0-1.0-0.34","3","0","hmm0htc1h1jd1of","","null","","sounds/induction/right_rev/ni_SWS.wav","","null","","","","","","","","","","","","","","","","","","","","","","","","","","","","","","","",""
"html-button-response","124","275129","0.0-4.0-1.0-1.34","3","0","hmm0htc1h1jd1of","","615.1999999880791","","Was the sound coming from the left or the right?","1","","","1","INDUCTION-JUDGMENT","right","1","","","","","","","","","","","","","","","","","","","","","","","","","","",""
"html-keyboard-response","125","276141","0.0-4.0-1.0-2.34","3","0","hmm0htc1h1jd1of","","null","","<p style=""color:#054d00;""><b>Correct!</b></p>","","null","","","","","","","","","","","","","","","","","","","","","","","","","","","","","","","",""
"audio-keyboard-response","126","276951","0.0-4.0-1.0-0.35","3","0","hmm0htc1h1jd1of","","null","","sounds/induction/left_rev/me_SWS.wav","","null","","","","","","","","","","","","","","","","","","","","","","","","","","","","","","","",""
"html-button-response","127","277663","0.0-4.0-1.0-1.35","3","0","hmm0htc1h1jd1of","","710.3999999761581","","Was the sound coming from the left or the right?","0","","","1","INDUCTION-JUDGMENT","left","0","","","","","","","","","","","","","","","","","","","","","","","","","","",""
"html-keyboard-response","128","278665","0.0-4.0-1.0-2.35","3","0","hmm0htc1h1jd1of","","null","","<p style=""color:#054d00;""><b>Correct!</b></p>","","null","","","","","","","","","","","","","","","","","","","","","","","","","","","","","","","",""
"audio-keyboard-response","129","279471","0.0-4.0-1.0-0.36","3","0","hmm0htc1h1jd1of","","null","","sounds/induction/left_rev/ru_SWS.wav","","null","","","","","","","","","","","","","","","","","","","","","","","","","","","","","","","",""
"html-button-response","130","280167","0.0-4.0-1.0-1.36","3","0","hmm0htc1h1jd1of","","694.0999999642372","","Was the sound coming from the left or the right?","0","","","1","INDUCTION-JUDGMENT","left","0","","","","","","","","","","","","","","","","","","","","","","","","","","",""
"html-keyboard-response","131","281169","0.0-4.0-1.0-2.36","3","0","hmm0htc1h1jd1of","","null","","<p style=""color:#054d00;""><b>Correct!</b></p>","","null","","","","","","","","","","","","","","","","","","","","","","","","","","","","","","","",""
"audio-keyboard-response","132","281981","0.0-4.0-1.0-0.37","3","0","hmm0htc1h1jd1of","","null","","sounds/induction/right_rev/su_SWS.wav","","null","","","","","","","","","","","","","","","","","","","","","","","","","","","","","","","",""
"html-button-response","133","282807","0.0-4.0-1.0-1.37","3","0","hmm0htc1h1jd1of","","824.3000000119209","","Was the sound coming from the left or the right?","1","","","1","INDUCTION-JUDGMENT","right","1","","","","","","","","","","","","","","","","","","","","","","","","","","",""
"html-keyboard-response","134","283808","0.0-4.0-1.0-2.37","3","0","hmm0htc1h1jd1of","","null","","<p style=""color:#054d00;""><b>Correct!</b></p>","","null","","","","","","","","","","","","","","","","","","","","","","","","","","","","","","","",""
"audio-keyboard-response","135","284611","0.0-4.0-1.0-0.38","3","0","hmm0htc1h1jd1of","","null","","sounds/induction/left_rev/re_SWS.wav","","null","","","","","","","","","","","","","","","","","","","","","","","","","","","","","","","",""
"html-button-response","136","285185","0.0-4.0-1.0-1.38","3","0","hmm0htc1h1jd1of","","572.4000000357628","","Was the sound coming from the left or the right?","0","","","1","INDUCTION-JUDGMENT","left","0","","","","","","","","","","","","","","","","","","","","","","","","","","",""
"html-keyboard-response","137","286186","0.0-4.0-1.0-2.38","3","0","hmm0htc1h1jd1of","","null","","<p style=""color:#054d00;""><b>Correct!</b></p>","","null","","","","","","","","","","","","","","","","","","","","","","","","","","","","","","","",""
"audio-keyboard-response","138","286981","0.0-4.0-1.0-0.39","3","0","hmm0htc1h1jd1of","","null","","sounds/induction/right_rev/re_SWS.wav","","null","","","","","","","","","","","","","","","","","","","","","","","","","","","","","","","",""
"html-button-response","139","287585","0.0-4.0-1.0-1.39","3","0","hmm0htc1h1jd1of","","602","","Was the sound coming from the left or the right?","1","","","1","INDUCTION-JUDGMENT","right","1","","","","","","","","","","","","","","","","","","","","","","","","","","",""
"html-keyboard-response","140","288587","0.0-4.0-1.0-2.39","3","0","hmm0htc1h1jd1of","","null","","<p style=""color:#054d00;""><b>Correct!</b></p>","","null","","","","","","","","","","","","","","","","","","","","","","","","","","","","","","","",""
"audio-keyboard-response","141","289381","0.0-4.0-1.0-0.40","3","0","hmm0htc1h1jd1of","","null","","sounds/induction/right_rev/re_SWS.wav","","null","","","","","","","","","","","","","","","","","","","","","","","","","","","","","","","",""
"html-button-response","142","290090","0.0-4.0-1.0-1.40","3","0","hmm0htc1h1jd1of","","706.7999999523163","","Was the sound coming from the left or the right?","1","","","1","INDUCTION-JUDGMENT","right","1","","","","","","","","","","","","","","","","","","","","","","","","","","",""
"html-keyboard-response","143","291103","0.0-4.0-1.0-2.40","3","0","hmm0htc1h1jd1of","","null","","<p style=""color:#054d00;""><b>Correct!</b></p>","","null","","","","","","","","","","","","","","","","","","","","","","","","","","","","","","","",""
"audio-keyboard-response","144","291912","0.0-4.0-1.0-0.41","3","0","hmm0htc1h1jd1of","","null","","sounds/induction/right_rev/fu_SWS.wav","","null","","","","","","","","","","","","","","","","","","","","","","","","","","","","","","","",""
"html-button-response","145","292211","0.0-4.0-1.0-1.41","3","0","hmm0htc1h1jd1of","","297.89999997615814","","Was the sound coming from the left or the right?","1","","","1","INDUCTION-JUDGMENT","right","1","","","","","","","","","","","","","","","","","","","","","","","","","","",""
"html-keyboard-response","146","293213","0.0-4.0-1.0-2.41","3","0","hmm0htc1h1jd1of","","null","","<p style=""color:#054d00;""><b>Correct!</b></p>","","null","","","","","","","","","","","","","","","","","","","","","","","","","","","","","","","",""
"audio-keyboard-response","147","294021","0.0-4.0-1.0-0.42","3","0","hmm0htc1h1jd1of","","null","","sounds/induction/left_rev/fe_SWS.wav","","null","","","","","","","","","","","","","","","","","","","","","","","","","","","","","","","",""
"html-button-response","148","294793","0.0-4.0-1.0-1.42","3","0","hmm0htc1h1jd1of","","770.6999999880791","","Was the sound coming from the left or the right?","0","","","1","INDUCTION-JUDGMENT","left","0","","","","","","","","","","","","","","","","","","","","","","","","","","",""
"html-keyboard-response","149","295795","0.0-4.0-1.0-2.42","3","0","hmm0htc1h1jd1of","","null","","<p style=""color:#054d00;""><b>Correct!</b></p>","","null","","","","","","","","","","","","","","","","","","","","","","","","","","","","","","","",""
"audio-keyboard-response","150","296592","0.0-4.0-1.0-0.43","3","0","hmm0htc1h1jd1of","","null","","sounds/induction/right_rev/ru_SWS.wav","","null","","","","","","","","","","","","","","","","","","","","","","","","","","","","","","","",""
"html-button-response","151","297432","0.0-4.0-1.0-1.43","3","0","hmm0htc1h1jd1of","","839.4000000357628","","Was the sound coming from the left or the right?","1","","","1","INDUCTION-JUDGMENT","right","1","","","","","","","","","","","","","","","","","","","","","","","","","","",""
"html-keyboard-response","152","298444","0.0-4.0-1.0-2.43","3","0","hmm0htc1h1jd1of","","null","","<p style=""color:#054d00;""><b>Correct!</b></p>","","null","","","","","","","","","","","","","","","","","","","","","","","","","","","","","","","",""
"audio-keyboard-response","153","299251","0.0-4.0-1.0-0.44","3","0","hmm0htc1h1jd1of","","null","","sounds/induction/left_rev/su_SWS.wav","","null","","","","","","","","","","","","","","","","","","","","","","","","","","","","","","","",""
"html-button-response","154","299900","0.0-4.0-1.0-1.44","3","0","hmm0htc1h1jd1of","","647.6000000238419","","Was the sound coming from the left or the right?","0","","","1","INDUCTION-JUDGMENT","left","0","","","","","","","","","","","","","","","","","","","","","","","","","","",""
"html-keyboard-response","155","300901","0.0-4.0-1.0-2.44","3","0","hmm0htc1h1jd1of","","null","","<p style=""color:#054d00;""><b>Correct!</b></p>","","null","","","","","","","","","","","","","","","","","","","","","","","","","","","","","","","",""
"audio-keyboard-response","156","301712","0.0-4.0-1.0-0.45","3","0","hmm0htc1h1jd1of","","null","","sounds/induction/left_rev/ko_SWS.wav","","null","","","","","","","","","","","","","","","","","","","","","","","","","","","","","","","",""
"html-button-response","157","302508","0.0-4.0-1.0-1.45","3","0","hmm0htc1h1jd1of","","795.7999999523163","","Was the sound coming from the left or the right?","0","","","1","INDUCTION-JUDGMENT","left","0","","","","","","","","","","","","","","","","","","","","","","","","","","",""
"html-keyboard-response","158","303510","0.0-4.0-1.0-2.45","3","0","hmm0htc1h1jd1of","","null","","<p style=""color:#054d00;""><b>Correct!</b></p>","","null","","","","","","","","","","","","","","","","","","","","","","","","","","","","","","","",""
"audio-keyboard-response","159","304311","0.0-4.0-1.0-0.46","3","0","hmm0htc1h1jd1of","","null","","sounds/induction/left_rev/ru_SWS.wav","","null","","","","","","","","","","","","","","","","","","","","","","","","","","","","","","","",""
"html-button-response","160","305356","0.0-4.0-1.0-1.46","3","0","hmm0htc1h1jd1of","","1043.800000011921","","Was the sound coming from the left or the right?","0","","","1","INDUCTION-JUDGMENT","left","0","","","","","","","","","","","","","","","","","","","","","","","","","","",""
"html-keyboard-response","161","306357","0.0-4.0-1.0-2.46","3","0","hmm0htc1h1jd1of","","null","","<p style=""color:#054d00;""><b>Correct!</b></p>","","null","","","","","","","","","","","","","","","","","","","","","","","","","","","","","","","",""
"audio-keyboard-response","162","307171","0.0-4.0-1.0-0.47","3","0","hmm0htc1h1jd1of","","null","","sounds/induction/left_rev/ge_SWS.wav","","null","","","","","","","","","","","","","","","","","","","","","","","","","","","","","","","",""
"html-button-response","163","308136","0.0-4.0-1.0-1.47","3","0","hmm0htc1h1jd1of","","963.1999999880791","","Was the sound coming from the left or the right?","0","","","1","INDUCTION-JUDGMENT","left","0","","","","","","","","","","","","","","","","","","","","","","","","","","",""
"html-keyboard-response","164","309137","0.0-4.0-1.0-2.47","3","0","hmm0htc1h1jd1of","","null","","<p style=""color:#054d00;""><b>Correct!</b></p>","","null","","","","","","","","","","","","","","","","","","","","","","","","","","","","","","","",""
"html-button-response","165","317849","0.0-5.0-0.0","3","0","hmm0htc1h1jd1of","","8209.899999976158","","<p>Thank you for your answers.</p><p>You will now listen to similar sounds. The main difference is that the sounds will be longer.</p><p>Just as before, you will be asked to judge whether the sound was coming from the left or the right.</p><p>There are 10 of these longer sounds in total.","0","","","","","","","","","","","","","","","","","","","","","","","","","","","","","","","","",""
"audio-keyboard-response","166","320611","0.0-5.0-1.0-0.0","3","0","hmm0htc1h1jd1of","","null","","sounds/sentences/right_rev/14_08_cfSWS.wav","","null","","","","","","","","","","","","","","","","","","","","","","","","","","","","","","","",""
"html-button-response","167","321375","0.0-5.0-1.0-1.0","3","0","hmm0htc1h1jd1of","","761.8000000119209","","Was the sound coming from the left or the right?","1","","","1","INDUCTION-JUDGMENT","right","1","","","","","","","","","","","","","","","","","","","","","","","","","","",""
"html-keyboard-response","168","322377","0.0-5.0-1.0-2.0","3","0","hmm0htc1h1jd1of","","null","","<p style=""color:#054d00;""><b>Correct!</b></p>","","null","","","","","","","","","","","","","","","","","","","","","","","","","","","","","","","",""
"html-button-response","169","324223","0.0-5.0-1.0-3.0","3","0","hmm0htc1h1jd1of","","1344.7000000476837","","<p>Press the button below when you are ready to continue.</p>","0","","","","","","","","","","","","","","","","","","","","","","","","","","","","","","","","",""
"audio-keyboard-response","170","326811","0.0-5.0-1.0-0.1","3","0","hmm0htc1h1jd1of","","null","","sounds/sentences/left_rev/14_03_cfSWS.wav","","null","","","","","","","","","","","","","","","","","","","","","","","","","","","","","","","",""
"html-button-response","171","327398","0.0-5.0-1.0-1.1","3","0","hmm0htc1h1jd1of","","585.2000000476837","","Was the sound coming from the left or the right?","0","","","1","INDUCTION-JUDGMENT","left","0","","","","","","","","","","","","","","","","","","","","","","","","","","",""
"html-keyboard-response","172","328401","0.0-5.0-1.0-2.1","3","0","hmm0htc1h1jd1of","","null","","<p style=""color:#054d00;""><b>Correct!</b></p>","","null","","","","","","","","","","","","","","","","","","","","","","","","","","","","","","","",""
"html-button-response","173","329434","0.0-5.0-1.0-3.1","3","0","hmm0htc1h1jd1of","","526.5","","<p>Press the button below when you are ready to continue.</p>","0","","","","","","","","","","","","","","","","","","","","","","","","","","","","","","","","",""
"audio-keyboard-response","174","332181","0.0-5.0-1.0-0.2","3","0","hmm0htc1h1jd1of","","null","","sounds/sentences/right_rev/14_06_cfSWS.wav","","null","","","","","","","","","","","","","","","","","","","","","","","","","","","","","","","",""
"html-button-response","175","332870","0.0-5.0-1.0-1.2","3","0","hmm0htc1h1jd1of","","686.6999999880791","","Was the sound coming from the left or the right?","1","","","1","INDUCTION-JUDGMENT","right","1","","","","","","","","","","","","","","","","","","","","","","","","","","",""
"html-keyboard-response","176","333872","0.0-5.0-1.0-2.2","3","0","hmm0htc1h1jd1of","","null","","<p style=""color:#054d00;""><b>Correct!</b></p>","","null","","","","","","","","","","","","","","","","","","","","","","","","","","","","","","","",""
"html-button-response","177","335233","0.0-5.0-1.0-3.2","3","0","hmm0htc1h1jd1of","","857.9000000357628","","<p>Press the button below when you are ready to continue.</p>","0","","","","","","","","","","","","","","","","","","","","","","","","","","","","","","","","",""
"audio-keyboard-response","178","338121","0.0-5.0-1.0-0.3","3","0","hmm0htc1h1jd1of","","null","","sounds/sentences/right_rev/14_07_cfSWS.wav","","null","","","","","","","","","","","","","","","","","","","","","","","","","","","","","","","",""
"html-button-response","179","338684","0.0-5.0-1.0-1.3","3","0","hmm0htc1h1jd1of","","560.1000000238419","","Was the sound coming from the left or the right?","1","","","1","INDUCTION-JUDGMENT","right","1","","","","","","","","","","","","","","","","","","","","","","","","","","",""
"html-keyboard-response","180","339686","0.0-5.0-1.0-2.3","3","0","hmm0htc1h1jd1of","","null","","<p style=""color:#054d00;""><b>Correct!</b></p>","","null","","","","","","","","","","","","","","","","","","","","","","","","","","","","","","","",""
"html-button-response","181","340861","0.0-5.0-1.0-3.3","3","0","hmm0htc1h1jd1of","","671.8999999761581","","<p>Press the button below when you are ready to continue.</p>","0","","","","","","","","","","","","","","","","","","","","","","","","","","","","","","","","",""
"audio-keyboard-response","182","343682","0.0-5.0-1.0-0.4","3","0","hmm0htc1h1jd1of","","null","","sounds/sentences/left_rev/14_02_cfSWS.wav","","null","","","","","","","","","","","","","","","","","","","","","","","","","","","","","","","",""
"html-button-response","183","344304","0.0-5.0-1.0-1.4","3","0","hmm0htc1h1jd1of","","620.5","","Was the sound coming from the left or the right?","0","","","1","INDUCTION-JUDGMENT","left","0","","","","","","","","","","","","","","","","","","","","","","","","","","",""
"html-keyboard-response","184","345316","0.0-5.0-1.0-2.4","3","0","hmm0htc1h1jd1of","","null","","<p style=""color:#054d00;""><b>Correct!</b></p>","","null","","","","","","","","","","","","","","","","","","","","","","","","","","","","","","","",""
"html-button-response","185","346421","0.0-5.0-1.0-3.4","3","0","hmm0htc1h1jd1of","","594.8999999761581","","<p>Press the button below when you are ready to continue.</p>","0","","","","","","","","","","","","","","","","","","","","","","","","","","","","","","","","",""
"audio-keyboard-response","186","349151","0.0-5.0-1.0-0.5","3","0","hmm0htc1h1jd1of","","null","","sounds/sentences/right_rev/14_09_cfSWS.wav","","null","","","","","","","","","","","","","","","","","","","","","","","","","","","","","","","",""
"html-button-response","187","349760","0.0-5.0-1.0-1.5","3","0","hmm0htc1h1jd1of","","607.1999999880791","","Was the sound coming from the left or the right?","1","","","1","INDUCTION-JUDGMENT","right","1","","","","","","","","","","","","","","","","","","","","","","","","","","",""
"html-keyboard-response","188","350768","0.0-5.0-1.0-2.5","3","0","hmm0htc1h1jd1of","","null","","<p style=""color:#054d00;""><b>Correct!</b></p>","","null","","","","","","","","","","","","","","","","","","","","","","","","","","","","","","","",""
"html-button-response","189","352660","0.0-5.0-1.0-3.5","3","0","hmm0htc1h1jd1of","","1380","","<p>Press the button below when you are ready to continue.</p>","0","","","","","","","","","","","","","","","","","","","","","","","","","","","","","","","","",""
"audio-keyboard-response","190","355222","0.0-5.0-1.0-0.6","3","0","hmm0htc1h1jd1of","","null","","sounds/sentences/left_rev/14_04_cfSWS.wav","","null","","","","","","","","","","","","","","","","","","","","","","","","","","","","","","","",""
"html-button-response","191","355835","0.0-5.0-1.0-1.6","3","0","hmm0htc1h1jd1of","","611.5","","Was the sound coming from the left or the right?","0","","","1","INDUCTION-JUDGMENT","left","0","","","","","","","","","","","","","","","","","","","","","","","","","","",""
"html-keyboard-response","192","356836","0.0-5.0-1.0-2.6","3","0","hmm0htc1h1jd1of","","null","","<p style=""color:#054d00;""><b>Correct!</b></p>","","null","","","","","","","","","","","","","","","","","","","","","","","","","","","","","","","",""
"html-button-response","193","357989","0.0-5.0-1.0-3.6","3","0","hmm0htc1h1jd1of","","651.0999999642372","","<p>Press the button below when you are ready to continue.</p>","0","","","","","","","","","","","","","","","","","","","","","","","","","","","","","","","","",""
"audio-keyboard-response","194","360981","0.0-5.0-1.0-0.7","3","0","hmm0htc1h1jd1of","","null","","sounds/sentences/left_rev/14_05_cfSWS.wav","","null","","","","","","","","","","","","","","","","","","","","","","","","","","","","","","","",""
"html-button-response","195","361507","0.0-5.0-1.0-1.7","3","0","hmm0htc1h1jd1of","","525.0999999642372","","Was the sound coming from the left or the right?","0","","","1","INDUCTION-JUDGMENT","left","0","","","","","","","","","","","","","","","","","","","","","","","","","","",""
"html-keyboard-response","196","362509","0.0-5.0-1.0-2.7","3","0","hmm0htc1h1jd1of","","null","","<p style=""color:#054d00;""><b>Correct!</b></p>","","null","","","","","","","","","","","","","","","","","","","","","","","","","","","","","","","",""
"html-button-response","197","363654","0.0-5.0-1.0-3.7","3","0","hmm0htc1h1jd1of","","637.6999999880791","","<p>Press the button below when you are ready to continue.</p>","0","","","","","","","","","","","","","","","","","","","","","","","","","","","","","","","","",""
"audio-keyboard-response","198","366772","0.0-5.0-1.0-0.8","3","0","hmm0htc1h1jd1of","","null","","sounds/sentences/left_rev/14_01_cfSWS.wav","","null","","","","","","","","","","","","","","","","","","","","","","","","","","","","","","","",""
"html-button-response","199","367560","0.0-5.0-1.0-1.8","3","0","hmm0htc1h1jd1of","","786.8000000119209","","Was the sound coming from the left or the right?","0","","","1","INDUCTION-JUDGMENT","left","0","","","","","","","","","","","","","","","","","","","","","","","","","","",""
"html-keyboard-response","200","368562","0.0-5.0-1.0-2.8","3","0","hmm0htc1h1jd1of","","null","","<p style=""color:#054d00;""><b>Correct!</b></p>","","null","","","","","","","","","","","","","","","","","","","","","","","","","","","","","","","",""
"html-button-response","201","370460","0.0-5.0-1.0-3.8","3","0","hmm0htc1h1jd1of","","1390.4000000357628","","<p>Press the button below when you are ready to continue.</p>","0","","","","","","","","","","","","","","","","","","","","","","","","","","","","","","","","",""
"audio-keyboard-response","202","373482","0.0-5.0-1.0-0.9","3","0","hmm0htc1h1jd1of","","null","","sounds/sentences/right_rev/14_10_cfSWS.wav","","null","","","","","","","","","","","","","","","","","","","","","","","","","","","","","","","",""
"html-button-response","203","374172","0.0-5.0-1.0-1.9","3","0","hmm0htc1h1jd1of","","688.5999999642372","","Was the sound coming from the left or the right?","1","","","1","INDUCTION-JUDGMENT","right","1","","","","","","","","","","","","","","","","","","","","","","","","","","",""
"html-keyboard-response","204","375174","0.0-5.0-1.0-2.9","3","0","hmm0htc1h1jd1of","","null","","<p style=""color:#054d00;""><b>Correct!</b></p>","","null","","","","","","","","","","","","","","","","","","","","","","","","","","","","","","","",""
"html-button-response","205","377101","0.0-5.0-1.0-3.9","3","0","hmm0htc1h1jd1of","","1425.699999988079","","<p>Press the button below when you are ready to continue.</p>","0","","","","","","","","","","","","","","","","","","","","","","","","","","","","","","","","",""
"html-keyboard-response","206","393491","0.0-6.0-0.0","3","0","hmm0htc1h1jd1of","","15887.400000035763","","<p>In this part of the study, you will hear sounds similar to those you just heard.</p><p>Please focus on these sounds, as you may be asked questions about them later.</p><p>Occasionally, the sounds will pause for up to two seconds. When this happens, please press SPACEBAR as quickly as you can.</br>This helps ensure that you are paying attention to the sounds.</p><p>This part of the study will take about 12 minutes to complete, and you will be given the opportunity to take a couple of short breaks every few minutes.</p><p><strong>Press SPACEBAR to begin</strong></p>","","32","","","","","","","","","","","","","","","","","","","","","","","","","","","","","","","",""
"html-keyboard-response","207","394501","0.0-6.0-1.0-0.0","3","0","hmm0htc1h1jd1of","","null","","<p style=""font-size: 40px;"">+</p>","","null","","","","","","","","","","","","","","","","","","","","","","","","","","","","","","","",""
"html-keyboard-response","208","579507","0.0-6.0-1.0-1.0","3","0","hmm0htc1h1jd1of","","null","","","","null","","","SL-TRAIN","","","0","990.5999999642372","864.8999999761581","sounds/C/TRAIN/SEQ__04.mp3","5","","","","","","","","","","","","","","","","","","","","","",""
"html-button-response","209","584490","0.0-6.0-1.0-2.0","3","0","hmm0htc1h1jd1of","","4979.900000035763","","<p>You may take a short break if you wish.</p>","0","","","","","","","","","","","","","","","","","","","","","","","","","","","","","","","","",""
"html-keyboard-response","210","585492","0.0-6.0-1.0-3.0","3","0","hmm0htc1h1jd1of","","null","","<p style=""font-size: 40px;"">+</p>","","null","","","","","","","","","","","","","","","","","","","","","","","","","","","","","","","",""
"html-keyboard-response","211","770498","0.0-6.0-1.0-4.0","3","0","hmm0htc1h1jd1of","","null","","","","null","","","SL-TRAIN","","","0","1153.5999999642372","1234","sounds/C/TRAIN/SEQ__07.mp3","8","","","","","","","","","","","","","","","","","","","","","",""
"html-button-response","212","773996","0.0-6.0-1.0-5.0","3","0","hmm0htc1h1jd1of","","3496.699999988079","","<p>You may take a short break if you wish.</p>","0","","","","","","","","","","","","","","","","","","","","","","","","","","","","","","","","",""
"html-keyboard-response","213","774998","0.0-6.0-1.0-6.0","3","0","hmm0htc1h1jd1of","","null","","<p style=""font-size: 40px;"">+</p>","","null","","","","","","","","","","","","","","","","","","","","","","","","","","","","","","","",""
"html-keyboard-response","214","960005","0.0-6.0-1.0-7.0","3","0","hmm0htc1h1jd1of","","null","","","","null","","","SL-TRAIN","","","0","1452.2999999523163","1277.5999999642372","sounds/C/TRAIN/SEQ__08.mp3","16","","","","","","","","","","","","","","","","","","","","","",""
"html-button-response","215","963652","0.0-6.0-1.0-8.0","3","0","hmm0htc1h1jd1of","","3645.600000023842","","<p>You may take a short break if you wish.</p>","0","","","","","","","","","","","","","","","","","","","","","","","","","","","","","","","","",""
"html-keyboard-response","216","964654","0.0-6.0-1.0-9.0","3","0","hmm0htc1h1jd1of","","null","","<p style=""font-size: 40px;"">+</p>","","null","","","","","","","","","","","","","","","","","","","","","","","","","","","","","","","",""
"html-keyboard-response","217","1149657","0.0-6.0-1.0-10.0","3","0","hmm0htc1h1jd1of","","null","","","","null","","","SL-TRAIN","","","1","null","1309.1000000238419","sounds/C/TRAIN/SEQ__03.mp3","8","","","","","","","","","","","","","","","","","","","","","",""
"html-button-response","218","1152286","0.0-6.0-1.0-11.0","3","0","hmm0htc1h1jd1of","","2627.400000035763","","<p>You may take a short break if you wish.</p>","0","","","","","","","","","","","","","","","","","","","","","","","","","","","","","","","","",""
"html-button-response","219","1217964","0.0-7.0-0.0","3","0","hmm0htc1h1jd1of","","65676.19999998808","","<p>Welcome to the second part of the study. This is a <u>familiarity task</u>.</p><p>You will now hear short sounds and will be asked to rate how familiar they sound to you <b>based on what you heard in the previous part of the study</b>.</p><p>You will rate 12 sounds in total.</p>","0","","","","","","","","","","","","","","","","","","","","","","","","","","","","","","","","",""
"html-keyboard-response","220","1218965","0.0-7.0-1.0-0.0","3","0","hmm0htc1h1jd1of","","null","","","","null","","","","","","","","","","","","","","","","","","","","","","","","","","","","","","","",""
"audio-keyboard-response","221","1220159","0.0-7.0-1.0-1.0","3","0","hmm0htc1h1jd1of","","null","","sounds/C/FAM/W001.mp3","","null","","","","","","","","","","","","","","","","","","","","","","","","","","","","","","","",""
"html-keyboard-response","222","1223656","0.0-7.0-1.0-2.0","3","0","hmm0htc1h1jd1of","","2994.399999976158","","<p>How familiar did this sound to you?</p><p>1&nbsp;&nbsp;&nbsp;&nbsp;&nbsp;&nbsp;&nbsp;&nbsp;&nbsp;&nbsp;&nbsp;&nbsp;&nbsp;&nbsp;&nbsp;&nbsp;&nbsp;&nbsp;&nbsp;2&nbsp;&nbsp;&nbsp;&nbsp;&nbsp;&nbsp;&nbsp;&nbsp;&nbsp;&nbsp;&nbsp;&nbsp;&nbsp;&nbsp;&nbsp;&nbsp;&nbsp;&nbsp;&nbsp;3&nbsp;&nbsp;&nbsp;&nbsp;&nbsp;&nbsp;&nbsp;&nbsp;&nbsp;&nbsp;&nbsp;&nbsp;&nbsp;&nbsp;&nbsp;&nbsp;&nbsp;&nbsp;&nbsp;4</p><p style=""font-size:14px"">Not at all familiar&nbsp;&nbsp;&nbsp;&nbsp;A little familiar&nbsp;&nbsp;&nbsp;Moderately familiar&nbsp;&nbsp;&nbsp;Extremely familiar</p><p>(press the corresponding number on your keyboard)</p>","","52","","","FAM-RESPONSE","","","","","","","","sounds/C/FAM/W001.mp3","word","","","","","","","","","","","","","","","","","","","",""
"html-keyboard-response","223","1225673","0.0-7.0-1.0-0.1","3","0","hmm0htc1h1jd1of","","null","","","","null","","","","","","","","","","","","","","","","","","","","","","","","","","","","","","","",""
"audio-keyboard-response","224","1226609","0.0-7.0-1.0-1.1","3","0","hmm0htc1h1jd1of","","null","","sounds/C/FAM/N004.mp3","","null","","","","","","","","","","","","","","","","","","","","","","","","","","","","","","","",""
"html-keyboard-response","225","1228675","0.0-7.0-1.0-2.1","3","0","hmm0htc1h1jd1of","","1559","","<p>How familiar did this sound to you?</p><p>1&nbsp;&nbsp;&nbsp;&nbsp;&nbsp;&nbsp;&nbsp;&nbsp;&nbsp;&nbsp;&nbsp;&nbsp;&nbsp;&nbsp;&nbsp;&nbsp;&nbsp;&nbsp;&nbsp;2&nbsp;&nbsp;&nbsp;&nbsp;&nbsp;&nbsp;&nbsp;&nbsp;&nbsp;&nbsp;&nbsp;&nbsp;&nbsp;&nbsp;&nbsp;&nbsp;&nbsp;&nbsp;&nbsp;3&nbsp;&nbsp;&nbsp;&nbsp;&nbsp;&nbsp;&nbsp;&nbsp;&nbsp;&nbsp;&nbsp;&nbsp;&nbsp;&nbsp;&nbsp;&nbsp;&nbsp;&nbsp;&nbsp;4</p><p style=""font-size:14px"">Not at all familiar&nbsp;&nbsp;&nbsp;&nbsp;A little familiar&nbsp;&nbsp;&nbsp;Moderately familiar&nbsp;&nbsp;&nbsp;Extremely familiar</p><p>(press the corresponding number on your keyboard)</p>","","52","","","FAM-RESPONSE","","","","","","","","sounds/C/FAM/N004.mp3","nonword","","","","","","","","","","","","","","","","","","","",""
"html-keyboard-response","226","1230697","0.0-7.0-1.0-0.2","3","0","hmm0htc1h1jd1of","","null","","","","null","","","","","","","","","","","","","","","","","","","","","","","","","","","","","","","",""
"audio-keyboard-response","227","1231639","0.0-7.0-1.0-1.2","3","0","hmm0htc1h1jd1of","","null","","sounds/C/FAM/P001.mp3","","null","","","","","","","","","","","","","","","","","","","","","","","","","","","","","","","",""
"html-keyboard-response","228","1233334","0.0-7.0-1.0-2.2","3","0","hmm0htc1h1jd1of","","1188.199999988079","","<p>How familiar did this sound to you?</p><p>1&nbsp;&nbsp;&nbsp;&nbsp;&nbsp;&nbsp;&nbsp;&nbsp;&nbsp;&nbsp;&nbsp;&nbsp;&nbsp;&nbsp;&nbsp;&nbsp;&nbsp;&nbsp;&nbsp;2&nbsp;&nbsp;&nbsp;&nbsp;&nbsp;&nbsp;&nbsp;&nbsp;&nbsp;&nbsp;&nbsp;&nbsp;&nbsp;&nbsp;&nbsp;&nbsp;&nbsp;&nbsp;&nbsp;3&nbsp;&nbsp;&nbsp;&nbsp;&nbsp;&nbsp;&nbsp;&nbsp;&nbsp;&nbsp;&nbsp;&nbsp;&nbsp;&nbsp;&nbsp;&nbsp;&nbsp;&nbsp;&nbsp;4</p><p style=""font-size:14px"">Not at all familiar&nbsp;&nbsp;&nbsp;&nbsp;A little familiar&nbsp;&nbsp;&nbsp;Moderately familiar&nbsp;&nbsp;&nbsp;Extremely familiar</p><p>(press the corresponding number on your keyboard)</p>","","51","","","FAM-RESPONSE","","","","","","","","sounds/C/FAM/P001.mp3","partword","","","","","","","","","","","","","","","","","","","",""
"html-keyboard-response","229","1235347","0.0-7.0-1.0-0.3","3","0","hmm0htc1h1jd1of","","null","","","","null","","","","","","","","","","","","","","","","","","","","","","","","","","","","","","","",""
"audio-keyboard-response","230","1236279","0.0-7.0-1.0-1.3","3","0","hmm0htc1h1jd1of","","null","","sounds/C/FAM/W002.mp3","","null","","","","","","","","","","","","","","","","","","","","","","","","","","","","","","","",""
"html-keyboard-response","231","1239250","0.0-7.0-1.0-2.3","3","0","hmm0htc1h1jd1of","","2456.100000023842","","<p>How familiar did this sound to you?</p><p>1&nbsp;&nbsp;&nbsp;&nbsp;&nbsp;&nbsp;&nbsp;&nbsp;&nbsp;&nbsp;&nbsp;&nbsp;&nbsp;&nbsp;&nbsp;&nbsp;&nbsp;&nbsp;&nbsp;2&nbsp;&nbsp;&nbsp;&nbsp;&nbsp;&nbsp;&nbsp;&nbsp;&nbsp;&nbsp;&nbsp;&nbsp;&nbsp;&nbsp;&nbsp;&nbsp;&nbsp;&nbsp;&nbsp;3&nbsp;&nbsp;&nbsp;&nbsp;&nbsp;&nbsp;&nbsp;&nbsp;&nbsp;&nbsp;&nbsp;&nbsp;&nbsp;&nbsp;&nbsp;&nbsp;&nbsp;&nbsp;&nbsp;4</p><p style=""font-size:14px"">Not at all familiar&nbsp;&nbsp;&nbsp;&nbsp;A little familiar&nbsp;&nbsp;&nbsp;Moderately familiar&nbsp;&nbsp;&nbsp;Extremely familiar</p><p>(press the corresponding number on your keyboard)</p>","","50","","","FAM-RESPONSE","","","","","","","","sounds/C/FAM/W002.mp3","word","","","","","","","","","","","","","","","","","","","",""
"html-keyboard-response","232","1241281","0.0-7.0-1.0-0.4","3","0","hmm0htc1h1jd1of","","null","","","","null","","","","","","","","","","","","","","","","","","","","","","","","","","","","","","","",""
"audio-keyboard-response","233","1242229","0.0-7.0-1.0-1.4","3","0","hmm0htc1h1jd1of","","null","","sounds/C/FAM/P004.mp3","","null","","","","","","","","","","","","","","","","","","","","","","","","","","","","","","","",""
"html-keyboard-response","234","1243235","0.0-7.0-1.0-2.4","3","0","hmm0htc1h1jd1of","","488.89999997615814","","<p>How familiar did this sound to you?</p><p>1&nbsp;&nbsp;&nbsp;&nbsp;&nbsp;&nbsp;&nbsp;&nbsp;&nbsp;&nbsp;&nbsp;&nbsp;&nbsp;&nbsp;&nbsp;&nbsp;&nbsp;&nbsp;&nbsp;2&nbsp;&nbsp;&nbsp;&nbsp;&nbsp;&nbsp;&nbsp;&nbsp;&nbsp;&nbsp;&nbsp;&nbsp;&nbsp;&nbsp;&nbsp;&nbsp;&nbsp;&nbsp;&nbsp;3&nbsp;&nbsp;&nbsp;&nbsp;&nbsp;&nbsp;&nbsp;&nbsp;&nbsp;&nbsp;&nbsp;&nbsp;&nbsp;&nbsp;&nbsp;&nbsp;&nbsp;&nbsp;&nbsp;4</p><p style=""font-size:14px"">Not at all familiar&nbsp;&nbsp;&nbsp;&nbsp;A little familiar&nbsp;&nbsp;&nbsp;Moderately familiar&nbsp;&nbsp;&nbsp;Extremely familiar</p><p>(press the corresponding number on your keyboard)</p>","","51","","","FAM-RESPONSE","","","","","","","","sounds/C/FAM/P004.mp3","partword","","","","","","","","","","","","","","","","","","","",""
"html-keyboard-response","235","1245248","0.0-7.0-1.0-0.5","3","0","hmm0htc1h1jd1of","","null","","","","null","","","","","","","","","","","","","","","","","","","","","","","","","","","","","","","",""
"audio-keyboard-response","236","1246200","0.0-7.0-1.0-1.5","3","0","hmm0htc1h1jd1of","","null","","sounds/C/FAM/N003.mp3","","null","","","","","","","","","","","","","","","","","","","","","","","","","","","","","","","",""
"html-keyboard-response","237","1247126","0.0-7.0-1.0-2.5","3","0","hmm0htc1h1jd1of","","417.80000001192093","","<p>How familiar did this sound to you?</p><p>1&nbsp;&nbsp;&nbsp;&nbsp;&nbsp;&nbsp;&nbsp;&nbsp;&nbsp;&nbsp;&nbsp;&nbsp;&nbsp;&nbsp;&nbsp;&nbsp;&nbsp;&nbsp;&nbsp;2&nbsp;&nbsp;&nbsp;&nbsp;&nbsp;&nbsp;&nbsp;&nbsp;&nbsp;&nbsp;&nbsp;&nbsp;&nbsp;&nbsp;&nbsp;&nbsp;&nbsp;&nbsp;&nbsp;3&nbsp;&nbsp;&nbsp;&nbsp;&nbsp;&nbsp;&nbsp;&nbsp;&nbsp;&nbsp;&nbsp;&nbsp;&nbsp;&nbsp;&nbsp;&nbsp;&nbsp;&nbsp;&nbsp;4</p><p style=""font-size:14px"">Not at all familiar&nbsp;&nbsp;&nbsp;&nbsp;A little familiar&nbsp;&nbsp;&nbsp;Moderately familiar&nbsp;&nbsp;&nbsp;Extremely familiar</p><p>(press the corresponding number on your keyboard)</p>","","51","","","FAM-RESPONSE","","","","","","","","sounds/C/FAM/N003.mp3","nonword","","","","","","","","","","","","","","","","","","","",""
"html-keyboard-response","238","1249145","0.0-7.0-1.0-0.6","3","0","hmm0htc1h1jd1of","","null","","","","null","","","","","","","","","","","","","","","","","","","","","","","","","","","","","","","",""
"audio-keyboard-response","239","1250079","0.0-7.0-1.0-1.6","3","0","hmm0htc1h1jd1of","","null","","sounds/C/FAM/P002.mp3","","null","","","","","","","","","","","","","","","","","","","","","","","","","","","","","","","",""
"html-keyboard-response","240","1251257","0.0-7.0-1.0-2.6","3","0","hmm0htc1h1jd1of","","665","","<p>How familiar did this sound to you?</p><p>1&nbsp;&nbsp;&nbsp;&nbsp;&nbsp;&nbsp;&nbsp;&nbsp;&nbsp;&nbsp;&nbsp;&nbsp;&nbsp;&nbsp;&nbsp;&nbsp;&nbsp;&nbsp;&nbsp;2&nbsp;&nbsp;&nbsp;&nbsp;&nbsp;&nbsp;&nbsp;&nbsp;&nbsp;&nbsp;&nbsp;&nbsp;&nbsp;&nbsp;&nbsp;&nbsp;&nbsp;&nbsp;&nbsp;3&nbsp;&nbsp;&nbsp;&nbsp;&nbsp;&nbsp;&nbsp;&nbsp;&nbsp;&nbsp;&nbsp;&nbsp;&nbsp;&nbsp;&nbsp;&nbsp;&nbsp;&nbsp;&nbsp;4</p><p style=""font-size:14px"">Not at all familiar&nbsp;&nbsp;&nbsp;&nbsp;A little familiar&nbsp;&nbsp;&nbsp;Moderately familiar&nbsp;&nbsp;&nbsp;Extremely familiar</p><p>(press the corresponding number on your keyboard)</p>","","51","","","FAM-RESPONSE","","","","","","","","sounds/C/FAM/P002.mp3","partword","","","","","","","","","","","","","","","","","","","",""
"html-keyboard-response","241","1253280","0.0-7.0-1.0-0.7","3","0","hmm0htc1h1jd1of","","null","","","","null","","","","","","","","","","","","","","","","","","","","","","","","","","","","","","","",""
"audio-keyboard-response","242","1254229","0.0-7.0-1.0-1.7","3","0","hmm0htc1h1jd1of","","null","","sounds/C/FAM/N002.mp3","","null","","","","","","","","","","","","","","","","","","","","","","","","","","","","","","","",""
"html-keyboard-response","243","1263344","0.0-7.0-1.0-2.7","3","0","hmm0htc1h1jd1of","","8606.599999964237","","<p>How familiar did this sound to you?</p><p>1&nbsp;&nbsp;&nbsp;&nbsp;&nbsp;&nbsp;&nbsp;&nbsp;&nbsp;&nbsp;&nbsp;&nbsp;&nbsp;&nbsp;&nbsp;&nbsp;&nbsp;&nbsp;&nbsp;2&nbsp;&nbsp;&nbsp;&nbsp;&nbsp;&nbsp;&nbsp;&nbsp;&nbsp;&nbsp;&nbsp;&nbsp;&nbsp;&nbsp;&nbsp;&nbsp;&nbsp;&nbsp;&nbsp;3&nbsp;&nbsp;&nbsp;&nbsp;&nbsp;&nbsp;&nbsp;&nbsp;&nbsp;&nbsp;&nbsp;&nbsp;&nbsp;&nbsp;&nbsp;&nbsp;&nbsp;&nbsp;&nbsp;4</p><p style=""font-size:14px"">Not at all familiar&nbsp;&nbsp;&nbsp;&nbsp;A little familiar&nbsp;&nbsp;&nbsp;Moderately familiar&nbsp;&nbsp;&nbsp;Extremely familiar</p><p>(press the corresponding number on your keyboard)</p>","","51","","","FAM-RESPONSE","","","","","","","","sounds/C/FAM/N002.mp3","nonword","","","","","","","","","","","","","","","","","","","",""
"html-keyboard-response","244","1265365","0.0-7.0-1.0-0.8","3","0","hmm0htc1h1jd1of","","null","","","","null","","","","","","","","","","","","","","","","","","","","","","","","","","","","","","","",""
"audio-keyboard-response","245","1266310","0.0-7.0-1.0-1.8","3","0","hmm0htc1h1jd1of","","null","","sounds/C/FAM/W003.mp3","","null","","","","","","","","","","","","","","","","","","","","","","","","","","","","","","","",""
"html-keyboard-response","246","1267031","0.0-7.0-1.0-2.8","3","0","hmm0htc1h1jd1of","","211.4000000357628","","<p>How familiar did this sound to you?</p><p>1&nbsp;&nbsp;&nbsp;&nbsp;&nbsp;&nbsp;&nbsp;&nbsp;&nbsp;&nbsp;&nbsp;&nbsp;&nbsp;&nbsp;&nbsp;&nbsp;&nbsp;&nbsp;&nbsp;2&nbsp;&nbsp;&nbsp;&nbsp;&nbsp;&nbsp;&nbsp;&nbsp;&nbsp;&nbsp;&nbsp;&nbsp;&nbsp;&nbsp;&nbsp;&nbsp;&nbsp;&nbsp;&nbsp;3&nbsp;&nbsp;&nbsp;&nbsp;&nbsp;&nbsp;&nbsp;&nbsp;&nbsp;&nbsp;&nbsp;&nbsp;&nbsp;&nbsp;&nbsp;&nbsp;&nbsp;&nbsp;&nbsp;4</p><p style=""font-size:14px"">Not at all familiar&nbsp;&nbsp;&nbsp;&nbsp;A little familiar&nbsp;&nbsp;&nbsp;Moderately familiar&nbsp;&nbsp;&nbsp;Extremely familiar</p><p>(press the corresponding number on your keyboard)</p>","","52","","","FAM-RESPONSE","","","","","","","","sounds/C/FAM/W003.mp3","word","","","","","","","","","","","","","","","","","","","",""
"html-keyboard-response","247","1269044","0.0-7.0-1.0-0.9","3","0","hmm0htc1h1jd1of","","null","","","","null","","","","","","","","","","","","","","","","","","","","","","","","","","","","","","","",""
"audio-keyboard-response","248","1269990","0.0-7.0-1.0-1.9","3","0","hmm0htc1h1jd1of","","null","","sounds/C/FAM/W004.mp3","","null","","","","","","","","","","","","","","","","","","","","","","","","","","","","","","","",""
"html-keyboard-response","249","1272858","0.0-7.0-1.0-2.9","3","0","hmm0htc1h1jd1of","","2367.199999988079","","<p>How familiar did this sound to you?</p><p>1&nbsp;&nbsp;&nbsp;&nbsp;&nbsp;&nbsp;&nbsp;&nbsp;&nbsp;&nbsp;&nbsp;&nbsp;&nbsp;&nbsp;&nbsp;&nbsp;&nbsp;&nbsp;&nbsp;2&nbsp;&nbsp;&nbsp;&nbsp;&nbsp;&nbsp;&nbsp;&nbsp;&nbsp;&nbsp;&nbsp;&nbsp;&nbsp;&nbsp;&nbsp;&nbsp;&nbsp;&nbsp;&nbsp;3&nbsp;&nbsp;&nbsp;&nbsp;&nbsp;&nbsp;&nbsp;&nbsp;&nbsp;&nbsp;&nbsp;&nbsp;&nbsp;&nbsp;&nbsp;&nbsp;&nbsp;&nbsp;&nbsp;4</p><p style=""font-size:14px"">Not at all familiar&nbsp;&nbsp;&nbsp;&nbsp;A little familiar&nbsp;&nbsp;&nbsp;Moderately familiar&nbsp;&nbsp;&nbsp;Extremely familiar</p><p>(press the corresponding number on your keyboard)</p>","","51","","","FAM-RESPONSE","","","","","","","","sounds/C/FAM/W004.mp3","word","","","","","","","","","","","","","","","","","","","",""
"html-keyboard-response","250","1274875","0.0-7.0-1.0-0.10","3","0","hmm0htc1h1jd1of","","null","","","","null","","","","","","","","","","","","","","","","","","","","","","","","","","","","","","","",""
"audio-keyboard-response","251","1275809","0.0-7.0-1.0-1.10","3","0","hmm0htc1h1jd1of","","null","","sounds/C/FAM/N001.mp3","","null","","","","","","","","","","","","","","","","","","","","","","","","","","","","","","","",""
"html-keyboard-response","252","1281746","0.0-7.0-1.0-2.10","3","0","hmm0htc1h1jd1of","","5429.800000011921","","<p>How familiar did this sound to you?</p><p>1&nbsp;&nbsp;&nbsp;&nbsp;&nbsp;&nbsp;&nbsp;&nbsp;&nbsp;&nbsp;&nbsp;&nbsp;&nbsp;&nbsp;&nbsp;&nbsp;&nbsp;&nbsp;&nbsp;2&nbsp;&nbsp;&nbsp;&nbsp;&nbsp;&nbsp;&nbsp;&nbsp;&nbsp;&nbsp;&nbsp;&nbsp;&nbsp;&nbsp;&nbsp;&nbsp;&nbsp;&nbsp;&nbsp;3&nbsp;&nbsp;&nbsp;&nbsp;&nbsp;&nbsp;&nbsp;&nbsp;&nbsp;&nbsp;&nbsp;&nbsp;&nbsp;&nbsp;&nbsp;&nbsp;&nbsp;&nbsp;&nbsp;4</p><p style=""font-size:14px"">Not at all familiar&nbsp;&nbsp;&nbsp;&nbsp;A little familiar&nbsp;&nbsp;&nbsp;Moderately familiar&nbsp;&nbsp;&nbsp;Extremely familiar</p><p>(press the corresponding number on your keyboard)</p>","","50","","","FAM-RESPONSE","","","","","","","","sounds/C/FAM/N001.mp3","nonword","","","","","","","","","","","","","","","","","","","",""
"html-keyboard-response","253","1283762","0.0-7.0-1.0-0.11","3","0","hmm0htc1h1jd1of","","null","","","","null","","","","","","","","","","","","","","","","","","","","","","","","","","","","","","","",""
"audio-keyboard-response","254","1284710","0.0-7.0-1.0-1.11","3","0","hmm0htc1h1jd1of","","null","","sounds/C/FAM/P003.mp3","","null","","","","","","","","","","","","","","","","","","","","","","","","","","","","","","","",""
"html-keyboard-response","255","1286511","0.0-7.0-1.0-2.11","3","0","hmm0htc1h1jd1of","","1289.300000011921","","<p>How familiar did this sound to you?</p><p>1&nbsp;&nbsp;&nbsp;&nbsp;&nbsp;&nbsp;&nbsp;&nbsp;&nbsp;&nbsp;&nbsp;&nbsp;&nbsp;&nbsp;&nbsp;&nbsp;&nbsp;&nbsp;&nbsp;2&nbsp;&nbsp;&nbsp;&nbsp;&nbsp;&nbsp;&nbsp;&nbsp;&nbsp;&nbsp;&nbsp;&nbsp;&nbsp;&nbsp;&nbsp;&nbsp;&nbsp;&nbsp;&nbsp;3&nbsp;&nbsp;&nbsp;&nbsp;&nbsp;&nbsp;&nbsp;&nbsp;&nbsp;&nbsp;&nbsp;&nbsp;&nbsp;&nbsp;&nbsp;&nbsp;&nbsp;&nbsp;&nbsp;4</p><p style=""font-size:14px"">Not at all familiar&nbsp;&nbsp;&nbsp;&nbsp;A little familiar&nbsp;&nbsp;&nbsp;Moderately familiar&nbsp;&nbsp;&nbsp;Extremely familiar</p><p>(press the corresponding number on your keyboard)</p>","","51","","","FAM-RESPONSE","","","","","","","","sounds/C/FAM/P003.mp3","partword","","","","","","","","","","","","","","","","","","","",""
"html-button-response","256","1298680","0.0-8.0-0.0","3","0","hmm0htc1h1jd1of","","11158.5","","<p>You will now listen to longer sound sequences.</p><p>Each sound sequence will last about 16 seconds.</p><p>On each trial, you will be given a <u>TARGET SOUND</u>. Your task is to listen very carefully for this sound.</p><p>Every time you hear the <u>TARGET SOUND</u>, you will press the <b>SPACEBAR</b> as quickly and accurately as you can.</p>","0","","","","","","","","","","","","","","","","","","","","","","","","","","","","","","","","",""
"html-button-response","257","1305068","0.0-8.0-1.0","3","0","hmm0htc1h1jd1of","","6128.100000023842","","<p>It is very important that you make your responses as quickly and accurately as possible.</p><p>To help you make your responses, you will be able to listen to the <u>TARGET SOUND</u> at the beginning of each trial.</p><p>There will be 36 total trials.</p><p><b>Note: This is meant to be a difficult task. We simply want you to try your best.</p>","0","","","","","","","","","","","","","","","","","","","","","","","","","","","","","","","","",""
"html-button-response","258","1306440","0.0-8.0-2.0-0.0","3","0","hmm0htc1h1jd1of","","1107.699999988079","","<p>Trial 1 of 36</p>","0","","","","","","","","","","","","","","TA","sounds/syllables/ta_SWS.wav","2100,3900,10200,12000","2","","","","","","","","","","","","","","","",""
"html-keyboard-response","259","1309030","0.0-8.0-2.0-1.0","3","0","hmm0htc1h1jd1of","","2588.5","","","","80","","","","","","","","","","","","","TA","","2100,3900,10200,12000","2","","","","","","","","","","","","","","","",""
"audio-keyboard-response","260","1309329","0.0-8.0-2.0-2.0-0.0","3","0","hmm0htc1h1jd1of","","null","","sounds/syllables/ta_SWS.wav","","null","","","","","","","","","","","","","","","","","","","","","","","","","","","","","","","",""
"html-keyboard-response","261","1311377","0.0-8.0-2.0-2.0-1.0","3","0","hmm0htc1h1jd1of","","2046.5","","<p>To replay the <u>TARGET SOUND</u>, press P.</p> When you are ready to begin, press SPACEBAR.","","80","","","","","","","","","","","","","","","","","","","","","","","","","","","","","","","",""
"audio-keyboard-response","262","1312189","0.0-8.0-2.0-2.1-0.1","3","0","hmm0htc1h1jd1of","","null","","sounds/syllables/ta_SWS.wav","","null","","","","","","","","","","","","","","","","","","","","","","","","","","","","","","","",""
"html-keyboard-response","263","1312813","0.0-8.0-2.0-2.1-1.1","3","0","hmm0htc1h1jd1of","","623.3999999761581","","<p>To replay the <u>TARGET SOUND</u>, press P.</p> When you are ready to begin, press SPACEBAR.","","80","","","","","","","","","","","","","","","","","","","","","","","","","","","","","","","",""
"audio-keyboard-response","264","1313610","0.0-8.0-2.0-2.2-0.2","3","0","hmm0htc1h1jd1of","","null","","sounds/syllables/ta_SWS.wav","","null","","","","","","","","","","","","","","","","","","","","","","","","","","","","","","","",""
"html-keyboard-response","265","1314419","0.0-8.0-2.0-2.2-1.2","3","0","hmm0htc1h1jd1of","","807.4000000357628","","<p>To replay the <u>TARGET SOUND</u>, press P.</p> When you are ready to begin, press SPACEBAR.","","32","","","","","","","","","","","","","","","","","","","","","","","","","","","","","","","",""
"audio-keyboard-response","266","1329379","0.0-8.0-2.0-3.0","3","0","hmm0htc1h1jd1of","","4008","","sounds/C/TD/TA_01_TD.mp3","","32","","","TD_SUMMARY","","","","","","","","","","TA","","2100,3900,10200,12000","2","2100","3900","10200","12000","null","null","950.3999999761581","null","4009.599999964237_8176_10967.199999988079_11150.399999976158_11584.5_11737.799999952316_13336.899999976158_13491.199999988079","3","","","","","",""
"html-button-response","267","1332344","0.0-8.0-2.0-0.1","3","0","hmm0htc1h1jd1of","","2961.900000035763","","<p>Trial 2 of 36</p>","0","","","","","","","","","","","","","","ME","sounds/syllables/me_SWS.wav","900,6300,8100,9900","1","","","","","","","","","","","","","","","",""
"html-keyboard-response","268","1333758","0.0-8.0-2.0-1.1","3","0","hmm0htc1h1jd1of","","1413.300000011921","","","","80","","","","","","","","","","","","","ME","","900,6300,8100,9900","1","","","","","","","","","","","","","","","",""
"audio-keyboard-response","269","1334068","0.0-8.0-2.0-2.3-0.3","3","0","hmm0htc1h1jd1of","","null","","sounds/syllables/me_SWS.wav","","null","","","","","","","","","","","","","","","","","","","","","","","","","","","","","","","",""
"html-keyboard-response","270","1335657","0.0-8.0-2.0-2.3-1.3","3","0","hmm0htc1h1jd1of","","1588.300000011921","","<p>To replay the <u>TARGET SOUND</u>, press P.</p> When you are ready to begin, press SPACEBAR.","","80","","","","","","","","","","","","","","","","","","","","","","","","","","","","","","","",""
"audio-keyboard-response","271","1336469","0.0-8.0-2.0-2.4-0.4","3","0","hmm0htc1h1jd1of","","null","","sounds/syllables/me_SWS.wav","","null","","","","","","","","","","","","","","","","","","","","","","","","","","","","","","","",""
"html-keyboard-response","272","1336716","0.0-8.0-2.0-2.4-1.4","3","0","hmm0htc1h1jd1of","","246.30000001192093","","<p>To replay the <u>TARGET SOUND</u>, press P.</p> When you are ready to begin, press SPACEBAR.","","80","","","","","","","","","","","","","","","","","","","","","","","","","","","","","","","",""
"audio-keyboard-response","273","1337519","0.0-8.0-2.0-2.5-0.5","3","0","hmm0htc1h1jd1of","","null","","sounds/syllables/me_SWS.wav","","null","","","","","","","","","","","","","","","","","","","","","","","","","","","","","","","",""
"html-keyboard-response","274","1337727","0.0-8.0-2.0-2.5-1.5","3","0","hmm0htc1h1jd1of","","207.69999998807907","","<p>To replay the <u>TARGET SOUND</u>, press P.</p> When you are ready to begin, press SPACEBAR.","","80","","","","","","","","","","","","","","","","","","","","","","","","","","","","","","","",""
"audio-keyboard-response","275","1338549","0.0-8.0-2.0-2.6-0.6","3","0","hmm0htc1h1jd1of","","null","","sounds/syllables/me_SWS.wav","","null","","","","","","","","","","","","","","","","","","","","","","","","","","","","","","","",""
"html-keyboard-response","276","1339202","0.0-8.0-2.0-2.6-1.6","3","0","hmm0htc1h1jd1of","","652.3999999761581","","<p>To replay the <u>TARGET SOUND</u>, press P.</p> When you are ready to begin, press SPACEBAR.","","80","","","","","","","","","","","","","","","","","","","","","","","","","","","","","","","",""
"audio-keyboard-response","277","1340008","0.0-8.0-2.0-2.7-0.7","3","0","hmm0htc1h1jd1of","","null","","sounds/syllables/me_SWS.wav","","null","","","","","","","","","","","","","","","","","","","","","","","","","","","","","","","",""
"html-keyboard-response","278","1340730","0.0-8.0-2.0-2.7-1.7","3","0","hmm0htc1h1jd1of","","721","","<p>To replay the <u>TARGET SOUND</u>, press P.</p> When you are ready to begin, press SPACEBAR.","","80","","","","","","","","","","","","","","","","","","","","","","","","","","","","","","","",""
"audio-keyboard-response","279","1341548","0.0-8.0-2.0-2.8-0.8","3","0","hmm0htc1h1jd1of","","null","","sounds/syllables/me_SWS.wav","","null","","","","","","","","","","","","","","","","","","","","","","","","","","","","","","","",""
"html-keyboard-response","280","1342511","0.0-8.0-2.0-2.8-1.8","3","0","hmm0htc1h1jd1of","","961.1999999880791","","<p>To replay the <u>TARGET SOUND</u>, press P.</p> When you are ready to begin, press SPACEBAR.","","32","","","","","","","","","","","","","","","","","","","","","","","","","","","","","","","",""
"audio-keyboard-response","281","1357469","0.0-8.0-2.0-3.1","3","0","hmm0htc1h1jd1of","","1571","","sounds/C/TD/ME_07_TD.mp3","","32","","","TD_SUMMARY","","","","","","","","","","ME","","900,6300,8100,9900","1","900","6300","8100","9900","669","841.8000000119209","null","null","________1569_6939_7141.800000011921_11209.600000023842","6","","","","","",""
"html-button-response","282","1372951","0.0-8.0-2.0-0.2","3","0","hmm0htc1h1jd1of","","15478.900000035763","","<p>Trial 3 of 36</p>","0","","","","","","","","","","","","","","RU","sounds/syllables/ru_SWS.wav","1200,5700,7500,12000","2","","","","","","","","","","","","","","","",""
"html-keyboard-response","283","1374329","0.0-8.0-2.0-1.2","3","0","hmm0htc1h1jd1of","","1376.199999988079","","","","80","","","","","","","","","","","","","RU","","1200,5700,7500,12000","2","","","","","","","","","","","","","","","",""
"audio-keyboard-response","284","1374638","0.0-8.0-2.0-2.9-0.9","3","0","hmm0htc1h1jd1of","","null","","sounds/syllables/ru_SWS.wav","","null","","","","","","","","","","","","","","","","","","","","","","","","","","","","","","","",""
"html-keyboard-response","285","1375074","0.0-8.0-2.0-2.9-1.9","3","0","hmm0htc1h1jd1of","","435.39999997615814","","<p>To replay the <u>TARGET SOUND</u>, press P.</p> When you are ready to begin, press SPACEBAR.","","80","","","","","","","","","","","","","","","","","","","","","","","","","","","","","","","",""
"audio-keyboard-response","286","1375879","0.0-8.0-2.0-2.10-0.10","3","0","hmm0htc1h1jd1of","","null","","sounds/syllables/ru_SWS.wav","","null","","","","","","","","","","","","","","","","","","","","","","","","","","","","","","","",""
"html-keyboard-response","287","1376222","0.0-8.0-2.0-2.10-1.10","3","0","hmm0htc1h1jd1of","","342.60000002384186","","<p>To replay the <u>TARGET SOUND</u>, press P.</p> When you are ready to begin, press SPACEBAR.","","80","","","","","","","","","","","","","","","","","","","","","","","","","","","","","","","",""
"audio-keyboard-response","288","1377039","0.0-8.0-2.0-2.11-0.11","3","0","hmm0htc1h1jd1of","","null","","sounds/syllables/ru_SWS.wav","","null","","","","","","","","","","","","","","","","","","","","","","","","","","","","","","","",""
"html-keyboard-response","289","1377322","0.0-8.0-2.0-2.11-1.11","3","0","hmm0htc1h1jd1of","","282.2999999523163","","<p>To replay the <u>TARGET SOUND</u>, press P.</p> When you are ready to begin, press SPACEBAR.","","80","","","","","","","","","","","","","","","","","","","","","","","","","","","","","","","",""
"audio-keyboard-response","290","1378128","0.0-8.0-2.0-2.12-0.12","3","0","hmm0htc1h1jd1of","","null","","sounds/syllables/ru_SWS.wav","","null","","","","","","","","","","","","","","","","","","","","","","","","","","","","","","","",""
"html-keyboard-response","291","1378330","0.0-8.0-2.0-2.12-1.12","3","0","hmm0htc1h1jd1of","","200.89999997615814","","<p>To replay the <u>TARGET SOUND</u>, press P.</p> When you are ready to begin, press SPACEBAR.","","80","","","","","","","","","","","","","","","","","","","","","","","","","","","","","","","",""
"audio-keyboard-response","292","1379148","0.0-8.0-2.0-2.13-0.13","3","0","hmm0htc1h1jd1of","","null","","sounds/syllables/ru_SWS.wav","","null","","","","","","","","","","","","","","","","","","","","","","","","","","","","","","","",""
"html-keyboard-response","293","1379417","0.0-8.0-2.0-2.13-1.13","3","0","hmm0htc1h1jd1of","","268","","<p>To replay the <u>TARGET SOUND</u>, press P.</p> When you are ready to begin, press SPACEBAR.","","80","","","","","","","","","","","","","","","","","","","","","","","","","","","","","","","",""
"audio-keyboard-response","294","1380239","0.0-8.0-2.0-2.14-0.14","3","0","hmm0htc1h1jd1of","","null","","sounds/syllables/ru_SWS.wav","","null","","","","","","","","","","","","","","","","","","","","","","","","","","","","","","","",""
"html-keyboard-response","295","1380506","0.0-8.0-2.0-2.14-1.14","3","0","hmm0htc1h1jd1of","","266.39999997615814","","<p>To replay the <u>TARGET SOUND</u>, press P.</p> When you are ready to begin, press SPACEBAR.","","32","","","","","","","","","","","","","","","","","","","","","","","","","","","","","","","",""
"audio-keyboard-response","296","1395460","0.0-8.0-2.0-3.2","3","0","hmm0htc1h1jd1of","","2139","","sounds/C/TD/RU_01_TD.mp3","","32","","","TD_SUMMARY","","","","","","","","","","RU","","1200,5700,7500,12000","2","1200","5700","7500","12000","938.6000000238419","null","653.8000000119209","902.8999999761581","____________2138.600000023842_5377.300000011921_8153.800000011921_9827.899999976158_12051.600000023842_12902.899999976158","6","","","","","",""
"html-button-response","297","1397175","0.0-8.0-2.0-0.3","3","0","hmm0htc1h1jd1of","","1712.300000011921","","<p>Trial 4 of 36</p>","0","","","","","","","","","","","","","","PU","sounds/syllables/pu_SWS.wav","3300,9600,11400,13200","3","","","","","","","","","","","","","","","",""
"html-keyboard-response","298","1397870","0.0-8.0-2.0-1.3","3","0","hmm0htc1h1jd1of","","693.5","","","","80","","","","","","","","","","","","","PU","","3300,9600,11400,13200","3","","","","","","","","","","","","","","","",""
"audio-keyboard-response","299","1398169","0.0-8.0-2.0-2.15-0.15","3","0","hmm0htc1h1jd1of","","null","","sounds/syllables/pu_SWS.wav","","null","","","","","","","","","","","","","","","","","","","","","","","","","","","","","","","",""
"html-keyboard-response","300","1398576","0.0-8.0-2.0-2.15-1.15","3","0","hmm0htc1h1jd1of","","406.30000001192093","","<p>To replay the <u>TARGET SOUND</u>, press P.</p> When you are ready to begin, press SPACEBAR.","","80","","","","","","","","","","","","","","","","","","","","","","","","","","","","","","","",""
"audio-keyboard-response","301","1399389","0.0-8.0-2.0-2.16-0.16","3","0","hmm0htc1h1jd1of","","null","","sounds/syllables/pu_SWS.wav","","null","","","","","","","","","","","","","","","","","","","","","","","","","","","","","","","",""
"html-keyboard-response","302","1399817","0.0-8.0-2.0-2.16-1.16","3","0","hmm0htc1h1jd1of","","427","","<p>To replay the <u>TARGET SOUND</u>, press P.</p> When you are ready to begin, press SPACEBAR.","","32","","","","","","","","","","","","","","","","","","","","","","","","","","","","","","","",""
"audio-keyboard-response","303","1414769","0.0-8.0-2.0-3.3","3","0","hmm0htc1h1jd1of","","1680","","sounds/C/TD/PU_09_TD.mp3","","32","","","TD_SUMMARY","","","","","","","","","","PU","","3300,9600,11400,13200","3","3300","9600","11400","13200","769.6000000238419","700.9000000357628","null","null","__________________1672_4069.600000023842_6709.900000035763_7984_10300.900000035763_13190.800000011921","2","","","","","",""
"html-button-response","304","1415789","0.0-8.0-2.0-0.4","3","0","hmm0htc1h1jd1of","","1017.1999999880791","","<p>Trial 5 of 36</p>","0","","","","","","","","","","","","","","RE","sounds/syllables/re_SWS.wav","3000,4800,10200,12900","2","","","","","","","","","","","","","","","",""
"html-keyboard-response","305","1416737","0.0-8.0-2.0-1.4","3","0","hmm0htc1h1jd1of","","946.6000000238419","","","","80","","","","","","","","","","","","","RE","","3000,4800,10200,12900","2","","","","","","","","","","","","","","","",""
"audio-keyboard-response","306","1417040","0.0-8.0-2.0-2.17-0.17","3","0","hmm0htc1h1jd1of","","null","","sounds/syllables/re_SWS.wav","","null","","","","","","","","","","","","","","","","","","","","","","","","","","","","","","","",""
"html-keyboard-response","307","1417433","0.0-8.0-2.0-2.17-1.17","3","0","hmm0htc1h1jd1of","","392.5999999642372","","<p>To replay the <u>TARGET SOUND</u>, press P.</p> When you are ready to begin, press SPACEBAR.","","80","","","","","","","","","","","","","","","","","","","","","","","","","","","","","","","",""
"audio-keyboard-response","308","1418239","0.0-8.0-2.0-2.18-0.18","3","0","hmm0htc1h1jd1of","","null","","sounds/syllables/re_SWS.wav","","null","","","","","","","","","","","","","","","","","","","","","","","","","","","","","","","",""
"html-keyboard-response","309","1418998","0.0-8.0-2.0-2.18-1.18","3","0","hmm0htc1h1jd1of","","758.6000000238419","","<p>To replay the <u>TARGET SOUND</u>, press P.</p> When you are ready to begin, press SPACEBAR.","","32","","","","","","","","","","","","","","","","","","","","","","","","","","","","","","","",""
"audio-keyboard-response","310","1433960","0.0-8.0-2.0-3.4","3","0","hmm0htc1h1jd1of","","3589","","sounds/C/TD/RE_09_TD.mp3","","32","","","TD_SUMMARY","","","","","","","","","","RE","","3000,4800,10200,12900","2","3000","4800","10200","12900","587.6000000238419","518.7000000476837","875.8000000119209","null","________________________3587.600000023842_5318.700000047684_9171.700000047684_11075.800000011921","2","","","","","",""
"html-button-response","311","1435097","0.0-8.0-2.0-0.5","3","0","hmm0htc1h1jd1of","","1133.5","","<p>Trial 6 of 36</p>","0","","","","","","","","","","","","","","SU","sounds/syllables/su_SWS.wav","5400,7200,9000,10800","1","","","","","","","","","","","","","","","",""
"html-keyboard-response","312","1436397","0.0-8.0-2.0-1.5","3","0","hmm0htc1h1jd1of","","1298.800000011921","","","","80","","","","","","","","","","","","","SU","","5400,7200,9000,10800","1","","","","","","","","","","","","","","","",""
"audio-keyboard-response","313","1436691","0.0-8.0-2.0-2.19-0.19","3","0","hmm0htc1h1jd1of","","null","","sounds/syllables/su_SWS.wav","","null","","","","","","","","","","","","","","","","","","","","","","","","","","","","","","","",""
"html-keyboard-response","314","1437099","0.0-8.0-2.0-2.19-1.19","3","0","hmm0htc1h1jd1of","","407.5999999642372","","<p>To replay the <u>TARGET SOUND</u>, press P.</p> When you are ready to begin, press SPACEBAR.","","80","","","","","","","","","","","","","","","","","","","","","","","","","","","","","","","",""
"audio-keyboard-response","315","1437919","0.0-8.0-2.0-2.20-0.20","3","0","hmm0htc1h1jd1of","","null","","sounds/syllables/su_SWS.wav","","null","","","","","","","","","","","","","","","","","","","","","","","","","","","","","","","",""
"html-keyboard-response","316","1438445","0.0-8.0-2.0-2.20-1.20","3","0","hmm0htc1h1jd1of","","524.5999999642372","","<p>To replay the <u>TARGET SOUND</u>, press P.</p> When you are ready to begin, press SPACEBAR.","","80","","","","","","","","","","","","","","","","","","","","","","","","","","","","","","","",""
"audio-keyboard-response","317","1439269","0.0-8.0-2.0-2.21-0.21","3","0","hmm0htc1h1jd1of","","null","","sounds/syllables/su_SWS.wav","","null","","","","","","","","","","","","","","","","","","","","","","","","","","","","","","","",""
"html-keyboard-response","318","1439493","0.0-8.0-2.0-2.21-1.21","3","0","hmm0htc1h1jd1of","","222.19999998807907","","<p>To replay the <u>TARGET SOUND</u>, press P.</p> When you are ready to begin, press SPACEBAR.","","32","","","","","","","","","","","","","","","","","","","","","","","","","","","","","","","",""
"audio-keyboard-response","319","1454450","0.0-8.0-2.0-3.5","3","0","hmm0htc1h1jd1of","","6149","","sounds/C/TD/SU_03_TD.mp3","","32","","","TD_SUMMARY","","","","","","","","","","SU","","5400,7200,9000,10800","1","5400","7200","9000","10800","750.5","999.5999999642372","null","null","____________________________6150.5_8199.599999964237","3","","","","","",""
"html-button-response","320","1456569","0.0-8.0-2.0-0.6","3","0","hmm0htc1h1jd1of","","2116.699999988079","","<p>Trial 7 of 36</p>","0","","","","","","","","","","","","","","TI","sounds/syllables/ti_SWS.wav","2400,4200,6900,10500","3","","","","","","","","","","","","","","","",""
"html-keyboard-response","321","1457562","0.0-8.0-2.0-1.6","3","0","hmm0htc1h1jd1of","","991.8000000119209","","","","80","","","","","","","","","","","","","TI","","2400,4200,6900,10500","3","","","","","","","","","","","","","","","",""
"audio-keyboard-response","322","1457869","0.0-8.0-2.0-2.22-0.22","3","0","hmm0htc1h1jd1of","","null","","sounds/syllables/ti_SWS.wav","","null","","","","","","","","","","","","","","","","","","","","","","","","","","","","","","","",""
"html-keyboard-response","323","1458277","0.0-8.0-2.0-2.22-1.22","3","0","hmm0htc1h1jd1of","","407.19999998807907","","<p>To replay the <u>TARGET SOUND</u>, press P.</p> When you are ready to begin, press SPACEBAR.","","80","","","","","","","","","","","","","","","","","","","","","","","","","","","","","","","",""
"audio-keyboard-response","324","1459079","0.0-8.0-2.0-2.23-0.23","3","0","hmm0htc1h1jd1of","","null","","sounds/syllables/ti_SWS.wav","","null","","","","","","","","","","","","","","","","","","","","","","","","","","","","","","","",""
"html-keyboard-response","325","1459549","0.0-8.0-2.0-2.23-1.23","3","0","hmm0htc1h1jd1of","","469.69999998807907","","<p>To replay the <u>TARGET SOUND</u>, press P.</p> When you are ready to begin, press SPACEBAR.","","80","","","","","","","","","","","","","","","","","","","","","","","","","","","","","","","",""
"audio-keyboard-response","326","1460358","0.0-8.0-2.0-2.24-0.24","3","0","hmm0htc1h1jd1of","","null","","sounds/syllables/ti_SWS.wav","","null","","","","","","","","","","","","","","","","","","","","","","","","","","","","","","","",""
"html-keyboard-response","327","1460620","0.0-8.0-2.0-2.24-1.24","3","0","hmm0htc1h1jd1of","","260.69999998807907","","<p>To replay the <u>TARGET SOUND</u>, press P.</p> When you are ready to begin, press SPACEBAR.","","32","","","","","","","","","","","","","","","","","","","","","","","","","","","","","","","",""
"audio-keyboard-response","328","1475579","0.0-8.0-2.0-3.6","3","0","hmm0htc1h1jd1of","","789","","sounds/C/TD/TI_04_TD.mp3","","32","","","TD_SUMMARY","","","","","","","","","","TI","","2400,4200,6900,10500","3","2400","4200","6900","10500","null","1083.9000000357628","null","null","______________________________794.4000000357628_3646.300000011921_4215.700000047684_5283.900000035763","3","","","","","",""
"html-button-response","329","1476112","0.0-8.0-2.0-0.7","3","0","hmm0htc1h1jd1of","","530.8000000119209","","<p>Trial 8 of 36</p>","0","","","","","","","","","","","","","","KO","sounds/syllables/ko_SWS.wav","900,2700,8100,10800","1","","","","","","","","","","","","","","","",""
"html-keyboard-response","330","1477083","0.0-8.0-2.0-1.7","3","0","hmm0htc1h1jd1of","","969.5","","","","80","","","","","","","","","","","","","KO","","900,2700,8100,10800","1","","","","","","","","","","","","","","","",""
"audio-keyboard-response","331","1477388","0.0-8.0-2.0-2.25-0.25","3","0","hmm0htc1h1jd1of","","null","","sounds/syllables/ko_SWS.wav","","null","","","","","","","","","","","","","","","","","","","","","","","","","","","","","","","",""
"html-keyboard-response","332","1477739","0.0-8.0-2.0-2.25-1.25","3","0","hmm0htc1h1jd1of","","349.80000001192093","","<p>To replay the <u>TARGET SOUND</u>, press P.</p> When you are ready to begin, press SPACEBAR.","","80","","","","","","","","","","","","","","","","","","","","","","","","","","","","","","","",""
"audio-keyboard-response","333","1478549","0.0-8.0-2.0-2.26-0.26","3","0","hmm0htc1h1jd1of","","null","","sounds/syllables/ko_SWS.wav","","null","","","","","","","","","","","","","","","","","","","","","","","","","","","","","","","",""
"html-keyboard-response","334","1478912","0.0-8.0-2.0-2.26-1.26","3","0","hmm0htc1h1jd1of","","362.89999997615814","","<p>To replay the <u>TARGET SOUND</u>, press P.</p> When you are ready to begin, press SPACEBAR.","","80","","","","","","","","","","","","","","","","","","","","","","","","","","","","","","","",""
"audio-keyboard-response","335","1479718","0.0-8.0-2.0-2.27-0.27","3","0","hmm0htc1h1jd1of","","null","","sounds/syllables/ko_SWS.wav","","null","","","","","","","","","","","","","","","","","","","","","","","","","","","","","","","",""
"html-keyboard-response","336","1480988","0.0-8.0-2.0-2.27-1.27","3","0","hmm0htc1h1jd1of","","1269","","<p>To replay the <u>TARGET SOUND</u>, press P.</p> When you are ready to begin, press SPACEBAR.","","32","","","","","","","","","","","","","","","","","","","","","","","","","","","","","","","",""
"audio-keyboard-response","337","1495939","0.0-8.0-2.0-3.7","3","0","hmm0htc1h1jd1of","","2149","","sounds/C/TD/KO_04_TD.mp3","","32","","","TD_SUMMARY","","","","","","","","","","KO","","900,2700,8100,10800","1","900","2700","8100","10800","null","1031.9000000357628","null","null","__________________________________2144.7000000476837_3731.900000035763","3","","","","","",""
"html-button-response","338","1496967","0.0-8.0-2.0-0.8","3","0","hmm0htc1h1jd1of","","1025.3999999761581","","<p>Trial 9 of 36</p>","0","","","","","","","","","","","","","","KO","sounds/syllables/ko_SWS.wav","900,5400,9000,12600","1","","","","","","","","","","","","","","","",""
"html-keyboard-response","339","1498080","0.0-8.0-2.0-1.8","3","0","hmm0htc1h1jd1of","","1111.6000000238419","","","","80","","","","","","","","","","","","","KO","","900,5400,9000,12600","1","","","","","","","","","","","","","","","",""
"audio-keyboard-response","340","1498389","0.0-8.0-2.0-2.28-0.28","3","0","hmm0htc1h1jd1of","","null","","sounds/syllables/ko_SWS.wav","","null","","","","","","","","","","","","","","","","","","","","","","","","","","","","","","","",""
