"trial_type","trial_index","time_elapsed","internal_node_id","counterbalance","lang_instruct","ParticipantID","view_history","rt","url","stimulus","button_pressed","key_press","correctRESP","correct","designation","location","correctanswer","responses","sentence","keywords","typed_resp","keyword1_acc","keyword2_acc","keyword3_acc","keyword4_acc","keyword5_acc","total_acc","prop_acc","timeouts","pause_rt01","pause_rt02","train_file","numKeyPress","sound","fam_type","SYLLABLE","EXEMPLAR","TD_LOCS","TD_TYPE","TDLOC_01","TDLOC_02","TDLOC_03","TDLOC_04","TD_RT_01","TD_RT_02","TD_RT_03","TD_RT_04","TD_SUBJ_RTs","number_of_plays","slider_start","response","question_order","syllable","syllable_type"
"pavlovia","0","7","0.0-0.0","2","1","r2yvrxfbmq9kn8s","","","","","","","","","","","","","","","","","","","","","","","","","","","","","","","","","","","","","","","","","","","","","","","",""
"instructions","1","88336","0.0-1.0","2","1","r2yvrxfbmq9kn8s","[{""page_index"":0,""viewing_time"":27446},{""page_index"":1,""viewing_time"":60879}]","88329","","","","","","","","","","","","","","","","","","","","","","","","","","","","","","","","","","","","","","","","","","","","","",""
"external-html","2","93520","0.0-2.0","2","1","r2yvrxfbmq9kn8s","","5053","consent/consent.html","","","","","","","","","","","","","","","","","","","","","","","","","","","","","","","","","","","","","","","","","","","","",""
"html-button-response","3","96207","0.0-3.0-0.0-0.0","2","1","r2yvrxfbmq9kn8s","","2686","","<p>Welcome to the study. You will first complete a short volume calibration and headphone check.</p><p>Please make sure you are in a quiet listening environment, that you are wearing headphones, and that your computer's volume is turned on.<p></p>","0","","","","","","","","","","","","","","","","","","","","","","","","","","","","","","","","","","","","","","","","","","",""
"html-button-response","4","102421","0.0-3.0-0.0-1.0","2","1","r2yvrxfbmq9kn8s","","5949","","<p>The volume calibration will be first.</p><p>You will hear a thirty-second noise. Please adjust your computer's volume so that this noise is being presented at a comfortable level.<p></p>","0","","","","","","","","","","","","","","","","","","","","","","","","","","","","","","","","","","","","","","","","","","",""
"audio-button-response","5","109417","0.0-3.0-0.0-2.0","2","1","r2yvrxfbmq9kn8s","","6728","","audCalib/volumetest.mp3","0","","","","","","","","","","","","","","","","","","","","","","","","","","","","","","","","","","","","","","","","","","",""
"html-button-response","6","114038","0.0-3.0-1.0-0.0","2","1","r2yvrxfbmq9kn8s","","4621","","<p>You will now complete a short headphone check.</p><p>On each trial, you will hear three tones. One of these tones will be quieter than the others. Your task is to identify whether the quiet tone occured first, second, or third.</p><p>There are six trials in total.<p></p>","0","","","","","","","","","","","","","","","","","","","","","","","","","","","","","","","","","","","","","","","","","","",""
"html-keyboard-response","7","114804","0.0-3.0-1.0-1.0-0.0","2","1","r2yvrxfbmq9kn8s","","null","","<div style=""font-size:60px;"">+</div>","","null","","","","","","","","","","","","","","","","","","","","","","","","","","","","","","","","","","","","","","","","","",""
"audio-button-response","8","119630","0.0-3.0-1.0-1.0-1.0","2","1","r2yvrxfbmq9kn8s","","4829","","audCalib/t2_1.mp3","1","","1","1","headphone-test","","","","","","","","","","","","","","","","","","","","","","","","","","","","","","","","","","","","","","",""
"html-keyboard-response","9","120400","0.0-3.0-1.0-1.0-0.1","2","1","r2yvrxfbmq9kn8s","","null","","<div style=""font-size:60px;"">+</div>","","null","","","","","","","","","","","","","","","","","","","","","","","","","","","","","","","","","","","","","","","","","",""
"audio-button-response","10","124866","0.0-3.0-1.0-1.0-1.1","2","1","r2yvrxfbmq9kn8s","","4459","","audCalib/t1_1.mp3","0","","0","1","headphone-test","","","","","","","","","","","","","","","","","","","","","","","","","","","","","","","","","","","","","","",""
"html-keyboard-response","11","125635","0.0-3.0-1.0-1.0-0.2","2","1","r2yvrxfbmq9kn8s","","null","","<div style=""font-size:60px;"">+</div>","","null","","","","","","","","","","","","","","","","","","","","","","","","","","","","","","","","","","","","","","","","","",""
"audio-button-response","12","130056","0.0-3.0-1.0-1.0-1.2","2","1","r2yvrxfbmq9kn8s","","4419","","audCalib/t2_2.mp3","1","","1","1","headphone-test","","","","","","","","","","","","","","","","","","","","","","","","","","","","","","","","","","","","","","",""
"html-keyboard-response","13","130823","0.0-3.0-1.0-1.0-0.3","2","1","r2yvrxfbmq9kn8s","","null","","<div style=""font-size:60px;"">+</div>","","null","","","","","","","","","","","","","","","","","","","","","","","","","","","","","","","","","","","","","","","","","",""
"audio-button-response","14","135197","0.0-3.0-1.0-1.0-1.3","2","1","r2yvrxfbmq9kn8s","","4381","","audCalib/t3_1.mp3","2","","2","1","headphone-test","","","","","","","","","","","","","","","","","","","","","","","","","","","","","","","","","","","","","","",""
"html-keyboard-response","15","135960","0.0-3.0-1.0-1.0-0.4","2","1","r2yvrxfbmq9kn8s","","null","","<div style=""font-size:60px;"">+</div>","","null","","","","","","","","","","","","","","","","","","","","","","","","","","","","","","","","","","","","","","","","","",""
"audio-button-response","16","140188","0.0-3.0-1.0-1.0-1.4","2","1","r2yvrxfbmq9kn8s","","4229","","audCalib/t3_2.mp3","2","","2","1","headphone-test","","","","","","","","","","","","","","","","","","","","","","","","","","","","","","","","","","","","","","",""
"html-keyboard-response","17","140953","0.0-3.0-1.0-1.0-0.5","2","1","r2yvrxfbmq9kn8s","","null","","<div style=""font-size:60px;"">+</div>","","null","","","","","","","","","","","","","","","","","","","","","","","","","","","","","","","","","","","","","","","","","",""
"audio-button-response","18","145345","0.0-3.0-1.0-1.0-1.5","2","1","r2yvrxfbmq9kn8s","","4389","","audCalib/t1_2.mp3","0","","0","1","headphone-test","","","","","","","","","","","","","","","","","","","","","","","","","","","","","","","","","","","","","","",""
"html-button-response","19","146945","0.0-3.0-2.0","2","1","r2yvrxfbmq9kn8s","","1343","","<p>The volume calibration and headphone check are now complete.</p>","0","","","","","","","","","","","","","","","","","","","","","","","","","","","","","","","","","","","","","","","","","","",""
"instructions","20","164417","0.0-4.0-0.0","2","1","r2yvrxfbmq9kn8s","[{""page_index"":0,""viewing_time"":1358},{""page_index"":1,""viewing_time"":14185},{""page_index"":2,""viewing_time"":1929}]","17472","","","","","","","","","","","","","","","","","","","","","","","","","","","","","","","","","","","","","","","","","","","","","",""
"audio-keyboard-response","21","164736","0.0-4.0-1.0-0.0","2","1","r2yvrxfbmq9kn8s","","null","","sounds/induction/right/ni_SWS.wav","","null","","","","","","","","","","","","","","","","","","","","","","","","","","","","","","","","","","","","","","","","","",""
"html-button-response","22","167066","0.0-4.0-1.0-1.0","2","1","r2yvrxfbmq9kn8s","","2329","","What sound did you hear?","0","","","1","INDUCTION-JUDGMENT","right","0","","","","","","","","","","","","","","","","","","","","","","","","","","","","","","","","","","","","",""
"html-keyboard-response","23","168071","0.0-4.0-1.0-2.0","2","1","r2yvrxfbmq9kn8s","","null","","<p style=""color:green;""><b>Correct!</b></p>","","null","","","","","","","","","","","","","","","","","","","","","","","","","","","","","","","","","","","","","","","","","",""
"audio-keyboard-response","24","168897","0.0-4.0-1.0-0.1","2","1","r2yvrxfbmq9kn8s","","null","","sounds/induction/right/su_SWS.wav","","null","","","","","","","","","","","","","","","","","","","","","","","","","","","","","","","","","","","","","","","","","",""
"html-button-response","25","171145","0.0-4.0-1.0-1.1","2","1","r2yvrxfbmq9kn8s","","2248","","What sound did you hear?","1","","","1","INDUCTION-JUDGMENT","right","1","","","","","","","","","","","","","","","","","","","","","","","","","","","","","","","","","","","","",""
"html-keyboard-response","26","172156","0.0-4.0-1.0-2.1","2","1","r2yvrxfbmq9kn8s","","null","","<p style=""color:green;""><b>Correct!</b></p>","","null","","","","","","","","","","","","","","","","","","","","","","","","","","","","","","","","","","","","","","","","","",""
"audio-keyboard-response","27","172987","0.0-4.0-1.0-0.2","2","1","r2yvrxfbmq9kn8s","","null","","sounds/induction/right/re_SWS.wav","","null","","","","","","","","","","","","","","","","","","","","","","","","","","","","","","","","","","","","","","","","","",""
"html-button-response","28","174483","0.0-4.0-1.0-1.2","2","1","r2yvrxfbmq9kn8s","","1496","","What sound did you hear?","1","","","1","INDUCTION-JUDGMENT","right","1","","","","","","","","","","","","","","","","","","","","","","","","","","","","","","","","","","","","",""
"html-keyboard-response","29","175490","0.0-4.0-1.0-2.2","2","1","r2yvrxfbmq9kn8s","","null","","<p style=""color:green;""><b>Correct!</b></p>","","null","","","","","","","","","","","","","","","","","","","","","","","","","","","","","","","","","","","","","","","","","",""
"audio-keyboard-response","30","176307","0.0-4.0-1.0-0.3","2","1","r2yvrxfbmq9kn8s","","null","","sounds/induction/left/fe_SWS.wav","","null","","","","","","","","","","","","","","","","","","","","","","","","","","","","","","","","","","","","","","","","","",""
"html-button-response","31","177563","0.0-4.0-1.0-1.3","2","1","r2yvrxfbmq9kn8s","","1255","","What sound did you hear?","0","","","0","INDUCTION-JUDGMENT","left","1","","","","","","","","","","","","","","","","","","","","","","","","","","","","","","","","","","","","",""
"html-keyboard-response","32","178578","0.0-4.0-1.0-2.3","2","1","r2yvrxfbmq9kn8s","","null","","<p style=""color:red;""><b>Incorrect!</b></p>","","null","","","","","","","","","","","","","","","","","","","","","","","","","","","","","","","","","","","","","","","","","",""
"audio-keyboard-response","33","179396","0.0-4.0-1.0-0.4","2","1","r2yvrxfbmq9kn8s","","null","","sounds/induction/left/re_SWS.wav","","null","","","","","","","","","","","","","","","","","","","","","","","","","","","","","","","","","","","","","","","","","",""
"html-button-response","34","180720","0.0-4.0-1.0-1.4","2","1","r2yvrxfbmq9kn8s","","1323","","What sound did you hear?","0","","","1","INDUCTION-JUDGMENT","left","0","","","","","","","","","","","","","","","","","","","","","","","","","","","","","","","","","","","","",""
"html-keyboard-response","35","181727","0.0-4.0-1.0-2.4","2","1","r2yvrxfbmq9kn8s","","null","","<p style=""color:green;""><b>Correct!</b></p>","","null","","","","","","","","","","","","","","","","","","","","","","","","","","","","","","","","","","","","","","","","","",""
"audio-keyboard-response","36","182547","0.0-4.0-1.0-0.5","2","1","r2yvrxfbmq9kn8s","","null","","sounds/induction/left/su_SWS.wav","","null","","","","","","","","","","","","","","","","","","","","","","","","","","","","","","","","","","","","","","","","","",""
"html-button-response","37","183832","0.0-4.0-1.0-1.5","2","1","r2yvrxfbmq9kn8s","","1285","","What sound did you hear?","0","","","1","INDUCTION-JUDGMENT","left","0","","","","","","","","","","","","","","","","","","","","","","","","","","","","","","","","","","","","",""
"html-keyboard-response","38","184846","0.0-4.0-1.0-2.5","2","1","r2yvrxfbmq9kn8s","","null","","<p style=""color:green;""><b>Correct!</b></p>","","null","","","","","","","","","","","","","","","","","","","","","","","","","","","","","","","","","","","","","","","","","",""
"audio-keyboard-response","39","185666","0.0-4.0-1.0-0.6","2","1","r2yvrxfbmq9kn8s","","null","","sounds/induction/right/pu_SWS.wav","","null","","","","","","","","","","","","","","","","","","","","","","","","","","","","","","","","","","","","","","","","","",""
"html-button-response","40","187237","0.0-4.0-1.0-1.6","2","1","r2yvrxfbmq9kn8s","","1570","","What sound did you hear?","1","","","1","INDUCTION-JUDGMENT","right","1","","","","","","","","","","","","","","","","","","","","","","","","","","","","","","","","","","","","",""
"html-keyboard-response","41","188247","0.0-4.0-1.0-2.6","2","1","r2yvrxfbmq9kn8s","","null","","<p style=""color:green;""><b>Correct!</b></p>","","null","","","","","","","","","","","","","","","","","","","","","","","","","","","","","","","","","","","","","","","","","",""
"audio-keyboard-response","42","189067","0.0-4.0-1.0-0.7","2","1","r2yvrxfbmq9kn8s","","null","","sounds/induction/left/fu_SWS.wav","","null","","","","","","","","","","","","","","","","","","","","","","","","","","","","","","","","","","","","","","","","","",""
"html-button-response","43","190459","0.0-4.0-1.0-1.7","2","1","r2yvrxfbmq9kn8s","","1392","","What sound did you hear?","1","","","1","INDUCTION-JUDGMENT","left","1","","","","","","","","","","","","","","","","","","","","","","","","","","","","","","","","","","","","",""
"html-keyboard-response","44","191462","0.0-4.0-1.0-2.7","2","1","r2yvrxfbmq9kn8s","","null","","<p style=""color:green;""><b>Correct!</b></p>","","null","","","","","","","","","","","","","","","","","","","","","","","","","","","","","","","","","","","","","","","","","",""
"audio-keyboard-response","45","192277","0.0-4.0-1.0-0.8","2","1","r2yvrxfbmq9kn8s","","null","","sounds/induction/right/ti_SWS.wav","","null","","","","","","","","","","","","","","","","","","","","","","","","","","","","","","","","","","","","","","","","","",""
"html-button-response","46","193652","0.0-4.0-1.0-1.8","2","1","r2yvrxfbmq9kn8s","","1374","","What sound did you hear?","1","","","1","INDUCTION-JUDGMENT","right","1","","","","","","","","","","","","","","","","","","","","","","","","","","","","","","","","","","","","",""
"html-keyboard-response","47","194665","0.0-4.0-1.0-2.8","2","1","r2yvrxfbmq9kn8s","","null","","<p style=""color:green;""><b>Correct!</b></p>","","null","","","","","","","","","","","","","","","","","","","","","","","","","","","","","","","","","","","","","","","","","",""
"audio-keyboard-response","48","195477","0.0-4.0-1.0-0.9","2","1","r2yvrxfbmq9kn8s","","null","","sounds/induction/left/fe_SWS.wav","","null","","","","","","","","","","","","","","","","","","","","","","","","","","","","","","","","","","","","","","","","","",""
"html-button-response","49","197510","0.0-4.0-1.0-1.9","2","1","r2yvrxfbmq9kn8s","","2032","","What sound did you hear?","0","","","0","INDUCTION-JUDGMENT","left","1","","","","","","","","","","","","","","","","","","","","","","","","","","","","","","","","","","","","",""
"html-keyboard-response","50","198520","0.0-4.0-1.0-2.9","2","1","r2yvrxfbmq9kn8s","","null","","<p style=""color:red;""><b>Incorrect!</b></p>","","null","","","","","","","","","","","","","","","","","","","","","","","","","","","","","","","","","","","","","","","","","",""
"audio-keyboard-response","51","199336","0.0-4.0-1.0-0.10","2","1","r2yvrxfbmq9kn8s","","null","","sounds/induction/right/re_SWS.wav","","null","","","","","","","","","","","","","","","","","","","","","","","","","","","","","","","","","","","","","","","","","",""
"html-button-response","52","200424","0.0-4.0-1.0-1.10","2","1","r2yvrxfbmq9kn8s","","1088","","What sound did you hear?","1","","","1","INDUCTION-JUDGMENT","right","1","","","","","","","","","","","","","","","","","","","","","","","","","","","","","","","","","","","","",""
"html-keyboard-response","53","201427","0.0-4.0-1.0-2.10","2","1","r2yvrxfbmq9kn8s","","null","","<p style=""color:green;""><b>Correct!</b></p>","","null","","","","","","","","","","","","","","","","","","","","","","","","","","","","","","","","","","","","","","","","","",""
"audio-keyboard-response","54","202257","0.0-4.0-1.0-0.11","2","1","r2yvrxfbmq9kn8s","","null","","sounds/induction/right/fe_SWS.wav","","null","","","","","","","","","","","","","","","","","","","","","","","","","","","","","","","","","","","","","","","","","",""
"html-button-response","55","203831","0.0-4.0-1.0-1.11","2","1","r2yvrxfbmq9kn8s","","1574","","What sound did you hear?","0","","","1","INDUCTION-JUDGMENT","right","0","","","","","","","","","","","","","","","","","","","","","","","","","","","","","","","","","","","","",""
"html-keyboard-response","56","204843","0.0-4.0-1.0-2.11","2","1","r2yvrxfbmq9kn8s","","null","","<p style=""color:green;""><b>Correct!</b></p>","","null","","","","","","","","","","","","","","","","","","","","","","","","","","","","","","","","","","","","","","","","","",""
"audio-keyboard-response","57","205667","0.0-4.0-1.0-0.12","2","1","r2yvrxfbmq9kn8s","","null","","sounds/induction/right/fe_SWS.wav","","null","","","","","","","","","","","","","","","","","","","","","","","","","","","","","","","","","","","","","","","","","",""
"html-button-response","58","206454","0.0-4.0-1.0-1.12","2","1","r2yvrxfbmq9kn8s","","787","","What sound did you hear?","0","","","1","INDUCTION-JUDGMENT","right","0","","","","","","","","","","","","","","","","","","","","","","","","","","","","","","","","","","","","",""
"html-keyboard-response","59","207465","0.0-4.0-1.0-2.12","2","1","r2yvrxfbmq9kn8s","","null","","<p style=""color:green;""><b>Correct!</b></p>","","null","","","","","","","","","","","","","","","","","","","","","","","","","","","","","","","","","","","","","","","","","",""
"audio-keyboard-response","60","208277","0.0-4.0-1.0-0.13","2","1","r2yvrxfbmq9kn8s","","null","","sounds/induction/right/ko_SWS.wav","","null","","","","","","","","","","","","","","","","","","","","","","","","","","","","","","","","","","","","","","","","","",""
"html-button-response","61","210316","0.0-4.0-1.0-1.13","2","1","r2yvrxfbmq9kn8s","","2038","","What sound did you hear?","0","","","1","INDUCTION-JUDGMENT","right","0","","","","","","","","","","","","","","","","","","","","","","","","","","","","","","","","","","","","",""
"html-keyboard-response","62","211331","0.0-4.0-1.0-2.13","2","1","r2yvrxfbmq9kn8s","","null","","<p style=""color:green;""><b>Correct!</b></p>","","null","","","","","","","","","","","","","","","","","","","","","","","","","","","","","","","","","","","","","","","","","",""
"audio-keyboard-response","63","212147","0.0-4.0-1.0-0.14","2","1","r2yvrxfbmq9kn8s","","null","","sounds/induction/left/su_SWS.wav","","null","","","","","","","","","","","","","","","","","","","","","","","","","","","","","","","","","","","","","","","","","",""
"html-button-response","64","213571","0.0-4.0-1.0-1.14","2","1","r2yvrxfbmq9kn8s","","1423","","What sound did you hear?","0","","","1","INDUCTION-JUDGMENT","left","0","","","","","","","","","","","","","","","","","","","","","","","","","","","","","","","","","","","","",""
"html-keyboard-response","65","214571","0.0-4.0-1.0-2.14","2","1","r2yvrxfbmq9kn8s","","null","","<p style=""color:green;""><b>Correct!</b></p>","","null","","","","","","","","","","","","","","","","","","","","","","","","","","","","","","","","","","","","","","","","","",""
"audio-keyboard-response","66","215386","0.0-4.0-1.0-0.15","2","1","r2yvrxfbmq9kn8s","","null","","sounds/induction/right/ni_SWS.wav","","null","","","","","","","","","","","","","","","","","","","","","","","","","","","","","","","","","","","","","","","","","",""
"html-button-response","67","216328","0.0-4.0-1.0-1.15","2","1","r2yvrxfbmq9kn8s","","942","","What sound did you hear?","0","","","1","INDUCTION-JUDGMENT","right","0","","","","","","","","","","","","","","","","","","","","","","","","","","","","","","","","","","","","",""
"html-keyboard-response","68","217334","0.0-4.0-1.0-2.15","2","1","r2yvrxfbmq9kn8s","","null","","<p style=""color:green;""><b>Correct!</b></p>","","null","","","","","","","","","","","","","","","","","","","","","","","","","","","","","","","","","","","","","","","","","",""
"audio-keyboard-response","69","218147","0.0-4.0-1.0-0.16","2","1","r2yvrxfbmq9kn8s","","null","","sounds/induction/right/fu_SWS.wav","","null","","","","","","","","","","","","","","","","","","","","","","","","","","","","","","","","","","","","","","","","","",""
"html-button-response","70","219200","0.0-4.0-1.0-1.16","2","1","r2yvrxfbmq9kn8s","","1052","","What sound did you hear?","0","","","1","INDUCTION-JUDGMENT","right","0","","","","","","","","","","","","","","","","","","","","","","","","","","","","","","","","","","","","",""
"html-keyboard-response","71","220203","0.0-4.0-1.0-2.16","2","1","r2yvrxfbmq9kn8s","","null","","<p style=""color:green;""><b>Correct!</b></p>","","null","","","","","","","","","","","","","","","","","","","","","","","","","","","","","","","","","","","","","","","","","",""
"audio-keyboard-response","72","221027","0.0-4.0-1.0-0.17","2","1","r2yvrxfbmq9kn8s","","null","","sounds/induction/right/su_SWS.wav","","null","","","","","","","","","","","","","","","","","","","","","","","","","","","","","","","","","","","","","","","","","",""
"html-button-response","73","222016","0.0-4.0-1.0-1.17","2","1","r2yvrxfbmq9kn8s","","988","","What sound did you hear?","1","","","1","INDUCTION-JUDGMENT","right","1","","","","","","","","","","","","","","","","","","","","","","","","","","","","","","","","","","","","",""
"html-keyboard-response","74","223024","0.0-4.0-1.0-2.17","2","1","r2yvrxfbmq9kn8s","","null","","<p style=""color:green;""><b>Correct!</b></p>","","null","","","","","","","","","","","","","","","","","","","","","","","","","","","","","","","","","","","","","","","","","",""
"audio-keyboard-response","75","223837","0.0-4.0-1.0-0.18","2","1","r2yvrxfbmq9kn8s","","null","","sounds/induction/left/ko_SWS.wav","","null","","","","","","","","","","","","","","","","","","","","","","","","","","","","","","","","","","","","","","","","","",""
"html-button-response","76","225797","0.0-4.0-1.0-1.18","2","1","r2yvrxfbmq9kn8s","","1960","","What sound did you hear?","1","","","1","INDUCTION-JUDGMENT","left","1","","","","","","","","","","","","","","","","","","","","","","","","","","","","","","","","","","","","",""
"html-keyboard-response","77","226804","0.0-4.0-1.0-2.18","2","1","r2yvrxfbmq9kn8s","","null","","<p style=""color:green;""><b>Correct!</b></p>","","null","","","","","","","","","","","","","","","","","","","","","","","","","","","","","","","","","","","","","","","","","",""
"audio-keyboard-response","78","227627","0.0-4.0-1.0-0.19","2","1","r2yvrxfbmq9kn8s","","null","","sounds/induction/left/ru_SWS.wav","","null","","","","","","","","","","","","","","","","","","","","","","","","","","","","","","","","","","","","","","","","","",""
"html-button-response","79","228613","0.0-4.0-1.0-1.19","2","1","r2yvrxfbmq9kn8s","","987","","What sound did you hear?","0","","","1","INDUCTION-JUDGMENT","left","0","","","","","","","","","","","","","","","","","","","","","","","","","","","","","","","","","","","","",""
"html-keyboard-response","80","229618","0.0-4.0-1.0-2.19","2","1","r2yvrxfbmq9kn8s","","null","","<p style=""color:green;""><b>Correct!</b></p>","","null","","","","","","","","","","","","","","","","","","","","","","","","","","","","","","","","","","","","","","","","","",""
"audio-keyboard-response","81","230437","0.0-4.0-1.0-0.20","2","1","r2yvrxfbmq9kn8s","","null","","sounds/induction/left/pu_SWS.wav","","null","","","","","","","","","","","","","","","","","","","","","","","","","","","","","","","","","","","","","","","","","",""
"html-button-response","82","231346","0.0-4.0-1.0-1.20","2","1","r2yvrxfbmq9kn8s","","910","","What sound did you hear?","0","","","1","INDUCTION-JUDGMENT","left","0","","","","","","","","","","","","","","","","","","","","","","","","","","","","","","","","","","","","",""
"html-keyboard-response","83","232354","0.0-4.0-1.0-2.20","2","1","r2yvrxfbmq9kn8s","","null","","<p style=""color:green;""><b>Correct!</b></p>","","null","","","","","","","","","","","","","","","","","","","","","","","","","","","","","","","","","","","","","","","","","",""
"audio-keyboard-response","84","233176","0.0-4.0-1.0-0.21","2","1","r2yvrxfbmq9kn8s","","null","","sounds/induction/left/ti_SWS.wav","","null","","","","","","","","","","","","","","","","","","","","","","","","","","","","","","","","","","","","","","","","","",""
"html-button-response","85","234937","0.0-4.0-1.0-1.21","2","1","r2yvrxfbmq9kn8s","","1760","","What sound did you hear?","0","","","1","INDUCTION-JUDGMENT","left","0","","","","","","","","","","","","","","","","","","","","","","","","","","","","","","","","","","","","",""
"html-keyboard-response","86","235948","0.0-4.0-1.0-2.21","2","1","r2yvrxfbmq9kn8s","","null","","<p style=""color:green;""><b>Correct!</b></p>","","null","","","","","","","","","","","","","","","","","","","","","","","","","","","","","","","","","","","","","","","","","",""
"audio-keyboard-response","87","236777","0.0-4.0-1.0-0.22","2","1","r2yvrxfbmq9kn8s","","null","","sounds/induction/left/ta_SWS.wav","","null","","","","","","","","","","","","","","","","","","","","","","","","","","","","","","","","","","","","","","","","","",""
"html-button-response","88","238606","0.0-4.0-1.0-1.22","2","1","r2yvrxfbmq9kn8s","","1829","","What sound did you hear?","0","","","1","INDUCTION-JUDGMENT","left","0","","","","","","","","","","","","","","","","","","","","","","","","","","","","","","","","","","","","",""
"html-keyboard-response","89","239614","0.0-4.0-1.0-2.22","2","1","r2yvrxfbmq9kn8s","","null","","<p style=""color:green;""><b>Correct!</b></p>","","null","","","","","","","","","","","","","","","","","","","","","","","","","","","","","","","","","","","","","","","","","",""
"audio-keyboard-response","90","240427","0.0-4.0-1.0-0.23","2","1","r2yvrxfbmq9kn8s","","null","","sounds/induction/right/ko_SWS.wav","","null","","","","","","","","","","","","","","","","","","","","","","","","","","","","","","","","","","","","","","","","","",""
"html-button-response","91","241741","0.0-4.0-1.0-1.23","2","1","r2yvrxfbmq9kn8s","","1315","","What sound did you hear?","0","","","1","INDUCTION-JUDGMENT","right","0","","","","","","","","","","","","","","","","","","","","","","","","","","","","","","","","","","","","",""
"html-keyboard-response","92","242746","0.0-4.0-1.0-2.23","2","1","r2yvrxfbmq9kn8s","","null","","<p style=""color:green;""><b>Correct!</b></p>","","null","","","","","","","","","","","","","","","","","","","","","","","","","","","","","","","","","","","","","","","","","",""
"audio-keyboard-response","93","243556","0.0-4.0-1.0-0.24","2","1","r2yvrxfbmq9kn8s","","null","","sounds/induction/left/ru_SWS.wav","","null","","","","","","","","","","","","","","","","","","","","","","","","","","","","","","","","","","","","","","","","","",""
"html-button-response","94","244332","0.0-4.0-1.0-1.24","2","1","r2yvrxfbmq9kn8s","","775","","What sound did you hear?","0","","","1","INDUCTION-JUDGMENT","left","0","","","","","","","","","","","","","","","","","","","","","","","","","","","","","","","","","","","","",""
"html-keyboard-response","95","245339","0.0-4.0-1.0-2.24","2","1","r2yvrxfbmq9kn8s","","null","","<p style=""color:green;""><b>Correct!</b></p>","","null","","","","","","","","","","","","","","","","","","","","","","","","","","","","","","","","","","","","","","","","","",""
"audio-keyboard-response","96","246157","0.0-4.0-1.0-0.25","2","1","r2yvrxfbmq9kn8s","","null","","sounds/induction/left/fu_SWS.wav","","null","","","","","","","","","","","","","","","","","","","","","","","","","","","","","","","","","","","","","","","","","",""
"html-button-response","97","247175","0.0-4.0-1.0-1.25","2","1","r2yvrxfbmq9kn8s","","1017","","What sound did you hear?","1","","","1","INDUCTION-JUDGMENT","left","1","","","","","","","","","","","","","","","","","","","","","","","","","","","","","","","","","","","","",""
"html-keyboard-response","98","248182","0.0-4.0-1.0-2.25","2","1","r2yvrxfbmq9kn8s","","null","","<p style=""color:green;""><b>Correct!</b></p>","","null","","","","","","","","","","","","","","","","","","","","","","","","","","","","","","","","","","","","","","","","","",""
"audio-keyboard-response","99","248997","0.0-4.0-1.0-0.26","2","1","r2yvrxfbmq9kn8s","","null","","sounds/induction/right/fu_SWS.wav","","null","","","","","","","","","","","","","","","","","","","","","","","","","","","","","","","","","","","","","","","","","",""
"html-button-response","100","249930","0.0-4.0-1.0-1.26","2","1","r2yvrxfbmq9kn8s","","933","","What sound did you hear?","0","","","1","INDUCTION-JUDGMENT","right","0","","","","","","","","","","","","","","","","","","","","","","","","","","","","","","","","","","","","",""
"html-keyboard-response","101","250932","0.0-4.0-1.0-2.26","2","1","r2yvrxfbmq9kn8s","","null","","<p style=""color:green;""><b>Correct!</b></p>","","null","","","","","","","","","","","","","","","","","","","","","","","","","","","","","","","","","","","","","","","","","",""
"audio-keyboard-response","102","251747","0.0-4.0-1.0-0.27","2","1","r2yvrxfbmq9kn8s","","null","","sounds/induction/left/ko_SWS.wav","","null","","","","","","","","","","","","","","","","","","","","","","","","","","","","","","","","","","","","","","","","","",""
"html-button-response","103","253208","0.0-4.0-1.0-1.27","2","1","r2yvrxfbmq9kn8s","","1461","","What sound did you hear?","1","","","1","INDUCTION-JUDGMENT","left","1","","","","","","","","","","","","","","","","","","","","","","","","","","","","","","","","","","","","",""
"html-keyboard-response","104","254221","0.0-4.0-1.0-2.27","2","1","r2yvrxfbmq9kn8s","","null","","<p style=""color:green;""><b>Correct!</b></p>","","null","","","","","","","","","","","","","","","","","","","","","","","","","","","","","","","","","","","","","","","","","",""
"audio-keyboard-response","105","255037","0.0-4.0-1.0-0.28","2","1","r2yvrxfbmq9kn8s","","null","","sounds/induction/left/ni_SWS.wav","","null","","","","","","","","","","","","","","","","","","","","","","","","","","","","","","","","","","","","","","","","","",""
"html-button-response","106","256185","0.0-4.0-1.0-1.28","2","1","r2yvrxfbmq9kn8s","","1148","","What sound did you hear?","1","","","1","INDUCTION-JUDGMENT","left","1","","","","","","","","","","","","","","","","","","","","","","","","","","","","","","","","","","","","",""
"html-keyboard-response","107","257193","0.0-4.0-1.0-2.28","2","1","r2yvrxfbmq9kn8s","","null","","<p style=""color:green;""><b>Correct!</b></p>","","null","","","","","","","","","","","","","","","","","","","","","","","","","","","","","","","","","","","","","","","","","",""
"audio-keyboard-response","108","258017","0.0-4.0-1.0-0.29","2","1","r2yvrxfbmq9kn8s","","null","","sounds/induction/right/ti_SWS.wav","","null","","","","","","","","","","","","","","","","","","","","","","","","","","","","","","","","","","","","","","","","","",""
"html-button-response","109","259350","0.0-4.0-1.0-1.29","2","1","r2yvrxfbmq9kn8s","","1331","","What sound did you hear?","1","","","1","INDUCTION-JUDGMENT","right","1","","","","","","","","","","","","","","","","","","","","","","","","","","","","","","","","","","","","",""
"html-keyboard-response","110","260363","0.0-4.0-1.0-2.29","2","1","r2yvrxfbmq9kn8s","","null","","<p style=""color:green;""><b>Correct!</b></p>","","null","","","","","","","","","","","","","","","","","","","","","","","","","","","","","","","","","","","","","","","","","",""
"audio-keyboard-response","111","261187","0.0-4.0-1.0-0.30","2","1","r2yvrxfbmq9kn8s","","null","","sounds/induction/right/ta_SWS.wav","","null","","","","","","","","","","","","","","","","","","","","","","","","","","","","","","","","","","","","","","","","","",""
"html-button-response","112","262765","0.0-4.0-1.0-1.30","2","1","r2yvrxfbmq9kn8s","","1577","","What sound did you hear?","1","","","1","INDUCTION-JUDGMENT","right","1","","","","","","","","","","","","","","","","","","","","","","","","","","","","","","","","","","","","",""
"html-keyboard-response","113","263780","0.0-4.0-1.0-2.30","2","1","r2yvrxfbmq9kn8s","","null","","<p style=""color:green;""><b>Correct!</b></p>","","null","","","","","","","","","","","","","","","","","","","","","","","","","","","","","","","","","","","","","","","","","",""
"audio-keyboard-response","114","264598","0.0-4.0-1.0-0.31","2","1","r2yvrxfbmq9kn8s","","null","","sounds/induction/left/pu_SWS.wav","","null","","","","","","","","","","","","","","","","","","","","","","","","","","","","","","","","","","","","","","","","","",""
"html-button-response","115","265799","0.0-4.0-1.0-1.31","2","1","r2yvrxfbmq9kn8s","","1201","","What sound did you hear?","0","","","1","INDUCTION-JUDGMENT","left","0","","","","","","","","","","","","","","","","","","","","","","","","","","","","","","","","","","","","",""
"html-keyboard-response","116","266801","0.0-4.0-1.0-2.31","2","1","r2yvrxfbmq9kn8s","","null","","<p style=""color:green;""><b>Correct!</b></p>","","null","","","","","","","","","","","","","","","","","","","","","","","","","","","","","","","","","","","","","","","","","",""
"audio-keyboard-response","117","267626","0.0-4.0-1.0-0.32","2","1","r2yvrxfbmq9kn8s","","null","","sounds/induction/right/ru_SWS.wav","","null","","","","","","","","","","","","","","","","","","","","","","","","","","","","","","","","","","","","","","","","","",""
"html-button-response","118","268409","0.0-4.0-1.0-1.32","2","1","r2yvrxfbmq9kn8s","","783","","What sound did you hear?","1","","","1","INDUCTION-JUDGMENT","right","1","","","","","","","","","","","","","","","","","","","","","","","","","","","","","","","","","","","","",""
"html-keyboard-response","119","269420","0.0-4.0-1.0-2.32","2","1","r2yvrxfbmq9kn8s","","null","","<p style=""color:green;""><b>Correct!</b></p>","","null","","","","","","","","","","","","","","","","","","","","","","","","","","","","","","","","","","","","","","","","","",""
"audio-keyboard-response","120","270237","0.0-4.0-1.0-0.33","2","1","r2yvrxfbmq9kn8s","","null","","sounds/induction/left/ge_SWS.wav","","null","","","","","","","","","","","","","","","","","","","","","","","","","","","","","","","","","","","","","","","","","",""
"html-button-response","121","272056","0.0-4.0-1.0-1.33","2","1","r2yvrxfbmq9kn8s","","1820","","What sound did you hear?","1","","","1","INDUCTION-JUDGMENT","left","1","","","","","","","","","","","","","","","","","","","","","","","","","","","","","","","","","","","","",""
"html-keyboard-response","122","273061","0.0-4.0-1.0-2.33","2","1","r2yvrxfbmq9kn8s","","null","","<p style=""color:green;""><b>Correct!</b></p>","","null","","","","","","","","","","","","","","","","","","","","","","","","","","","","","","","","","","","","","","","","","",""
"audio-keyboard-response","123","273877","0.0-4.0-1.0-0.34","2","1","r2yvrxfbmq9kn8s","","null","","sounds/induction/left/ta_SWS.wav","","null","","","","","","","","","","","","","","","","","","","","","","","","","","","","","","","","","","","","","","","","","",""
"html-button-response","124","276126","0.0-4.0-1.0-1.34","2","1","r2yvrxfbmq9kn8s","","2249","","What sound did you hear?","0","","","1","INDUCTION-JUDGMENT","left","0","","","","","","","","","","","","","","","","","","","","","","","","","","","","","","","","","","","","",""
"html-keyboard-response","125","277135","0.0-4.0-1.0-2.34","2","1","r2yvrxfbmq9kn8s","","null","","<p style=""color:green;""><b>Correct!</b></p>","","null","","","","","","","","","","","","","","","","","","","","","","","","","","","","","","","","","","","","","","","","","",""
"audio-keyboard-response","126","277947","0.0-4.0-1.0-0.35","2","1","r2yvrxfbmq9kn8s","","null","","sounds/induction/left/ti_SWS.wav","","null","","","","","","","","","","","","","","","","","","","","","","","","","","","","","","","","","","","","","","","","","",""
"html-button-response","127","279245","0.0-4.0-1.0-1.35","2","1","r2yvrxfbmq9kn8s","","1299","","What sound did you hear?","0","","","1","INDUCTION-JUDGMENT","left","0","","","","","","","","","","","","","","","","","","","","","","","","","","","","","","","","","","","","",""
"html-keyboard-response","128","280252","0.0-4.0-1.0-2.35","2","1","r2yvrxfbmq9kn8s","","null","","<p style=""color:green;""><b>Correct!</b></p>","","null","","","","","","","","","","","","","","","","","","","","","","","","","","","","","","","","","","","","","","","","","",""
"audio-keyboard-response","129","281067","0.0-4.0-1.0-0.36","2","1","r2yvrxfbmq9kn8s","","null","","sounds/induction/right/me_SWS.wav","","null","","","","","","","","","","","","","","","","","","","","","","","","","","","","","","","","","","","","","","","","","",""
"html-button-response","130","282394","0.0-4.0-1.0-1.36","2","1","r2yvrxfbmq9kn8s","","1328","","What sound did you hear?","0","","","1","INDUCTION-JUDGMENT","right","0","","","","","","","","","","","","","","","","","","","","","","","","","","","","","","","","","","","","",""
"html-keyboard-response","131","283400","0.0-4.0-1.0-2.36","2","1","r2yvrxfbmq9kn8s","","null","","<p style=""color:green;""><b>Correct!</b></p>","","null","","","","","","","","","","","","","","","","","","","","","","","","","","","","","","","","","","","","","","","","","",""
"audio-keyboard-response","132","284227","0.0-4.0-1.0-0.37","2","1","r2yvrxfbmq9kn8s","","null","","sounds/induction/right/ta_SWS.wav","","null","","","","","","","","","","","","","","","","","","","","","","","","","","","","","","","","","","","","","","","","","",""
"html-button-response","133","286466","0.0-4.0-1.0-1.37","2","1","r2yvrxfbmq9kn8s","","2239","","What sound did you hear?","1","","","1","INDUCTION-JUDGMENT","right","1","","","","","","","","","","","","","","","","","","","","","","","","","","","","","","","","","","","","",""
"html-keyboard-response","134","287474","0.0-4.0-1.0-2.37","2","1","r2yvrxfbmq9kn8s","","null","","<p style=""color:green;""><b>Correct!</b></p>","","null","","","","","","","","","","","","","","","","","","","","","","","","","","","","","","","","","","","","","","","","","",""
"audio-keyboard-response","135","288306","0.0-4.0-1.0-0.38","2","1","r2yvrxfbmq9kn8s","","null","","sounds/induction/left/ge_SWS.wav","","null","","","","","","","","","","","","","","","","","","","","","","","","","","","","","","","","","","","","","","","","","",""
"html-button-response","136","289257","0.0-4.0-1.0-1.38","2","1","r2yvrxfbmq9kn8s","","950","","What sound did you hear?","1","","","1","INDUCTION-JUDGMENT","left","1","","","","","","","","","","","","","","","","","","","","","","","","","","","","","","","","","","","","",""
"html-keyboard-response","137","290269","0.0-4.0-1.0-2.38","2","1","r2yvrxfbmq9kn8s","","null","","<p style=""color:green;""><b>Correct!</b></p>","","null","","","","","","","","","","","","","","","","","","","","","","","","","","","","","","","","","","","","","","","","","",""
"audio-keyboard-response","138","291097","0.0-4.0-1.0-0.39","2","1","r2yvrxfbmq9kn8s","","null","","sounds/induction/right/ge_SWS.wav","","null","","","","","","","","","","","","","","","","","","","","","","","","","","","","","","","","","","","","","","","","","",""
"html-button-response","139","292607","0.0-4.0-1.0-1.39","2","1","r2yvrxfbmq9kn8s","","1510","","What sound did you hear?","0","","","1","INDUCTION-JUDGMENT","right","0","","","","","","","","","","","","","","","","","","","","","","","","","","","","","","","","","","","","",""
"html-keyboard-response","140","293617","0.0-4.0-1.0-2.39","2","1","r2yvrxfbmq9kn8s","","null","","<p style=""color:green;""><b>Correct!</b></p>","","null","","","","","","","","","","","","","","","","","","","","","","","","","","","","","","","","","","","","","","","","","",""
"audio-keyboard-response","141","294427","0.0-4.0-1.0-0.40","2","1","r2yvrxfbmq9kn8s","","null","","sounds/induction/right/ru_SWS.wav","","null","","","","","","","","","","","","","","","","","","","","","","","","","","","","","","","","","","","","","","","","","",""
"html-button-response","142","295245","0.0-4.0-1.0-1.40","2","1","r2yvrxfbmq9kn8s","","818","","What sound did you hear?","1","","","1","INDUCTION-JUDGMENT","right","1","","","","","","","","","","","","","","","","","","","","","","","","","","","","","","","","","","","","",""
"html-keyboard-response","143","296259","0.0-4.0-1.0-2.40","2","1","r2yvrxfbmq9kn8s","","null","","<p style=""color:green;""><b>Correct!</b></p>","","null","","","","","","","","","","","","","","","","","","","","","","","","","","","","","","","","","","","","","","","","","",""
"audio-keyboard-response","144","297077","0.0-4.0-1.0-0.41","2","1","r2yvrxfbmq9kn8s","","null","","sounds/induction/right/ge_SWS.wav","","null","","","","","","","","","","","","","","","","","","","","","","","","","","","","","","","","","","","","","","","","","",""
"html-button-response","145","298133","0.0-4.0-1.0-1.41","2","1","r2yvrxfbmq9kn8s","","1056","","What sound did you hear?","0","","","1","INDUCTION-JUDGMENT","right","0","","","","","","","","","","","","","","","","","","","","","","","","","","","","","","","","","","","","",""
"html-keyboard-response","146","299140","0.0-4.0-1.0-2.41","2","1","r2yvrxfbmq9kn8s","","null","","<p style=""color:green;""><b>Correct!</b></p>","","null","","","","","","","","","","","","","","","","","","","","","","","","","","","","","","","","","","","","","","","","","",""
"audio-keyboard-response","147","299957","0.0-4.0-1.0-0.42","2","1","r2yvrxfbmq9kn8s","","null","","sounds/induction/left/re_SWS.wav","","null","","","","","","","","","","","","","","","","","","","","","","","","","","","","","","","","","","","","","","","","","",""
"html-button-response","148","300882","0.0-4.0-1.0-1.42","2","1","r2yvrxfbmq9kn8s","","925","","What sound did you hear?","0","","","1","INDUCTION-JUDGMENT","left","0","","","","","","","","","","","","","","","","","","","","","","","","","","","","","","","","","","","","",""
"html-keyboard-response","149","301885","0.0-4.0-1.0-2.42","2","1","r2yvrxfbmq9kn8s","","null","","<p style=""color:green;""><b>Correct!</b></p>","","null","","","","","","","","","","","","","","","","","","","","","","","","","","","","","","","","","","","","","","","","","",""
"audio-keyboard-response","150","302707","0.0-4.0-1.0-0.43","2","1","r2yvrxfbmq9kn8s","","null","","sounds/induction/left/me_SWS.wav","","null","","","","","","","","","","","","","","","","","","","","","","","","","","","","","","","","","","","","","","","","","",""
"html-button-response","151","304266","0.0-4.0-1.0-1.43","2","1","r2yvrxfbmq9kn8s","","1558","","What sound did you hear?","1","","","1","INDUCTION-JUDGMENT","left","1","","","","","","","","","","","","","","","","","","","","","","","","","","","","","","","","","","","","",""
"html-keyboard-response","152","305277","0.0-4.0-1.0-2.43","2","1","r2yvrxfbmq9kn8s","","null","","<p style=""color:green;""><b>Correct!</b></p>","","null","","","","","","","","","","","","","","","","","","","","","","","","","","","","","","","","","","","","","","","","","",""
"audio-keyboard-response","153","306097","0.0-4.0-1.0-0.44","2","1","r2yvrxfbmq9kn8s","","null","","sounds/induction/left/me_SWS.wav","","null","","","","","","","","","","","","","","","","","","","","","","","","","","","","","","","","","","","","","","","","","",""
"html-button-response","154","307375","0.0-4.0-1.0-1.44","2","1","r2yvrxfbmq9kn8s","","1278","","What sound did you hear?","1","","","1","INDUCTION-JUDGMENT","left","1","","","","","","","","","","","","","","","","","","","","","","","","","","","","","","","","","","","","",""
"html-keyboard-response","155","308378","0.0-4.0-1.0-2.44","2","1","r2yvrxfbmq9kn8s","","null","","<p style=""color:green;""><b>Correct!</b></p>","","null","","","","","","","","","","","","","","","","","","","","","","","","","","","","","","","","","","","","","","","","","",""
"audio-keyboard-response","156","309187","0.0-4.0-1.0-0.45","2","1","r2yvrxfbmq9kn8s","","null","","sounds/induction/right/pu_SWS.wav","","null","","","","","","","","","","","","","","","","","","","","","","","","","","","","","","","","","","","","","","","","","",""
"html-button-response","157","310174","0.0-4.0-1.0-1.45","2","1","r2yvrxfbmq9kn8s","","987","","What sound did you hear?","0","","","0","INDUCTION-JUDGMENT","right","1","","","","","","","","","","","","","","","","","","","","","","","","","","","","","","","","","","","","",""
"html-keyboard-response","158","311181","0.0-4.0-1.0-2.45","2","1","r2yvrxfbmq9kn8s","","null","","<p style=""color:red;""><b>Incorrect!</b></p>","","null","","","","","","","","","","","","","","","","","","","","","","","","","","","","","","","","","","","","","","","","","",""
"audio-keyboard-response","159","311997","0.0-4.0-1.0-0.46","2","1","r2yvrxfbmq9kn8s","","null","","sounds/induction/right/me_SWS.wav","","null","","","","","","","","","","","","","","","","","","","","","","","","","","","","","","","","","","","","","","","","","",""
"html-button-response","160","313928","0.0-4.0-1.0-1.46","2","1","r2yvrxfbmq9kn8s","","1931","","What sound did you hear?","0","","","1","INDUCTION-JUDGMENT","right","0","","","","","","","","","","","","","","","","","","","","","","","","","","","","","","","","","","","","",""
"html-keyboard-response","161","314931","0.0-4.0-1.0-2.46","2","1","r2yvrxfbmq9kn8s","","null","","<p style=""color:green;""><b>Correct!</b></p>","","null","","","","","","","","","","","","","","","","","","","","","","","","","","","","","","","","","","","","","","","","","",""
"audio-keyboard-response","162","315756","0.0-4.0-1.0-0.47","2","1","r2yvrxfbmq9kn8s","","null","","sounds/induction/left/ni_SWS.wav","","null","","","","","","","","","","","","","","","","","","","","","","","","","","","","","","","","","","","","","","","","","",""
"html-button-response","163","317482","0.0-4.0-1.0-1.47","2","1","r2yvrxfbmq9kn8s","","1726","","What sound did you hear?","1","","","1","INDUCTION-JUDGMENT","left","1","","","","","","","","","","","","","","","","","","","","","","","","","","","","","","","","","","","","",""
"html-keyboard-response","164","318486","0.0-4.0-1.0-2.47","2","1","r2yvrxfbmq9kn8s","","null","","<p style=""color:green;""><b>Correct!</b></p>","","null","","","","","","","","","","","","","","","","","","","","","","","","","","","","","","","","","","","","","","","","","",""
"html-button-response","165","327470","0.0-5.0-0.0","2","1","r2yvrxfbmq9kn8s","","8474","","<p>Thank you for your answers.</p><p>You will now listen to similar sounds. The main difference is that the sounds will be longer and will make up complete sentences.</p><p>Please listen carefully to each sentence. After each sentence, you will be asked to type back what you heard to the best of your ability. After you provide your response, you will be given feedback about the correct answer.</p><p>There are 10 sentences in total.","0","","","","","","","","","","","","","","","","","","","","","","","","","","","","","","","","","","","","","","","","","","",""
"audio-keyboard-response","166","330307","0.0-5.0-1.0-0.0","2","1","r2yvrxfbmq9kn8s","","null","","sounds/sentences/left/14_02_cfSWS.wav","","null","","","","","","","","","","","","","","","","","","","","","","","","","","","","","","","","","","","","","","","","","",""
"sentence-resp","167","340633","0.0-5.0-1.0-1.0","2","1","r2yvrxfbmq9kn8s","","10325","","","","","","","SWS-SENT-RESPONSE","","","{""Q0"":""I said the same thing thirty times.""}","He said the same phrase thirty times.","said,same,phrase,thirty,times","I SAID THE SAME THING THIRTY TIMES","1","1","0","1","1","4","0.8","","","","","","","","","","","","","","","","","","","","","","","","","",""
"html-keyboard-response","168","341899","0.0-5.0-1.0-2.0","2","1","r2yvrxfbmq9kn8s","","null","","","","null","","","","","","","","","","","","","","","","","","","","","","","","","","","","","","","","","","","","","","","","","",""
"audio-keyboard-response","169","344226","0.0-5.0-1.0-3.0","2","1","r2yvrxfbmq9kn8s","","null","","sounds/sentences/left/14_02_cfSWS.wav","","null","","","","","","","","","","","","","","","","","","","","","","","","","","","","","","","","","","","","","","","","","",""
"html-keyboard-response","170","345228","0.0-5.0-1.0-4.0","2","1","r2yvrxfbmq9kn8s","","null","","","","null","","","","","","","","","","","","","","","","","","","","","","","","","","","","","","","","","","","","","","","","","",""
"html-button-response","171","346766","0.0-5.0-1.0-5.0","2","1","r2yvrxfbmq9kn8s","","1026","","<p>Press the button below when you are ready to continue.</p>","0","","","","","","","","","","","","","","","","","","","","","","","","","","","","","","","","","","","","","","","","","","",""
"audio-keyboard-response","172","349536","0.0-5.0-1.0-0.1","2","1","r2yvrxfbmq9kn8s","","null","","sounds/sentences/right/14_08_cfSWS.wav","","null","","","","","","","","","","","","","","","","","","","","","","","","","","","","","","","","","","","","","","","","","",""
"sentence-resp","173","371276","0.0-5.0-1.0-1.1","2","1","r2yvrxfbmq9kn8s","","21739","","","","","","","SWS-SENT-RESPONSE","","","{""Q0"":""The most important thing is to take your meds.\n""}","Clothes and lodging are free to new men.","clothes,lodging,free,new,men","THE MOST IMPORTANT THING IS TO TAKE YOUR MEDS ","0","0","0","0","0","0","0","","","","","","","","","","","","","","","","","","","","","","","","","",""
"html-keyboard-response","174","372553","0.0-5.0-1.0-2.1","2","1","r2yvrxfbmq9kn8s","","null","","","","null","","","","","","","","","","","","","","","","","","","","","","","","","","","","","","","","","","","","","","","","","",""
"audio-keyboard-response","175","374817","0.0-5.0-1.0-3.1","2","1","r2yvrxfbmq9kn8s","","null","","sounds/sentences/right/14_08_cfSWS.wav","","null","","","","","","","","","","","","","","","","","","","","","","","","","","","","","","","","","","","","","","","","","",""
"html-keyboard-response","176","375831","0.0-5.0-1.0-4.1","2","1","r2yvrxfbmq9kn8s","","null","","","","null","","","","","","","","","","","","","","","","","","","","","","","","","","","","","","","","","","","","","","","","","",""
"html-button-response","177","377088","0.0-5.0-1.0-5.1","2","1","r2yvrxfbmq9kn8s","","757","","<p>Press the button below when you are ready to continue.</p>","0","","","","","","","","","","","","","","","","","","","","","","","","","","","","","","","","","","","","","","","","","","",""
"audio-keyboard-response","178","379657","0.0-5.0-1.0-0.2","2","1","r2yvrxfbmq9kn8s","","null","","sounds/sentences/left/14_04_cfSWS.wav","","null","","","","","","","","","","","","","","","","","","","","","","","","","","","","","","","","","","","","","","","","","",""
"sentence-resp","179","389356","0.0-5.0-1.0-1.2","2","1","r2yvrxfbmq9kn8s","","9698","","","","","","","SWS-SENT-RESPONSE","","","{""Q0"":""Two plus seven is less than ten.""}","Two plus seven is less than ten.","two,plus,seven,less,ten","TWO PLUS SEVEN IS LESS THAN TEN","1","1","1","1","1","5","1","","","","","","","","","","","","","","","","","","","","","","","","","",""
"html-keyboard-response","180","390628","0.0-5.0-1.0-2.2","2","1","r2yvrxfbmq9kn8s","","null","","","","null","","","","","","","","","","","","","","","","","","","","","","","","","","","","","","","","","","","","","","","","","",""
"audio-keyboard-response","181","392696","0.0-5.0-1.0-3.2","2","1","r2yvrxfbmq9kn8s","","null","","sounds/sentences/left/14_04_cfSWS.wav","","null","","","","","","","","","","","","","","","","","","","","","","","","","","","","","","","","","","","","","","","","","",""
"html-keyboard-response","182","393701","0.0-5.0-1.0-4.2","2","1","r2yvrxfbmq9kn8s","","null","","","","null","","","","","","","","","","","","","","","","","","","","","","","","","","","","","","","","","","","","","","","","","",""
"html-button-response","183","397391","0.0-5.0-1.0-5.2","2","1","r2yvrxfbmq9kn8s","","3182","","<p>Press the button below when you are ready to continue.</p>","0","","","","","","","","","","","","","","","","","","","","","","","","","","","","","","","","","","","","","","","","","","",""
"audio-keyboard-response","184","400127","0.0-5.0-1.0-0.3","2","1","r2yvrxfbmq9kn8s","","null","","sounds/sentences/right/14_09_cfSWS.wav","","null","","","","","","","","","","","","","","","","","","","","","","","","","","","","","","","","","","","","","","","","","",""
"sentence-resp","185","418573","0.0-5.0-1.0-1.3","2","1","r2yvrxfbmq9kn8s","","18445","","","","","","","SWS-SENT-RESPONSE","","","{""Q0"":""We're from the city of badgers.\n""}","We frown when events take a bad turn.","frown,events,take,bad,turn","WE'RE FROM THE CITY OF BADGERS ","0","0","0","0","0","0","0","","","","","","","","","","","","","","","","","","","","","","","","","",""
"html-keyboard-response","186","419830","0.0-5.0-1.0-2.3","2","1","r2yvrxfbmq9kn8s","","null","","","","null","","","","","","","","","","","","","","","","","","","","","","","","","","","","","","","","","","","","","","","","","",""
"audio-keyboard-response","187","422066","0.0-5.0-1.0-3.3","2","1","r2yvrxfbmq9kn8s","","null","","sounds/sentences/right/14_09_cfSWS.wav","","null","","","","","","","","","","","","","","","","","","","","","","","","","","","","","","","","","","","","","","","","","",""
"html-keyboard-response","188","423066","0.0-5.0-1.0-4.3","2","1","r2yvrxfbmq9kn8s","","null","","","","null","","","","","","","","","","","","","","","","","","","","","","","","","","","","","","","","","","","","","","","","","",""
"html-button-response","189","424339","0.0-5.0-1.0-5.3","2","1","r2yvrxfbmq9kn8s","","769","","<p>Press the button below when you are ready to continue.</p>","0","","","","","","","","","","","","","","","","","","","","","","","","","","","","","","","","","","","","","","","","","","",""
"audio-keyboard-response","190","427337","0.0-5.0-1.0-0.4","2","1","r2yvrxfbmq9kn8s","","null","","sounds/sentences/left/14_05_cfSWS.wav","","null","","","","","","","","","","","","","","","","","","","","","","","","","","","","","","","","","","","","","","","","","",""
"sentence-resp","191","440093","0.0-5.0-1.0-1.4","2","1","r2yvrxfbmq9kn8s","","12756","","","","","","","SWS-SENT-RESPONSE","","","{""Q0"":""Look deep into the eyes of the sweet girl.""}","The glow deepened in the eyes of the sweet girl.","glow,deepened,eyes,sweet,girl","LOOK DEEP INTO THE EYES OF THE SWEET GIRL","0","0","1","1","1","3","0.6","","","","","","","","","","","","","","","","","","","","","","","","","",""
"html-keyboard-response","192","441363","0.0-5.0-1.0-2.4","2","1","r2yvrxfbmq9kn8s","","null","","","","null","","","","","","","","","","","","","","","","","","","","","","","","","","","","","","","","","","","","","","","","","",""
"audio-keyboard-response","193","443857","0.0-5.0-1.0-3.4","2","1","r2yvrxfbmq9kn8s","","null","","sounds/sentences/left/14_05_cfSWS.wav","","null","","","","","","","","","","","","","","","","","","","","","","","","","","","","","","","","","","","","","","","","","",""
"html-keyboard-response","194","444857","0.0-5.0-1.0-4.4","2","1","r2yvrxfbmq9kn8s","","null","","","","null","","","","","","","","","","","","","","","","","","","","","","","","","","","","","","","","","","","","","","","","","",""
"html-button-response","195","445962","0.0-5.0-1.0-5.4","2","1","r2yvrxfbmq9kn8s","","602","","<p>Press the button below when you are ready to continue.</p>","0","","","","","","","","","","","","","","","","","","","","","","","","","","","","","","","","","","","","","","","","","","",""
"audio-keyboard-response","196","448866","0.0-5.0-1.0-0.5","2","1","r2yvrxfbmq9kn8s","","null","","sounds/sentences/right/14_07_cfSWS.wav","","null","","","","","","","","","","","","","","","","","","","","","","","","","","","","","","","","","","","","","","","","","",""
"sentence-resp","197","457885","0.0-5.0-1.0-1.5","2","1","r2yvrxfbmq9kn8s","","9017","","","","","","","SWS-SENT-RESPONSE","","","{""Q0"":""Write a fond note to the friends you cherish.""}","Write a fond note to the friend you cherish.","write,fond,note,friend,cherish","WRITE A FOND NOTE TO THE FRIENDS YOU CHERISH","1","1","1","0","1","4","0.8","","","","","","","","","","","","","","","","","","","","","","","","","",""
"html-keyboard-response","198","459147","0.0-5.0-1.0-2.5","2","1","r2yvrxfbmq9kn8s","","null","","","","null","","","","","","","","","","","","","","","","","","","","","","","","","","","","","","","","","","","","","","","","","",""
"audio-keyboard-response","199","461547","0.0-5.0-1.0-3.5","2","1","r2yvrxfbmq9kn8s","","null","","sounds/sentences/right/14_07_cfSWS.wav","","null","","","","","","","","","","","","","","","","","","","","","","","","","","","","","","","","","","","","","","","","","",""
"html-keyboard-response","200","462561","0.0-5.0-1.0-4.5","2","1","r2yvrxfbmq9kn8s","","null","","","","null","","","","","","","","","","","","","","","","","","","","","","","","","","","","","","","","","","","","","","","","","",""
"html-button-response","201","463929","0.0-5.0-1.0-5.5","2","1","r2yvrxfbmq9kn8s","","852","","<p>Press the button below when you are ready to continue.</p>","0","","","","","","","","","","","","","","","","","","","","","","","","","","","","","","","","","","","","","","","","","","",""
"audio-keyboard-response","202","466537","0.0-5.0-1.0-0.6","2","1","r2yvrxfbmq9kn8s","","null","","sounds/sentences/left/14_03_cfSWS.wav","","null","","","","","","","","","","","","","","","","","","","","","","","","","","","","","","","","","","","","","","","","","",""
"sentence-resp","203","507943","0.0-5.0-1.0-1.6","2","1","r2yvrxfbmq9kn8s","","41406","","","","","","","SWS-SENT-RESPONSE","","","{""Q0"":""Fronds of light grows without leaves.""}","Pluck the bright rose without leaves.","pluck,bright,rose,without,leaves","FRONDS OF LIGHT GROWS WITHOUT LEAVES","0","0","0","1","1","2","0.4","","","","","","","","","","","","","","","","","","","","","","","","","",""
"html-keyboard-response","204","509214","0.0-5.0-1.0-2.6","2","1","r2yvrxfbmq9kn8s","","null","","","","null","","","","","","","","","","","","","","","","","","","","","","","","","","","","","","","","","","","","","","","","","",""
"audio-keyboard-response","205","511306","0.0-5.0-1.0-3.6","2","1","r2yvrxfbmq9kn8s","","null","","sounds/sentences/left/14_03_cfSWS.wav","","null","","","","","","","","","","","","","","","","","","","","","","","","","","","","","","","","","","","","","","","","","",""
"html-keyboard-response","206","512312","0.0-5.0-1.0-4.6","2","1","r2yvrxfbmq9kn8s","","null","","","","null","","","","","","","","","","","","","","","","","","","","","","","","","","","","","","","","","","","","","","","","","",""
"html-button-response","207","513683","0.0-5.0-1.0-5.6","2","1","r2yvrxfbmq9kn8s","","857","","<p>Press the button below when you are ready to continue.</p>","0","","","","","","","","","","","","","","","","","","","","","","","","","","","","","","","","","","","","","","","","","","",""
"audio-keyboard-response","208","516717","0.0-5.0-1.0-0.7","2","1","r2yvrxfbmq9kn8s","","null","","sounds/sentences/right/14_10_cfSWS.wav","","null","","","","","","","","","","","","","","","","","","","","","","","","","","","","","","","","","","","","","","","","","",""
"sentence-resp","209","543598","0.0-5.0-1.0-1.7","2","1","r2yvrxfbmq9kn8s","","26879","","","","","","","SWS-SENT-RESPONSE","","","{""Q0"":""Fortis is quite strong with a smoky taste.""}","Port is a strong wine with a smoky taste.","port,strong,wine,smoky,taste","FORTIS IS QUITE STRONG WITH A SMOKY TASTE","0","1","0","1","1","3","0.6","","","","","","","","","","","","","","","","","","","","","","","","","",""
"html-keyboard-response","210","544871","0.0-5.0-1.0-2.7","2","1","r2yvrxfbmq9kn8s","","null","","","","null","","","","","","","","","","","","","","","","","","","","","","","","","","","","","","","","","","","","","","","","","",""
"audio-keyboard-response","211","547397","0.0-5.0-1.0-3.7","2","1","r2yvrxfbmq9kn8s","","null","","sounds/sentences/right/14_10_cfSWS.wav","","null","","","","","","","","","","","","","","","","","","","","","","","","","","","","","","","","","","","","","","","","","",""
"html-keyboard-response","212","548398","0.0-5.0-1.0-4.7","2","1","r2yvrxfbmq9kn8s","","null","","","","null","","","","","","","","","","","","","","","","","","","","","","","","","","","","","","","","","","","","","","","","","",""
"html-button-response","213","549898","0.0-5.0-1.0-5.7","2","1","r2yvrxfbmq9kn8s","","999","","<p>Press the button below when you are ready to continue.</p>","0","","","","","","","","","","","","","","","","","","","","","","","","","","","","","","","","","","","","","","","","","","",""
"audio-keyboard-response","214","553037","0.0-5.0-1.0-0.8","2","1","r2yvrxfbmq9kn8s","","null","","sounds/sentences/left/14_01_cfSWS.wav","","null","","","","","","","","","","","","","","","","","","","","","","","","","","","","","","","","","","","","","","","","","",""
"sentence-resp","215","565261","0.0-5.0-1.0-1.8","2","1","r2yvrxfbmq9kn8s","","12224","","","","","","","SWS-SENT-RESPONSE","","","{""Q0"":""A crab is no small danger on a swim.""}","A cramp is no small danger on a swim.","cramp,no,small,danger,swim","A CRAB IS NO SMALL DANGER ON A SWIM","0","1","1","1","1","4","0.8","","","","","","","","","","","","","","","","","","","","","","","","","",""
"html-keyboard-response","216","566520","0.0-5.0-1.0-2.8","2","1","r2yvrxfbmq9kn8s","","null","","","","null","","","","","","","","","","","","","","","","","","","","","","","","","","","","","","","","","","","","","","","","","",""
"audio-keyboard-response","217","569146","0.0-5.0-1.0-3.8","2","1","r2yvrxfbmq9kn8s","","null","","sounds/sentences/left/14_01_cfSWS.wav","","null","","","","","","","","","","","","","","","","","","","","","","","","","","","","","","","","","","","","","","","","","",""
"html-keyboard-response","218","570160","0.0-5.0-1.0-4.8","2","1","r2yvrxfbmq9kn8s","","null","","","","null","","","","","","","","","","","","","","","","","","","","","","","","","","","","","","","","","","","","","","","","","",""
"html-button-response","219","571457","0.0-5.0-1.0-5.8","2","1","r2yvrxfbmq9kn8s","","787","","<p>Press the button below when you are ready to continue.</p>","0","","","","","","","","","","","","","","","","","","","","","","","","","","","","","","","","","","","","","","","","","","",""
"audio-keyboard-response","220","574216","0.0-5.0-1.0-0.9","2","1","r2yvrxfbmq9kn8s","","null","","sounds/sentences/right/14_06_cfSWS.wav","","null","","","","","","","","","","","","","","","","","","","","","","","","","","","","","","","","","","","","","","","","","",""
"sentence-resp","221","587737","0.0-5.0-1.0-1.9","2","1","r2yvrxfbmq9kn8s","","13520","","","","","","","SWS-SENT-RESPONSE","","","{""Q0"":""Bringing your problems to the wise chief.""}","Bring your problems to the wise chief.","bring,your,problems,wise,chief","BRINGING YOUR PROBLEMS TO THE WISE CHIEF","0","1","1","1","1","4","0.8","","","","","","","","","","","","","","","","","","","","","","","","","",""
"html-keyboard-response","222","588998","0.0-5.0-1.0-2.9","2","1","r2yvrxfbmq9kn8s","","null","","","","null","","","","","","","","","","","","","","","","","","","","","","","","","","","","","","","","","","","","","","","","","",""
"audio-keyboard-response","223","591256","0.0-5.0-1.0-3.9","2","1","r2yvrxfbmq9kn8s","","null","","sounds/sentences/right/14_06_cfSWS.wav","","null","","","","","","","","","","","","","","","","","","","","","","","","","","","","","","","","","","","","","","","","","",""
"html-keyboard-response","224","592267","0.0-5.0-1.0-4.9","2","1","r2yvrxfbmq9kn8s","","null","","","","null","","","","","","","","","","","","","","","","","","","","","","","","","","","","","","","","","","","","","","","","","",""
"html-button-response","225","593607","0.0-5.0-1.0-5.9","2","1","r2yvrxfbmq9kn8s","","827","","<p>Press the button below when you are ready to continue.</p>","0","","","","","","","","","","","","","","","","","","","","","","","","","","","","","","","","","","","","","","","","","","",""
"html-keyboard-response","226","606882","0.0-6.0-0.0","2","1","r2yvrxfbmq9kn8s","","12769","","<p>In this part of the study, you will hear sounds similar to those you just heard.</p><p>Please focus on these sounds, as you may be asked questions about them later.</p><p>Occasionally, the sounds will pause for up to two seconds. When this happens, please press SPACEBAR as quickly as you can.</br>This helps ensure that you are paying attention to the sounds.</p><p>This part of the study will take about 12 minutes to complete, and you will be given the opportunity to take a couple of short breaks every few minutes.</p><p><strong>Press SPACEBAR to begin</strong></p>","","32","","","","","","","","","","","","","","","","","","","","","","","","","","","","","","","","","","","","","","","","","",""
"html-keyboard-response","227","607894","0.0-6.0-1.0-0.0","2","1","r2yvrxfbmq9kn8s","","null","","<p style=""font-size: 40px;"">+</p>","","null","","","","","","","","","","","","","","","","","","","","","","","","","","","","","","","","","","","","","","","","","",""
"html-keyboard-response","228","792911","0.0-6.0-1.0-1.0","2","1","r2yvrxfbmq9kn8s","","null","","","","null","","","SL-TRAIN","","","","","","","","","","","","","","0","1993","1770","sounds/B/TRAIN/SEQ__07.mp3","2","","","","","","","","","","","","","","","","","","","","",""
"html-button-response","229","1081246","0.0-6.0-1.0-2.0","2","1","r2yvrxfbmq9kn8s","","288332","","<p>You may take a short break if you wish.</p>","0","","","","","","","","","","","","","","","","","","","","","","","","","","","","","","","","","","","","","","","","","","",""
"html-keyboard-response","230","1082252","0.0-6.0-1.0-3.0","2","1","r2yvrxfbmq9kn8s","","null","","<p style=""font-size: 40px;"">+</p>","","null","","","","","","","","","","","","","","","","","","","","","","","","","","","","","","","","","","","","","","","","","",""
"html-keyboard-response","231","1267255","0.0-6.0-1.0-4.0","2","1","r2yvrxfbmq9kn8s","","null","","","","null","","","SL-TRAIN","","","","","","","","","","","","","","0","1681","1692","sounds/B/TRAIN/SEQ__02.mp3","4","","","","","","","","","","","","","","","","","","","","",""
"html-button-response","232","1277334","0.0-6.0-1.0-5.0","2","1","r2yvrxfbmq9kn8s","","10076","","<p>You may take a short break if you wish.</p>","0","","","","","","","","","","","","","","","","","","","","","","","","","","","","","","","","","","","","","","","","","","",""
"html-keyboard-response","233","1278339","0.0-6.0-1.0-6.0","2","1","r2yvrxfbmq9kn8s","","null","","<p style=""font-size: 40px;"">+</p>","","null","","","","","","","","","","","","","","","","","","","","","","","","","","","","","","","","","","","","","","","","","",""
"html-keyboard-response","234","1463341","0.0-6.0-1.0-7.0","2","1","r2yvrxfbmq9kn8s","","null","","","","null","","","SL-TRAIN","","","","","","","","","","","","","","1","1987","null","sounds/B/TRAIN/SEQ__08.mp3","25","","","","","","","","","","","","","","","","","","","","",""
"html-button-response","235","1466145","0.0-6.0-1.0-8.0","2","1","r2yvrxfbmq9kn8s","","2802","","<p>You may take a short break if you wish.</p>","0","","","","","","","","","","","","","","","","","","","","","","","","","","","","","","","","","","","","","","","","","","",""
"html-keyboard-response","236","1467147","0.0-6.0-1.0-9.0","2","1","r2yvrxfbmq9kn8s","","null","","<p style=""font-size: 40px;"">+</p>","","null","","","","","","","","","","","","","","","","","","","","","","","","","","","","","","","","","","","","","","","","","",""
"html-keyboard-response","237","1652150","0.0-6.0-1.0-10.0","2","1","r2yvrxfbmq9kn8s","","null","","","","null","","","SL-TRAIN","","","","","","","","","","","","","","0","1543","492","sounds/B/TRAIN/SEQ__04.mp3","15","","","","","","","","","","","","","","","","","","","","",""
"html-button-response","238","1655442","0.0-6.0-1.0-11.0","2","1","r2yvrxfbmq9kn8s","","3291","","<p>You may take a short break if you wish.</p>","0","","","","","","","","","","","","","","","","","","","","","","","","","","","","","","","","","","","","","","","","","","",""
"html-button-response","239","1661166","0.0-7.0-0.0","2","1","r2yvrxfbmq9kn8s","","5724","","<p>Welcome to the second part of the study. This is a <u>familiarity task</u>.</p><p>You will now hear short sounds and will be asked to rate how familiar they sound to you <b>based on what you heard in the previous part of the study</b>.</p><p>You will rate 12 sounds in total.</p>","0","","","","","","","","","","","","","","","","","","","","","","","","","","","","","","","","","","","","","","","","","","",""
"html-keyboard-response","240","1662169","0.0-7.0-1.0-0.0","2","1","r2yvrxfbmq9kn8s","","null","","","","null","","","","","","","","","","","","","","","","","","","","","","","","","","","","","","","","","","","","","","","","","",""
"audio-keyboard-response","241","1663117","0.0-7.0-1.0-1.0","2","1","r2yvrxfbmq9kn8s","","null","","sounds/B/FAM/P001.mp3","","null","","","","","","","","","","","","","","","","","","","","","","","","","","","","","","","","","","","","","","","","","",""
"html-keyboard-response","242","1665677","0.0-7.0-1.0-2.0","2","1","r2yvrxfbmq9kn8s","","2052","","<p>How familiar did this sound to you?</p><p>1&nbsp;&nbsp;&nbsp;&nbsp;&nbsp;&nbsp;&nbsp;&nbsp;&nbsp;&nbsp;&nbsp;&nbsp;&nbsp;&nbsp;&nbsp;&nbsp;&nbsp;&nbsp;&nbsp;2&nbsp;&nbsp;&nbsp;&nbsp;&nbsp;&nbsp;&nbsp;&nbsp;&nbsp;&nbsp;&nbsp;&nbsp;&nbsp;&nbsp;&nbsp;&nbsp;&nbsp;&nbsp;&nbsp;3&nbsp;&nbsp;&nbsp;&nbsp;&nbsp;&nbsp;&nbsp;&nbsp;&nbsp;&nbsp;&nbsp;&nbsp;&nbsp;&nbsp;&nbsp;&nbsp;&nbsp;&nbsp;&nbsp;4</p><p style=""font-size:14px"">Not at all familiar&nbsp;&nbsp;&nbsp;&nbsp;A little familiar&nbsp;&nbsp;&nbsp;Moderately familiar&nbsp;&nbsp;&nbsp;Extremely familiar</p><p>(press the corresponding number on your keyboard)</p>","","52","","","FAM-RESPONSE","","","","","","","","","","","","","","","","","","","sounds/B/FAM/P001.mp3","partword","","","","","","","","","","","","","","","","","","",""
"html-keyboard-response","243","1667689","0.0-7.0-1.0-0.1","2","1","r2yvrxfbmq9kn8s","","null","","","","null","","","","","","","","","","","","","","","","","","","","","","","","","","","","","","","","","","","","","","","","","",""
"audio-keyboard-response","244","1668637","0.0-7.0-1.0-1.1","2","1","r2yvrxfbmq9kn8s","","null","","sounds/B/FAM/P003.mp3","","null","","","","","","","","","","","","","","","","","","","","","","","","","","","","","","","","","","","","","","","","","",""
"html-keyboard-response","245","1671758","0.0-7.0-1.0-2.1","2","1","r2yvrxfbmq9kn8s","","2605","","<p>How familiar did this sound to you?</p><p>1&nbsp;&nbsp;&nbsp;&nbsp;&nbsp;&nbsp;&nbsp;&nbsp;&nbsp;&nbsp;&nbsp;&nbsp;&nbsp;&nbsp;&nbsp;&nbsp;&nbsp;&nbsp;&nbsp;2&nbsp;&nbsp;&nbsp;&nbsp;&nbsp;&nbsp;&nbsp;&nbsp;&nbsp;&nbsp;&nbsp;&nbsp;&nbsp;&nbsp;&nbsp;&nbsp;&nbsp;&nbsp;&nbsp;3&nbsp;&nbsp;&nbsp;&nbsp;&nbsp;&nbsp;&nbsp;&nbsp;&nbsp;&nbsp;&nbsp;&nbsp;&nbsp;&nbsp;&nbsp;&nbsp;&nbsp;&nbsp;&nbsp;4</p><p style=""font-size:14px"">Not at all familiar&nbsp;&nbsp;&nbsp;&nbsp;A little familiar&nbsp;&nbsp;&nbsp;Moderately familiar&nbsp;&nbsp;&nbsp;Extremely familiar</p><p>(press the corresponding number on your keyboard)</p>","","52","","","FAM-RESPONSE","","","","","","","","","","","","","","","","","","","sounds/B/FAM/P003.mp3","partword","","","","","","","","","","","","","","","","","","",""
"html-keyboard-response","246","1673774","0.0-7.0-1.0-0.2","2","1","r2yvrxfbmq9kn8s","","null","","","","null","","","","","","","","","","","","","","","","","","","","","","","","","","","","","","","","","","","","","","","","","",""
"audio-keyboard-response","247","1674716","0.0-7.0-1.0-1.2","2","1","r2yvrxfbmq9kn8s","","null","","sounds/B/FAM/N002.mp3","","null","","","","","","","","","","","","","","","","","","","","","","","","","","","","","","","","","","","","","","","","","",""
"html-keyboard-response","248","1679051","0.0-7.0-1.0-2.2","2","1","r2yvrxfbmq9kn8s","","3831","","<p>How familiar did this sound to you?</p><p>1&nbsp;&nbsp;&nbsp;&nbsp;&nbsp;&nbsp;&nbsp;&nbsp;&nbsp;&nbsp;&nbsp;&nbsp;&nbsp;&nbsp;&nbsp;&nbsp;&nbsp;&nbsp;&nbsp;2&nbsp;&nbsp;&nbsp;&nbsp;&nbsp;&nbsp;&nbsp;&nbsp;&nbsp;&nbsp;&nbsp;&nbsp;&nbsp;&nbsp;&nbsp;&nbsp;&nbsp;&nbsp;&nbsp;3&nbsp;&nbsp;&nbsp;&nbsp;&nbsp;&nbsp;&nbsp;&nbsp;&nbsp;&nbsp;&nbsp;&nbsp;&nbsp;&nbsp;&nbsp;&nbsp;&nbsp;&nbsp;&nbsp;4</p><p style=""font-size:14px"">Not at all familiar&nbsp;&nbsp;&nbsp;&nbsp;A little familiar&nbsp;&nbsp;&nbsp;Moderately familiar&nbsp;&nbsp;&nbsp;Extremely familiar</p><p>(press the corresponding number on your keyboard)</p>","","49","","","FAM-RESPONSE","","","","","","","","","","","","","","","","","","","sounds/B/FAM/N002.mp3","nonword","","","","","","","","","","","","","","","","","","",""
"html-keyboard-response","249","1681068","0.0-7.0-1.0-0.3","2","1","r2yvrxfbmq9kn8s","","null","","","","null","","","","","","","","","","","","","","","","","","","","","","","","","","","","","","","","","","","","","","","","","",""
"audio-keyboard-response","250","1682026","0.0-7.0-1.0-1.3","2","1","r2yvrxfbmq9kn8s","","null","","sounds/B/FAM/P002.mp3","","null","","","","","","","","","","","","","","","","","","","","","","","","","","","","","","","","","","","","","","","","","",""
"html-keyboard-response","251","1683844","0.0-7.0-1.0-2.3","2","1","r2yvrxfbmq9kn8s","","1311","","<p>How familiar did this sound to you?</p><p>1&nbsp;&nbsp;&nbsp;&nbsp;&nbsp;&nbsp;&nbsp;&nbsp;&nbsp;&nbsp;&nbsp;&nbsp;&nbsp;&nbsp;&nbsp;&nbsp;&nbsp;&nbsp;&nbsp;2&nbsp;&nbsp;&nbsp;&nbsp;&nbsp;&nbsp;&nbsp;&nbsp;&nbsp;&nbsp;&nbsp;&nbsp;&nbsp;&nbsp;&nbsp;&nbsp;&nbsp;&nbsp;&nbsp;3&nbsp;&nbsp;&nbsp;&nbsp;&nbsp;&nbsp;&nbsp;&nbsp;&nbsp;&nbsp;&nbsp;&nbsp;&nbsp;&nbsp;&nbsp;&nbsp;&nbsp;&nbsp;&nbsp;4</p><p style=""font-size:14px"">Not at all familiar&nbsp;&nbsp;&nbsp;&nbsp;A little familiar&nbsp;&nbsp;&nbsp;Moderately familiar&nbsp;&nbsp;&nbsp;Extremely familiar</p><p>(press the corresponding number on your keyboard)</p>","","52","","","FAM-RESPONSE","","","","","","","","","","","","","","","","","","","sounds/B/FAM/P002.mp3","partword","","","","","","","","","","","","","","","","","","",""
"html-keyboard-response","252","1685856","0.0-7.0-1.0-0.4","2","1","r2yvrxfbmq9kn8s","","null","","","","null","","","","","","","","","","","","","","","","","","","","","","","","","","","","","","","","","","","","","","","","","",""
"audio-keyboard-response","253","1686796","0.0-7.0-1.0-1.4","2","1","r2yvrxfbmq9kn8s","","null","","sounds/B/FAM/P004.mp3","","null","","","","","","","","","","","","","","","","","","","","","","","","","","","","","","","","","","","","","","","","","",""
"html-keyboard-response","254","1688297","0.0-7.0-1.0-2.4","2","1","r2yvrxfbmq9kn8s","","992","","<p>How familiar did this sound to you?</p><p>1&nbsp;&nbsp;&nbsp;&nbsp;&nbsp;&nbsp;&nbsp;&nbsp;&nbsp;&nbsp;&nbsp;&nbsp;&nbsp;&nbsp;&nbsp;&nbsp;&nbsp;&nbsp;&nbsp;2&nbsp;&nbsp;&nbsp;&nbsp;&nbsp;&nbsp;&nbsp;&nbsp;&nbsp;&nbsp;&nbsp;&nbsp;&nbsp;&nbsp;&nbsp;&nbsp;&nbsp;&nbsp;&nbsp;3&nbsp;&nbsp;&nbsp;&nbsp;&nbsp;&nbsp;&nbsp;&nbsp;&nbsp;&nbsp;&nbsp;&nbsp;&nbsp;&nbsp;&nbsp;&nbsp;&nbsp;&nbsp;&nbsp;4</p><p style=""font-size:14px"">Not at all familiar&nbsp;&nbsp;&nbsp;&nbsp;A little familiar&nbsp;&nbsp;&nbsp;Moderately familiar&nbsp;&nbsp;&nbsp;Extremely familiar</p><p>(press the corresponding number on your keyboard)</p>","","50","","","FAM-RESPONSE","","","","","","","","","","","","","","","","","","","sounds/B/FAM/P004.mp3","partword","","","","","","","","","","","","","","","","","","",""
"html-keyboard-response","255","1690318","0.0-7.0-1.0-0.5","2","1","r2yvrxfbmq9kn8s","","null","","","","null","","","","","","","","","","","","","","","","","","","","","","","","","","","","","","","","","","","","","","","","","",""
"audio-keyboard-response","256","1691266","0.0-7.0-1.0-1.5","2","1","r2yvrxfbmq9kn8s","","null","","sounds/B/FAM/N003.mp3","","null","","","","","","","","","","","","","","","","","","","","","","","","","","","","","","","","","","","","","","","","","",""
"html-keyboard-response","257","1692838","0.0-7.0-1.0-2.5","2","1","r2yvrxfbmq9kn8s","","1060","","<p>How familiar did this sound to you?</p><p>1&nbsp;&nbsp;&nbsp;&nbsp;&nbsp;&nbsp;&nbsp;&nbsp;&nbsp;&nbsp;&nbsp;&nbsp;&nbsp;&nbsp;&nbsp;&nbsp;&nbsp;&nbsp;&nbsp;2&nbsp;&nbsp;&nbsp;&nbsp;&nbsp;&nbsp;&nbsp;&nbsp;&nbsp;&nbsp;&nbsp;&nbsp;&nbsp;&nbsp;&nbsp;&nbsp;&nbsp;&nbsp;&nbsp;3&nbsp;&nbsp;&nbsp;&nbsp;&nbsp;&nbsp;&nbsp;&nbsp;&nbsp;&nbsp;&nbsp;&nbsp;&nbsp;&nbsp;&nbsp;&nbsp;&nbsp;&nbsp;&nbsp;4</p><p style=""font-size:14px"">Not at all familiar&nbsp;&nbsp;&nbsp;&nbsp;A little familiar&nbsp;&nbsp;&nbsp;Moderately familiar&nbsp;&nbsp;&nbsp;Extremely familiar</p><p>(press the corresponding number on your keyboard)</p>","","49","","","FAM-RESPONSE","","","","","","","","","","","","","","","","","","","sounds/B/FAM/N003.mp3","nonword","","","","","","","","","","","","","","","","","","",""
"html-keyboard-response","258","1694844","0.0-7.0-1.0-0.6","2","1","r2yvrxfbmq9kn8s","","null","","","","null","","","","","","","","","","","","","","","","","","","","","","","","","","","","","","","","","","","","","","","","","",""
"audio-keyboard-response","259","1695787","0.0-7.0-1.0-1.6","2","1","r2yvrxfbmq9kn8s","","null","","sounds/B/FAM/W001.mp3","","null","","","","","","","","","","","","","","","","","","","","","","","","","","","","","","","","","","","","","","","","","",""
"html-keyboard-response","260","1697159","0.0-7.0-1.0-2.6","2","1","r2yvrxfbmq9kn8s","","866","","<p>How familiar did this sound to you?</p><p>1&nbsp;&nbsp;&nbsp;&nbsp;&nbsp;&nbsp;&nbsp;&nbsp;&nbsp;&nbsp;&nbsp;&nbsp;&nbsp;&nbsp;&nbsp;&nbsp;&nbsp;&nbsp;&nbsp;2&nbsp;&nbsp;&nbsp;&nbsp;&nbsp;&nbsp;&nbsp;&nbsp;&nbsp;&nbsp;&nbsp;&nbsp;&nbsp;&nbsp;&nbsp;&nbsp;&nbsp;&nbsp;&nbsp;3&nbsp;&nbsp;&nbsp;&nbsp;&nbsp;&nbsp;&nbsp;&nbsp;&nbsp;&nbsp;&nbsp;&nbsp;&nbsp;&nbsp;&nbsp;&nbsp;&nbsp;&nbsp;&nbsp;4</p><p style=""font-size:14px"">Not at all familiar&nbsp;&nbsp;&nbsp;&nbsp;A little familiar&nbsp;&nbsp;&nbsp;Moderately familiar&nbsp;&nbsp;&nbsp;Extremely familiar</p><p>(press the corresponding number on your keyboard)</p>","","52","","","FAM-RESPONSE","","","","","","","","","","","","","","","","","","","sounds/B/FAM/W001.mp3","word","","","","","","","","","","","","","","","","","","",""
"html-keyboard-response","261","1699176","0.0-7.0-1.0-0.7","2","1","r2yvrxfbmq9kn8s","","null","","","","null","","","","","","","","","","","","","","","","","","","","","","","","","","","","","","","","","","","","","","","","","",""
"audio-keyboard-response","262","1700136","0.0-7.0-1.0-1.7","2","1","r2yvrxfbmq9kn8s","","null","","sounds/B/FAM/W004.mp3","","null","","","","","","","","","","","","","","","","","","","","","","","","","","","","","","","","","","","","","","","","","",""
"html-keyboard-response","263","1703699","0.0-7.0-1.0-2.7","2","1","r2yvrxfbmq9kn8s","","3054","","<p>How familiar did this sound to you?</p><p>1&nbsp;&nbsp;&nbsp;&nbsp;&nbsp;&nbsp;&nbsp;&nbsp;&nbsp;&nbsp;&nbsp;&nbsp;&nbsp;&nbsp;&nbsp;&nbsp;&nbsp;&nbsp;&nbsp;2&nbsp;&nbsp;&nbsp;&nbsp;&nbsp;&nbsp;&nbsp;&nbsp;&nbsp;&nbsp;&nbsp;&nbsp;&nbsp;&nbsp;&nbsp;&nbsp;&nbsp;&nbsp;&nbsp;3&nbsp;&nbsp;&nbsp;&nbsp;&nbsp;&nbsp;&nbsp;&nbsp;&nbsp;&nbsp;&nbsp;&nbsp;&nbsp;&nbsp;&nbsp;&nbsp;&nbsp;&nbsp;&nbsp;4</p><p style=""font-size:14px"">Not at all familiar&nbsp;&nbsp;&nbsp;&nbsp;A little familiar&nbsp;&nbsp;&nbsp;Moderately familiar&nbsp;&nbsp;&nbsp;Extremely familiar</p><p>(press the corresponding number on your keyboard)</p>","","51","","","FAM-RESPONSE","","","","","","","","","","","","","","","","","","","sounds/B/FAM/W004.mp3","word","","","","","","","","","","","","","","","","","","",""
"html-keyboard-response","264","1705716","0.0-7.0-1.0-0.8","2","1","r2yvrxfbmq9kn8s","","null","","","","null","","","","","","","","","","","","","","","","","","","","","","","","","","","","","","","","","","","","","","","","","",""
"audio-keyboard-response","265","1706667","0.0-7.0-1.0-1.8","2","1","r2yvrxfbmq9kn8s","","null","","sounds/B/FAM/N004.mp3","","null","","","","","","","","","","","","","","","","","","","","","","","","","","","","","","","","","","","","","","","","","",""
"html-keyboard-response","266","1708058","0.0-7.0-1.0-2.8","2","1","r2yvrxfbmq9kn8s","","879","","<p>How familiar did this sound to you?</p><p>1&nbsp;&nbsp;&nbsp;&nbsp;&nbsp;&nbsp;&nbsp;&nbsp;&nbsp;&nbsp;&nbsp;&nbsp;&nbsp;&nbsp;&nbsp;&nbsp;&nbsp;&nbsp;&nbsp;2&nbsp;&nbsp;&nbsp;&nbsp;&nbsp;&nbsp;&nbsp;&nbsp;&nbsp;&nbsp;&nbsp;&nbsp;&nbsp;&nbsp;&nbsp;&nbsp;&nbsp;&nbsp;&nbsp;3&nbsp;&nbsp;&nbsp;&nbsp;&nbsp;&nbsp;&nbsp;&nbsp;&nbsp;&nbsp;&nbsp;&nbsp;&nbsp;&nbsp;&nbsp;&nbsp;&nbsp;&nbsp;&nbsp;4</p><p style=""font-size:14px"">Not at all familiar&nbsp;&nbsp;&nbsp;&nbsp;A little familiar&nbsp;&nbsp;&nbsp;Moderately familiar&nbsp;&nbsp;&nbsp;Extremely familiar</p><p>(press the corresponding number on your keyboard)</p>","","50","","","FAM-RESPONSE","","","","","","","","","","","","","","","","","","","sounds/B/FAM/N004.mp3","nonword","","","","","","","","","","","","","","","","","","",""
"html-keyboard-response","267","1710067","0.0-7.0-1.0-0.9","2","1","r2yvrxfbmq9kn8s","","null","","","","null","","","","","","","","","","","","","","","","","","","","","","","","","","","","","","","","","","","","","","","","","",""
"audio-keyboard-response","268","1711027","0.0-7.0-1.0-1.9","2","1","r2yvrxfbmq9kn8s","","null","","sounds/B/FAM/W002.mp3","","null","","","","","","","","","","","","","","","","","","","","","","","","","","","","","","","","","","","","","","","","","",""
"html-keyboard-response","269","1711972","0.0-7.0-1.0-2.9","2","1","r2yvrxfbmq9kn8s","","444","","<p>How familiar did this sound to you?</p><p>1&nbsp;&nbsp;&nbsp;&nbsp;&nbsp;&nbsp;&nbsp;&nbsp;&nbsp;&nbsp;&nbsp;&nbsp;&nbsp;&nbsp;&nbsp;&nbsp;&nbsp;&nbsp;&nbsp;2&nbsp;&nbsp;&nbsp;&nbsp;&nbsp;&nbsp;&nbsp;&nbsp;&nbsp;&nbsp;&nbsp;&nbsp;&nbsp;&nbsp;&nbsp;&nbsp;&nbsp;&nbsp;&nbsp;3&nbsp;&nbsp;&nbsp;&nbsp;&nbsp;&nbsp;&nbsp;&nbsp;&nbsp;&nbsp;&nbsp;&nbsp;&nbsp;&nbsp;&nbsp;&nbsp;&nbsp;&nbsp;&nbsp;4</p><p style=""font-size:14px"">Not at all familiar&nbsp;&nbsp;&nbsp;&nbsp;A little familiar&nbsp;&nbsp;&nbsp;Moderately familiar&nbsp;&nbsp;&nbsp;Extremely familiar</p><p>(press the corresponding number on your keyboard)</p>","","52","","","FAM-RESPONSE","","","","","","","","","","","","","","","","","","","sounds/B/FAM/W002.mp3","word","","","","","","","","","","","","","","","","","","",""
"html-keyboard-response","270","1713981","0.0-7.0-1.0-0.10","2","1","r2yvrxfbmq9kn8s","","null","","","","null","","","","","","","","","","","","","","","","","","","","","","","","","","","","","","","","","","","","","","","","","",""
"audio-keyboard-response","271","1714936","0.0-7.0-1.0-1.10","2","1","r2yvrxfbmq9kn8s","","null","","sounds/B/FAM/N001.mp3","","null","","","","","","","","","","","","","","","","","","","","","","","","","","","","","","","","","","","","","","","","","",""
"html-keyboard-response","272","1718137","0.0-7.0-1.0-2.10","2","1","r2yvrxfbmq9kn8s","","2697","","<p>How familiar did this sound to you?</p><p>1&nbsp;&nbsp;&nbsp;&nbsp;&nbsp;&nbsp;&nbsp;&nbsp;&nbsp;&nbsp;&nbsp;&nbsp;&nbsp;&nbsp;&nbsp;&nbsp;&nbsp;&nbsp;&nbsp;2&nbsp;&nbsp;&nbsp;&nbsp;&nbsp;&nbsp;&nbsp;&nbsp;&nbsp;&nbsp;&nbsp;&nbsp;&nbsp;&nbsp;&nbsp;&nbsp;&nbsp;&nbsp;&nbsp;3&nbsp;&nbsp;&nbsp;&nbsp;&nbsp;&nbsp;&nbsp;&nbsp;&nbsp;&nbsp;&nbsp;&nbsp;&nbsp;&nbsp;&nbsp;&nbsp;&nbsp;&nbsp;&nbsp;4</p><p style=""font-size:14px"">Not at all familiar&nbsp;&nbsp;&nbsp;&nbsp;A little familiar&nbsp;&nbsp;&nbsp;Moderately familiar&nbsp;&nbsp;&nbsp;Extremely familiar</p><p>(press the corresponding number on your keyboard)</p>","","50","","","FAM-RESPONSE","","","","","","","","","","","","","","","","","","","sounds/B/FAM/N001.mp3","nonword","","","","","","","","","","","","","","","","","","",""
"html-keyboard-response","273","1720146","0.0-7.0-1.0-0.11","2","1","r2yvrxfbmq9kn8s","","null","","","","null","","","","","","","","","","","","","","","","","","","","","","","","","","","","","","","","","","","","","","","","","",""
"audio-keyboard-response","274","1721106","0.0-7.0-1.0-1.11","2","1","r2yvrxfbmq9kn8s","","null","","sounds/B/FAM/W003.mp3","","null","","","","","","","","","","","","","","","","","","","","","","","","","","","","","","","","","","","","","","","","","",""
"html-keyboard-response","275","1722623","0.0-7.0-1.0-2.11","2","1","r2yvrxfbmq9kn8s","","1012","","<p>How familiar did this sound to you?</p><p>1&nbsp;&nbsp;&nbsp;&nbsp;&nbsp;&nbsp;&nbsp;&nbsp;&nbsp;&nbsp;&nbsp;&nbsp;&nbsp;&nbsp;&nbsp;&nbsp;&nbsp;&nbsp;&nbsp;2&nbsp;&nbsp;&nbsp;&nbsp;&nbsp;&nbsp;&nbsp;&nbsp;&nbsp;&nbsp;&nbsp;&nbsp;&nbsp;&nbsp;&nbsp;&nbsp;&nbsp;&nbsp;&nbsp;3&nbsp;&nbsp;&nbsp;&nbsp;&nbsp;&nbsp;&nbsp;&nbsp;&nbsp;&nbsp;&nbsp;&nbsp;&nbsp;&nbsp;&nbsp;&nbsp;&nbsp;&nbsp;&nbsp;4</p><p style=""font-size:14px"">Not at all familiar&nbsp;&nbsp;&nbsp;&nbsp;A little familiar&nbsp;&nbsp;&nbsp;Moderately familiar&nbsp;&nbsp;&nbsp;Extremely familiar</p><p>(press the corresponding number on your keyboard)</p>","","52","","","FAM-RESPONSE","","","","","","","","","","","","","","","","","","","sounds/B/FAM/W003.mp3","word","","","","","","","","","","","","","","","","","","",""
"html-button-response","276","1729944","0.0-8.0-0.0","2","1","r2yvrxfbmq9kn8s","","6313","","<p>You will now listen to longer sound sequences.</p><p>Each sound sequence will last about 16 seconds.</p><p>On each trial, you will be given a <u>TARGET SOUND</u>. Your task is to listen very carefully for this sound.</p><p>Every time you hear the <u>TARGET SOUND</u>, you will press the <b>SPACEBAR</b> as quickly and accurately as you can.</p>","0","","","","","","","","","","","","","","","","","","","","","","","","","","","","","","","","","","","","","","","","","","",""
"html-button-response","277","1735815","0.0-8.0-1.0","2","1","r2yvrxfbmq9kn8s","","5621","","<p>It is very important that you make your responses as quickly and accurately as possible.</p><p>To help you make your responses, you will be able to listen to the <u>TARGET SOUND</u> at the beginning of each trial.</p><p>There will be 36 total trials.</p><p><b>Note: This is meant to be a difficult task. We simply want you to try your best.</p>","0","","","","","","","","","","","","","","","","","","","","","","","","","","","","","","","","","","","","","","","","","","",""
"html-button-response","278","1738781","0.0-8.0-2.0-0.0","2","1","r2yvrxfbmq9kn8s","","2705","","<p>Trial 1 of 36</p>","0","","","","","","","","","","","","","","","","","","","","","","","","","PU","sounds/syllables/pu_SWS.wav","900,2700,4500,9900","1","","","","","","","","","","","","","","",""
"html-keyboard-response","279","1741736","0.0-8.0-2.0-1.0","2","1","r2yvrxfbmq9kn8s","","2954","","","","80","","","","","","","","","","","","","","","","","","","","","","","","PU","","900,2700,4500,9900","1","","","","","","","","","","","","","","",""
"audio-keyboard-response","280","1742056","0.0-8.0-2.0-2.0-0.0","2","1","r2yvrxfbmq9kn8s","","null","","sounds/syllables/pu_SWS.wav","","null","","","","","","","","","","","","","","","","","","","","","","","","","","","","","","","","","","","","","","","","","",""
"html-keyboard-response","281","1743913","0.0-8.0-2.0-2.0-1.0","2","1","r2yvrxfbmq9kn8s","","1858","","<p>To replay the <u>TARGET SOUND</u>, press P.</p> When you are ready to begin, press SPACEBAR.","","80","","","","","","","","","","","","","","","","","","","","","","","","","","","","","","","","","","","","","","","","","",""
"audio-keyboard-response","282","1744736","0.0-8.0-2.0-2.1-0.1","2","1","r2yvrxfbmq9kn8s","","null","","sounds/syllables/pu_SWS.wav","","null","","","","","","","","","","","","","","","","","","","","","","","","","","","","","","","","","","","","","","","","","",""
"html-keyboard-response","283","1746497","0.0-8.0-2.0-2.1-1.1","2","1","r2yvrxfbmq9kn8s","","1760","","<p>To replay the <u>TARGET SOUND</u>, press P.</p> When you are ready to begin, press SPACEBAR.","","32","","","","","","","","","","","","","","","","","","","","","","","","","","","","","","","","","","","","","","","","","",""
"audio-keyboard-response","284","1761467","0.0-8.0-2.0-3.0","2","1","r2yvrxfbmq9kn8s","","1251","","sounds/B/TD/PU_07_TD.mp3","","32","","","TD_SUMMARY","","","","","","","","","","","","","","","","","","","","","PU","","900,2700,4500,9900","1","900","2700","4500","9900","356","1144","353","318","1256_3844_4853_5944_6625_7730_8627_10218_12025_12467","2","","","","",""
"html-button-response","285","1763507","0.0-8.0-2.0-0.1","2","1","r2yvrxfbmq9kn8s","","2040","","<p>Trial 2 of 36</p>","0","","","","","","","","","","","","","","","","","","","","","","","","","ME","sounds/syllables/me_SWS.wav","2100,3900,8400,12000","2","","","","","","","","","","","","","","",""
"html-keyboard-response","286","1764927","0.0-8.0-2.0-1.1","2","1","r2yvrxfbmq9kn8s","","1420","","","","80","","","","","","","","","","","","","","","","","","","","","","","","ME","","2100,3900,8400,12000","2","","","","","","","","","","","","","","",""
"audio-keyboard-response","287","1765237","0.0-8.0-2.0-2.2-0.2","2","1","r2yvrxfbmq9kn8s","","null","","sounds/syllables/me_SWS.wav","","null","","","","","","","","","","","","","","","","","","","","","","","","","","","","","","","","","","","","","","","","","",""
"html-keyboard-response","288","1766128","0.0-8.0-2.0-2.2-1.2","2","1","r2yvrxfbmq9kn8s","","892","","<p>To replay the <u>TARGET SOUND</u>, press P.</p> When you are ready to begin, press SPACEBAR.","","80","","","","","","","","","","","","","","","","","","","","","","","","","","","","","","","","","","","","","","","","","",""
"audio-keyboard-response","289","1766946","0.0-8.0-2.0-2.3-0.3","2","1","r2yvrxfbmq9kn8s","","null","","sounds/syllables/me_SWS.wav","","null","","","","","","","","","","","","","","","","","","","","","","","","","","","","","","","","","","","","","","","","","",""
"html-keyboard-response","290","1767654","0.0-8.0-2.0-2.3-1.3","2","1","r2yvrxfbmq9kn8s","","708","","<p>To replay the <u>TARGET SOUND</u>, press P.</p> When you are ready to begin, press SPACEBAR.","","32","","","","","","","","","","","","","","","","","","","","","","","","","","","","","","","","","","","","","","","","","",""
"audio-keyboard-response","291","1782606","0.0-8.0-2.0-3.1","2","1","r2yvrxfbmq9kn8s","","2200","","sounds/B/TD/ME_06_TD.mp3","","32","","","TD_SUMMARY","","","","","","","","","","","","","","","","","","","","","ME","","2100,3900,8400,12000","2","2100","3900","8400","12000","761","793","752","658","__________2201_2426_2654_2861_4050_4352_4499_4693_5336_6883_7365_7596_8487_8939_9152_9793_10105_11393_11709_12167_12391_12658_13796_14127","2","","","","",""
"html-button-response","292","1784256","0.0-8.0-2.0-0.2","2","1","r2yvrxfbmq9kn8s","","1649","","<p>Trial 3 of 36</p>","0","","","","","","","","","","","","","","","","","","","","","","","","","RU","sounds/syllables/ru_SWS.wav","3300,5100,10500,12300","3","","","","","","","","","","","","","","",""
"html-keyboard-response","293","1785353","0.0-8.0-2.0-1.2","2","1","r2yvrxfbmq9kn8s","","1097","","","","80","","","","","","","","","","","","","","","","","","","","","","","","RU","","3300,5100,10500,12300","3","","","","","","","","","","","","","","",""
"audio-keyboard-response","294","1785667","0.0-8.0-2.0-2.4-0.4","2","1","r2yvrxfbmq9kn8s","","null","","sounds/syllables/ru_SWS.wav","","null","","","","","","","","","","","","","","","","","","","","","","","","","","","","","","","","","","","","","","","","","",""
"html-keyboard-response","295","1786239","0.0-8.0-2.0-2.4-1.4","2","1","r2yvrxfbmq9kn8s","","572","","<p>To replay the <u>TARGET SOUND</u>, press P.</p> When you are ready to begin, press SPACEBAR.","","32","","","","","","","","","","","","","","","","","","","","","","","","","","","","","","","","","","","","","","","","","",""
"audio-keyboard-response","296","1801206","0.0-8.0-2.0-3.2","2","1","r2yvrxfbmq9kn8s","","539","","sounds/B/TD/RU_07_TD.mp3","","32","","","TD_SUMMARY","","","","","","","","","","","","","","","","","","","","","RU","","3300,5100,10500,12300","3","3300","5100","10500","12300","722","1161","null","344","__________________________________545_1403_2239_2624_3640_4022_4954_5443_6261_7795_8609_8899_12220_12644","1","","","","",""
"html-button-response","297","1803472","0.0-8.0-2.0-0.3","2","1","r2yvrxfbmq9kn8s","","2265","","<p>Trial 4 of 36</p>","0","","","","","","","","","","","","","","","","","","","","","","","","","SU","sounds/syllables/su_SWS.wav","1200,5700,8400,12000","2","","","","","","","","","","","","","","",""
"html-keyboard-response","298","1804624","0.0-8.0-2.0-1.3","2","1","r2yvrxfbmq9kn8s","","1153","","","","80","","","","","","","","","","","","","","","","","","","","","","","","SU","","1200,5700,8400,12000","2","","","","","","","","","","","","","","",""
"audio-keyboard-response","299","1804937","0.0-8.0-2.0-2.5-0.5","2","1","r2yvrxfbmq9kn8s","","null","","sounds/syllables/su_SWS.wav","","null","","","","","","","","","","","","","","","","","","","","","","","","","","","","","","","","","","","","","","","","","",""
"html-keyboard-response","300","1805614","0.0-8.0-2.0-2.5-1.5","2","1","r2yvrxfbmq9kn8s","","678","","<p>To replay the <u>TARGET SOUND</u>, press P.</p> When you are ready to begin, press SPACEBAR.","","32","","","","","","","","","","","","","","","","","","","","","","","","","","","","","","","","","","","","","","","","","",""
"audio-keyboard-response","301","1820576","0.0-8.0-2.0-3.3","2","1","r2yvrxfbmq9kn8s","","419","","sounds/B/TD/SU_01_TD.mp3","","32","","","TD_SUMMARY","","","","","","","","","","","","","","","","","","","","","SU","","1200,5700,8400,12000","2","1200","5700","8400","12000","546","486","319","356","________________________________________________416_1746_3447_6186_8719_10355_12356","1","","","","",""
"html-button-response","302","1821998","0.0-8.0-2.0-0.4","2","1","r2yvrxfbmq9kn8s","","1421","","<p>Trial 5 of 36</p>","0","","","","","","","","","","","","","","","","","","","","","","","","","PU","sounds/syllables/pu_SWS.wav","900,2700,5400,9900","1","","","","","","","","","","","","","","",""
"html-keyboard-response","303","1823159","0.0-8.0-2.0-1.4","2","1","r2yvrxfbmq9kn8s","","1161","","","","80","","","","","","","","","","","","","","","","","","","","","","","","PU","","900,2700,5400,9900","1","","","","","","","","","","","","","","",""
"audio-keyboard-response","304","1823467","0.0-8.0-2.0-2.6-0.6","2","1","r2yvrxfbmq9kn8s","","null","","sounds/syllables/pu_SWS.wav","","null","","","","","","","","","","","","","","","","","","","","","","","","","","","","","","","","","","","","","","","","","",""
"html-keyboard-response","305","1824289","0.0-8.0-2.0-2.6-1.6","2","1","r2yvrxfbmq9kn8s","","823","","<p>To replay the <u>TARGET SOUND</u>, press P.</p> When you are ready to begin, press SPACEBAR.","","32","","","","","","","","","","","","","","","","","","","","","","","","","","","","","","","","","","","","","","","","","",""
"audio-keyboard-response","306","1839257","0.0-8.0-2.0-3.4","2","1","r2yvrxfbmq9kn8s","","219","","sounds/B/TD/PU_02_TD.mp3","","32","","","TD_SUMMARY","","","","","","","","","","","","","","","","","","","","","PU","","900,2700,5400,9900","1","900","2700","5400","9900","406","944","367","657","_______________________________________________________223_1306_3157_3644_4368_5767_6604_8396_9290_10557_11280_12117_12986_13684_14358","1","","","","",""
"html-button-response","307","1842836","0.0-8.0-2.0-0.5","2","1","r2yvrxfbmq9kn8s","","3579","","<p>Trial 6 of 36</p>","0","","","","","","","","","","","","","","","","","","","","","","","","","KO","sounds/syllables/ko_SWS.wav","1200,5700,10200,12900","2","","","","","","","","","","","","","","",""
"html-keyboard-response","308","1843991","0.0-8.0-2.0-1.5","2","1","r2yvrxfbmq9kn8s","","1153","","","","80","","","","","","","","","","","","","","","","","","","","","","","","KO","","1200,5700,10200,12900","2","","","","","","","","","","","","","","",""
"audio-keyboard-response","309","1844307","0.0-8.0-2.0-2.7-0.7","2","1","r2yvrxfbmq9kn8s","","null","","sounds/syllables/ko_SWS.wav","","null","","","","","","","","","","","","","","","","","","","","","","","","","","","","","","","","","","","","","","","","","",""
"html-keyboard-response","310","1845132","0.0-8.0-2.0-2.7-1.7","2","1","r2yvrxfbmq9kn8s","","825","","<p>To replay the <u>TARGET SOUND</u>, press P.</p> When you are ready to begin, press SPACEBAR.","","80","","","","","","","","","","","","","","","","","","","","","","","","","","","","","","","","","","","","","","","","","",""
"audio-keyboard-response","311","1845946","0.0-8.0-2.0-2.8-0.8","2","1","r2yvrxfbmq9kn8s","","null","","sounds/syllables/ko_SWS.wav","","null","","","","","","","","","","","","","","","","","","","","","","","","","","","","","","","","","","","","","","","","","",""
"html-keyboard-response","312","1846403","0.0-8.0-2.0-2.8-1.8","2","1","r2yvrxfbmq9kn8s","","457","","<p>To replay the <u>TARGET SOUND</u>, press P.</p> When you are ready to begin, press SPACEBAR.","","32","","","","","","","","","","","","","","","","","","","","","","","","","","","","","","","","","","","","","","","","","",""
"audio-keyboard-response","313","1861357","0.0-8.0-2.0-3.5","2","1","r2yvrxfbmq9kn8s","","709","","sounds/B/TD/KO_02_TD.mp3","","32","","","TD_SUMMARY","","","","","","","","","","","","","","","","","","","","","KO","","1200,5700,10200,12900","2","1200","5700","10200","12900","null","485","416","null","______________________________________________________________________711_3170_4781_6185_10616","2","","","","",""
"html-button-response","314","1863892","0.0-8.0-2.0-0.6","2","1","r2yvrxfbmq9kn8s","","2535","","<p>Trial 7 of 36</p>","0","","","","","","","","","","","","","","","","","","","","","","","","","TI","sounds/syllables/ti_SWS.wav","900,3600,5400,9000","1","","","","","","","","","","","","","","",""
"html-keyboard-response","315","1865018","0.0-8.0-2.0-1.6","2","1","r2yvrxfbmq9kn8s","","1124","","","","80","","","","","","","","","","","","","","","","","","","","","","","","TI","","900,3600,5400,9000","1","","","","","","","","","","","","","","",""
"audio-keyboard-response","316","1865337","0.0-8.0-2.0-2.9-0.9","2","1","r2yvrxfbmq9kn8s","","null","","sounds/syllables/ti_SWS.wav","","null","","","","","","","","","","","","","","","","","","","","","","","","","","","","","","","","","","","","","","","","","",""
"html-keyboard-response","317","1866231","0.0-8.0-2.0-2.9-1.9","2","1","r2yvrxfbmq9kn8s","","895","","<p>To replay the <u>TARGET SOUND</u>, press P.</p> When you are ready to begin, press SPACEBAR.","","32","","","","","","","","","","","","","","","","","","","","","","","","","","","","","","","","","","","","","","","","","",""
