"trial_type","trial_index","time_elapsed","internal_node_id","counterbalance","lang_instruct","ParticipantID","view_history","rt","url","stimulus","button_pressed","key_press","correctRESP","correct","designation","location","correctanswer","responses","sentence","keywords","typed_resp","keyword1_acc","keyword2_acc","keyword3_acc","keyword4_acc","keyword5_acc","total_acc","prop_acc"
"pavlovia","0","6","0.0-0.0","1","1","xf8429shn4h8nms","","","","","","","","","","","","","","","","","","","","","",""
"instructions","1","6796","0.0-1.0","1","1","xf8429shn4h8nms","[{""page_index"":0,""viewing_time"":2307.900000035763},{""page_index"":1,""viewing_time"":4479.399999976158}]","6789.100000023842","","","","","","","","","","","","","","","","","","","",""
"external-html","2","20238","0.0-2.0","1","1","xf8429shn4h8nms","","13176.899999976158","consent/consent.html","","","","","","","","","","","","","","","","","","",""
"html-button-response","3","22626","0.0-3.0-0.0-0.0","1","1","xf8429shn4h8nms","","2385.800000011921","","<p>Welcome to the study. You will first complete a short volume calibration and headphone check.</p><p>Please make sure you are in a quiet listening environment, that you are wearing headphones, and that your computer's volume is turned on.<p></p>","0","","","","","","","","","","","","","","","","",""
"html-button-response","4","24697","0.0-3.0-0.0-1.0","1","1","xf8429shn4h8nms","","1817.800000011921","","<p>The volume calibration will be first.</p><p>You will hear a thirty-second noise. Please adjust your computer's volume so that this noise is being presented at a comfortable level.<p></p>","0","","","","","","","","","","","","","","","","",""
"audio-button-response","5","25909","0.0-3.0-0.0-2.0","1","1","xf8429shn4h8nms","","331","","audCalib/volumetest.mp3","0","","","","","","","","","","","","","","","","",""
"html-button-response","6","27337","0.0-3.0-1.0-0.0","1","1","xf8429shn4h8nms","","1426.3999999761581","","<p>You will now complete a short headphone check.</p><p>On each trial, you will hear three tones. One of these tones will be quieter than the others. Your task is to identify whether the quiet tone occured first, second, or third.</p><p>There are six trials in total.<p></p>","0","","","","","","","","","","","","","","","","",""
"html-keyboard-response","7","28090","0.0-3.0-1.0-1.0-0.0","1","1","xf8429shn4h8nms","","null","","<div style=""font-size:60px;"">+</div>","","null","","","","","","","","","","","","","","","",""
"audio-button-response","8","32468","0.0-3.0-1.0-1.0-1.0","1","1","xf8429shn4h8nms","","4377","","audCalib/t3_1.mp3","2","","2","1","headphone-test","","","","","","","","","","","","",""
"html-keyboard-response","9","33225","0.0-3.0-1.0-1.0-0.1","1","1","xf8429shn4h8nms","","null","","<div style=""font-size:60px;"">+</div>","","null","","","","","","","","","","","","","","","",""
"audio-button-response","10","37512","0.0-3.0-1.0-1.0-1.1","1","1","xf8429shn4h8nms","","4290","","audCalib/t1_1.mp3","0","","0","1","headphone-test","","","","","","","","","","","","",""
"html-keyboard-response","11","38268","0.0-3.0-1.0-1.0-0.2","1","1","xf8429shn4h8nms","","null","","<div style=""font-size:60px;"">+</div>","","null","","","","","","","","","","","","","","","",""
"audio-button-response","12","42857","0.0-3.0-1.0-1.0-1.2","1","1","xf8429shn4h8nms","","4586","","audCalib/t1_2.mp3","0","","0","1","headphone-test","","","","","","","","","","","","",""
"html-keyboard-response","13","43609","0.0-3.0-1.0-1.0-0.3","1","1","xf8429shn4h8nms","","null","","<div style=""font-size:60px;"">+</div>","","null","","","","","","","","","","","","","","","",""
"audio-button-response","14","48629","0.0-3.0-1.0-1.0-1.3","1","1","xf8429shn4h8nms","","5021","","audCalib/t3_2.mp3","2","","2","1","headphone-test","","","","","","","","","","","","",""
"html-keyboard-response","15","49387","0.0-3.0-1.0-1.0-0.4","1","1","xf8429shn4h8nms","","null","","<div style=""font-size:60px;"">+</div>","","null","","","","","","","","","","","","","","","",""
"audio-button-response","16","53797","0.0-3.0-1.0-1.0-1.4","1","1","xf8429shn4h8nms","","4406","","audCalib/t2_1.mp3","1","","1","1","headphone-test","","","","","","","","","","","","",""
"html-keyboard-response","17","54553","0.0-3.0-1.0-1.0-0.5","1","1","xf8429shn4h8nms","","null","","<div style=""font-size:60px;"">+</div>","","null","","","","","","","","","","","","","","","",""
"audio-button-response","18","58905","0.0-3.0-1.0-1.0-1.5","1","1","xf8429shn4h8nms","","4348","","audCalib/t2_2.mp3","1","","1","1","headphone-test","","","","","","","","","","","","",""
"html-button-response","19","61110","0.0-3.0-2.0","1","1","xf8429shn4h8nms","","1950.0999999642372","","<p>The volume calibration and headphone check are now complete.</p>","0","","","","","","","","","","","","","","","","",""
"instructions","20","77052","0.0-4.0-0.0","1","1","xf8429shn4h8nms","[{""page_index"":0,""viewing_time"":1314.7000000476837},{""page_index"":1,""viewing_time"":12521.699999988079},{""page_index"":2,""viewing_time"":2105.099999964237}]","15941.800000011921","","","","","","","","","","","","","","","","","","","",""
"audio-keyboard-response","21","77351","0.0-4.0-1.0-0.0","1","1","xf8429shn4h8nms","","null","","sounds/induction/left/ge_SWS.wav","","null","","","","","","","","","","","","","","","",""
"html-button-response","22","79795","0.0-4.0-1.0-1.0","1","1","xf8429shn4h8nms","","2442","","What sound did you hear?","0","","","0","INDUCTION-JUDGMENT","left","1","","","","","","","","","","",""
"html-keyboard-response","23","80800","0.0-4.0-1.0-2.0","1","1","xf8429shn4h8nms","","null","","<p style=""color:red;""><b>Incorrect!</b></p>","","null","","","","","","","","","","","","","","","",""
"audio-keyboard-response","24","81606","0.0-4.0-1.0-0.1","1","1","xf8429shn4h8nms","","null","","sounds/induction/left/re_SWS.wav","","null","","","","","","","","","","","","","","","",""
"html-button-response","25","83760","0.0-4.0-1.0-1.1","1","1","xf8429shn4h8nms","","2153.2000000476837","","What sound did you hear?","0","","","1","INDUCTION-JUDGMENT","left","0","","","","","","","","","","",""
"html-keyboard-response","26","84763","0.0-4.0-1.0-2.1","1","1","xf8429shn4h8nms","","null","","<p style=""color:green;""><b>Correct!</b></p>","","null","","","","","","","","","","","","","","","",""
"audio-keyboard-response","27","85565","0.0-4.0-1.0-0.2","1","1","xf8429shn4h8nms","","null","","sounds/induction/right/su_SWS.wav","","null","","","","","","","","","","","","","","","",""
"html-button-response","28","87380","0.0-4.0-1.0-1.2","1","1","xf8429shn4h8nms","","1813.5","","What sound did you hear?","1","","","1","INDUCTION-JUDGMENT","right","1","","","","","","","","","","",""
"html-keyboard-response","29","88384","0.0-4.0-1.0-2.2","1","1","xf8429shn4h8nms","","null","","<p style=""color:green;""><b>Correct!</b></p>","","null","","","","","","","","","","","","","","","",""
"audio-keyboard-response","30","89188","0.0-4.0-1.0-0.3","1","1","xf8429shn4h8nms","","null","","sounds/induction/right/me_SWS.wav","","null","","","","","","","","","","","","","","","",""
"html-button-response","31","90519","0.0-4.0-1.0-1.3","1","1","xf8429shn4h8nms","","1330.199999988079","","What sound did you hear?","0","","","1","INDUCTION-JUDGMENT","right","0","","","","","","","","","","",""
"html-keyboard-response","32","91523","0.0-4.0-1.0-2.3","1","1","xf8429shn4h8nms","","null","","<p style=""color:green;""><b>Correct!</b></p>","","null","","","","","","","","","","","","","","","",""
"audio-keyboard-response","33","92322","0.0-4.0-1.0-0.4","1","1","xf8429shn4h8nms","","null","","sounds/induction/left/ta_SWS.wav","","null","","","","","","","","","","","","","","","",""
"html-button-response","34","93899","0.0-4.0-1.0-1.4","1","1","xf8429shn4h8nms","","1574.1000000238419","","What sound did you hear?","0","","","1","INDUCTION-JUDGMENT","left","0","","","","","","","","","","",""
"html-keyboard-response","35","94902","0.0-4.0-1.0-2.4","1","1","xf8429shn4h8nms","","null","","<p style=""color:green;""><b>Correct!</b></p>","","null","","","","","","","","","","","","","","","",""
"audio-keyboard-response","36","95701","0.0-4.0-1.0-0.5","1","1","xf8429shn4h8nms","","null","","sounds/induction/left/ni_SWS.wav","","null","","","","","","","","","","","","","","","",""
"html-button-response","37","97117","0.0-4.0-1.0-1.5","1","1","xf8429shn4h8nms","","1415.300000011921","","What sound did you hear?","1","","","1","INDUCTION-JUDGMENT","left","1","","","","","","","","","","",""
"html-keyboard-response","38","98119","0.0-4.0-1.0-2.5","1","1","xf8429shn4h8nms","","null","","<p style=""color:green;""><b>Correct!</b></p>","","null","","","","","","","","","","","","","","","",""
"audio-keyboard-response","39","98923","0.0-4.0-1.0-0.6","1","1","xf8429shn4h8nms","","null","","sounds/induction/right/ti_SWS.wav","","null","","","","","","","","","","","","","","","",""
"html-button-response","40","100381","0.0-4.0-1.0-1.6","1","1","xf8429shn4h8nms","","1457.3999999761581","","What sound did you hear?","1","","","1","INDUCTION-JUDGMENT","right","1","","","","","","","","","","",""
"html-keyboard-response","41","101384","0.0-4.0-1.0-2.6","1","1","xf8429shn4h8nms","","null","","<p style=""color:green;""><b>Correct!</b></p>","","null","","","","","","","","","","","","","","","",""
"audio-keyboard-response","42","102185","0.0-4.0-1.0-0.7","1","1","xf8429shn4h8nms","","null","","sounds/induction/right/re_SWS.wav","","null","","","","","","","","","","","","","","","",""
"html-button-response","43","103241","0.0-4.0-1.0-1.7","1","1","xf8429shn4h8nms","","1054.6000000238419","","What sound did you hear?","1","","","1","INDUCTION-JUDGMENT","right","1","","","","","","","","","","",""
"html-keyboard-response","44","104244","0.0-4.0-1.0-2.7","1","1","xf8429shn4h8nms","","null","","<p style=""color:green;""><b>Correct!</b></p>","","null","","","","","","","","","","","","","","","",""
"audio-keyboard-response","45","105047","0.0-4.0-1.0-0.8","1","1","xf8429shn4h8nms","","null","","sounds/induction/right/ko_SWS.wav","","null","","","","","","","","","","","","","","","",""
"html-button-response","46","106726","0.0-4.0-1.0-1.8","1","1","xf8429shn4h8nms","","1677.5999999642372","","What sound did you hear?","0","","","1","INDUCTION-JUDGMENT","right","0","","","","","","","","","","",""
"html-keyboard-response","47","107728","0.0-4.0-1.0-2.8","1","1","xf8429shn4h8nms","","null","","<p style=""color:green;""><b>Correct!</b></p>","","null","","","","","","","","","","","","","","","",""
"audio-keyboard-response","48","108536","0.0-4.0-1.0-0.9","1","1","xf8429shn4h8nms","","null","","sounds/induction/left/su_SWS.wav","","null","","","","","","","","","","","","","","","",""
"html-button-response","49","110371","0.0-4.0-1.0-1.9","1","1","xf8429shn4h8nms","","1834.5","","What sound did you hear?","0","","","1","INDUCTION-JUDGMENT","left","0","","","","","","","","","","",""
"html-keyboard-response","50","111373","0.0-4.0-1.0-2.9","1","1","xf8429shn4h8nms","","null","","<p style=""color:green;""><b>Correct!</b></p>","","null","","","","","","","","","","","","","","","",""
"audio-keyboard-response","51","112176","0.0-4.0-1.0-0.10","1","1","xf8429shn4h8nms","","null","","sounds/induction/left/re_SWS.wav","","null","","","","","","","","","","","","","","","",""
"html-button-response","52","113135","0.0-4.0-1.0-1.10","1","1","xf8429shn4h8nms","","957.6999999880791","","What sound did you hear?","0","","","1","INDUCTION-JUDGMENT","left","0","","","","","","","","","","",""
"html-keyboard-response","53","114136","0.0-4.0-1.0-2.10","1","1","xf8429shn4h8nms","","null","","<p style=""color:green;""><b>Correct!</b></p>","","null","","","","","","","","","","","","","","","",""
"audio-keyboard-response","54","114939","0.0-4.0-1.0-0.11","1","1","xf8429shn4h8nms","","null","","sounds/induction/right/ru_SWS.wav","","null","","","","","","","","","","","","","","","",""
"html-button-response","55","115620","0.0-4.0-1.0-1.11","1","1","xf8429shn4h8nms","","680.0999999642372","","What sound did you hear?","1","","","1","INDUCTION-JUDGMENT","right","1","","","","","","","","","","",""
"html-keyboard-response","56","116622","0.0-4.0-1.0-2.11","1","1","xf8429shn4h8nms","","null","","<p style=""color:green;""><b>Correct!</b></p>","","null","","","","","","","","","","","","","","","",""
"audio-keyboard-response","57","117423","0.0-4.0-1.0-0.12","1","1","xf8429shn4h8nms","","null","","sounds/induction/left/ru_SWS.wav","","null","","","","","","","","","","","","","","","",""
"html-button-response","58","119189","0.0-4.0-1.0-1.12","1","1","xf8429shn4h8nms","","1764.7000000476837","","What sound did you hear?","0","","","1","INDUCTION-JUDGMENT","left","0","","","","","","","","","","",""
"html-keyboard-response","59","120194","0.0-4.0-1.0-2.12","1","1","xf8429shn4h8nms","","null","","<p style=""color:green;""><b>Correct!</b></p>","","null","","","","","","","","","","","","","","","",""
"audio-keyboard-response","60","120993","0.0-4.0-1.0-0.13","1","1","xf8429shn4h8nms","","null","","sounds/induction/right/pu_SWS.wav","","null","","","","","","","","","","","","","","","",""
"html-button-response","61","122538","0.0-4.0-1.0-1.13","1","1","xf8429shn4h8nms","","1543.5","","What sound did you hear?","1","","","1","INDUCTION-JUDGMENT","right","1","","","","","","","","","","",""
"html-keyboard-response","62","123544","0.0-4.0-1.0-2.13","1","1","xf8429shn4h8nms","","null","","<p style=""color:green;""><b>Correct!</b></p>","","null","","","","","","","","","","","","","","","",""
"audio-keyboard-response","63","124343","0.0-4.0-1.0-0.14","1","1","xf8429shn4h8nms","","null","","sounds/induction/left/ni_SWS.wav","","null","","","","","","","","","","","","","","","",""
"html-button-response","64","125629","0.0-4.0-1.0-1.14","1","1","xf8429shn4h8nms","","1285.1000000238419","","What sound did you hear?","1","","","1","INDUCTION-JUDGMENT","left","1","","","","","","","","","","",""
"html-keyboard-response","65","126635","0.0-4.0-1.0-2.14","1","1","xf8429shn4h8nms","","null","","<p style=""color:green;""><b>Correct!</b></p>","","null","","","","","","","","","","","","","","","",""
"audio-keyboard-response","66","127437","0.0-4.0-1.0-0.15","1","1","xf8429shn4h8nms","","null","","sounds/induction/right/fu_SWS.wav","","null","","","","","","","","","","","","","","","",""
"html-button-response","67","129591","0.0-4.0-1.0-1.15","1","1","xf8429shn4h8nms","","2153.2000000476837","","What sound did you hear?","0","","","1","INDUCTION-JUDGMENT","right","0","","","","","","","","","","",""
"html-keyboard-response","68","130595","0.0-4.0-1.0-2.15","1","1","xf8429shn4h8nms","","null","","<p style=""color:green;""><b>Correct!</b></p>","","null","","","","","","","","","","","","","","","",""
"audio-keyboard-response","69","131396","0.0-4.0-1.0-0.16","1","1","xf8429shn4h8nms","","null","","sounds/induction/left/ta_SWS.wav","","null","","","","","","","","","","","","","","","",""
"html-button-response","70","133052","0.0-4.0-1.0-1.16","1","1","xf8429shn4h8nms","","1653.5","","What sound did you hear?","1","","","0","INDUCTION-JUDGMENT","left","0","","","","","","","","","","",""
"html-keyboard-response","71","134055","0.0-4.0-1.0-2.16","1","1","xf8429shn4h8nms","","null","","<p style=""color:red;""><b>Incorrect!</b></p>","","null","","","","","","","","","","","","","","","",""
"audio-keyboard-response","72","134856","0.0-4.0-1.0-0.17","1","1","xf8429shn4h8nms","","null","","sounds/induction/left/fe_SWS.wav","","null","","","","","","","","","","","","","","","",""
"html-button-response","73","136345","0.0-4.0-1.0-1.17","1","1","xf8429shn4h8nms","","1487.5999999642372","","What sound did you hear?","1","","","1","INDUCTION-JUDGMENT","left","1","","","","","","","","","","",""
"html-keyboard-response","74","137351","0.0-4.0-1.0-2.17","1","1","xf8429shn4h8nms","","null","","<p style=""color:green;""><b>Correct!</b></p>","","null","","","","","","","","","","","","","","","",""
"audio-keyboard-response","75","138153","0.0-4.0-1.0-0.18","1","1","xf8429shn4h8nms","","null","","sounds/induction/right/fu_SWS.wav","","null","","","","","","","","","","","","","","","",""
"html-button-response","76","139228","0.0-4.0-1.0-1.18","1","1","xf8429shn4h8nms","","1073.5","","What sound did you hear?","0","","","1","INDUCTION-JUDGMENT","right","0","","","","","","","","","","",""
"html-keyboard-response","77","140232","0.0-4.0-1.0-2.18","1","1","xf8429shn4h8nms","","null","","<p style=""color:green;""><b>Correct!</b></p>","","null","","","","","","","","","","","","","","","",""
"audio-keyboard-response","78","141033","0.0-4.0-1.0-0.19","1","1","xf8429shn4h8nms","","null","","sounds/induction/right/ni_SWS.wav","","null","","","","","","","","","","","","","","","",""
"html-button-response","79","142316","0.0-4.0-1.0-1.19","1","1","xf8429shn4h8nms","","1281.7000000476837","","What sound did you hear?","0","","","1","INDUCTION-JUDGMENT","right","0","","","","","","","","","","",""
"html-keyboard-response","80","143320","0.0-4.0-1.0-2.19","1","1","xf8429shn4h8nms","","null","","<p style=""color:green;""><b>Correct!</b></p>","","null","","","","","","","","","","","","","","","",""
"audio-keyboard-response","81","144121","0.0-4.0-1.0-0.20","1","1","xf8429shn4h8nms","","null","","sounds/induction/right/ni_SWS.wav","","null","","","","","","","","","","","","","","","",""
"html-button-response","82","145103","0.0-4.0-1.0-1.20","1","1","xf8429shn4h8nms","","980.8999999761581","","What sound did you hear?","0","","","1","INDUCTION-JUDGMENT","right","0","","","","","","","","","","",""
"html-keyboard-response","83","146105","0.0-4.0-1.0-2.20","1","1","xf8429shn4h8nms","","null","","<p style=""color:green;""><b>Correct!</b></p>","","null","","","","","","","","","","","","","","","",""
"audio-keyboard-response","84","146907","0.0-4.0-1.0-0.21","1","1","xf8429shn4h8nms","","null","","sounds/induction/right/ko_SWS.wav","","null","","","","","","","","","","","","","","","",""
"html-button-response","85","148347","0.0-4.0-1.0-1.21","1","1","xf8429shn4h8nms","","1438.6000000238419","","What sound did you hear?","0","","","1","INDUCTION-JUDGMENT","right","0","","","","","","","","","","",""
"html-keyboard-response","86","149351","0.0-4.0-1.0-2.21","1","1","xf8429shn4h8nms","","null","","<p style=""color:green;""><b>Correct!</b></p>","","null","","","","","","","","","","","","","","","",""
"audio-keyboard-response","87","150152","0.0-4.0-1.0-0.22","1","1","xf8429shn4h8nms","","null","","sounds/induction/right/ta_SWS.wav","","null","","","","","","","","","","","","","","","",""
"html-button-response","88","151307","0.0-4.0-1.0-1.22","1","1","xf8429shn4h8nms","","1153.3999999761581","","What sound did you hear?","1","","","1","INDUCTION-JUDGMENT","right","1","","","","","","","","","","",""
"html-keyboard-response","89","152309","0.0-4.0-1.0-2.22","1","1","xf8429shn4h8nms","","null","","<p style=""color:green;""><b>Correct!</b></p>","","null","","","","","","","","","","","","","","","",""
"audio-keyboard-response","90","153113","0.0-4.0-1.0-0.23","1","1","xf8429shn4h8nms","","null","","sounds/induction/right/su_SWS.wav","","null","","","","","","","","","","","","","","","",""
"html-button-response","91","154550","0.0-4.0-1.0-1.23","1","1","xf8429shn4h8nms","","1436.199999988079","","What sound did you hear?","1","","","1","INDUCTION-JUDGMENT","right","1","","","","","","","","","","",""
"html-keyboard-response","92","155557","0.0-4.0-1.0-2.23","1","1","xf8429shn4h8nms","","null","","<p style=""color:green;""><b>Correct!</b></p>","","null","","","","","","","","","","","","","","","",""
"audio-keyboard-response","93","156364","0.0-4.0-1.0-0.24","1","1","xf8429shn4h8nms","","null","","sounds/induction/right/re_SWS.wav","","null","","","","","","","","","","","","","","","",""
"html-button-response","94","157346","0.0-4.0-1.0-1.24","1","1","xf8429shn4h8nms","","980.6000000238419","","What sound did you hear?","1","","","1","INDUCTION-JUDGMENT","right","1","","","","","","","","","","",""
"html-keyboard-response","95","158348","0.0-4.0-1.0-2.24","1","1","xf8429shn4h8nms","","null","","<p style=""color:green;""><b>Correct!</b></p>","","null","","","","","","","","","","","","","","","",""
"audio-keyboard-response","96","159150","0.0-4.0-1.0-0.25","1","1","xf8429shn4h8nms","","null","","sounds/induction/left/su_SWS.wav","","null","","","","","","","","","","","","","","","",""
"html-button-response","97","160244","0.0-4.0-1.0-1.25","1","1","xf8429shn4h8nms","","1092.8999999761581","","What sound did you hear?","0","","","1","INDUCTION-JUDGMENT","left","0","","","","","","","","","","",""
"html-keyboard-response","98","161246","0.0-4.0-1.0-2.25","1","1","xf8429shn4h8nms","","null","","<p style=""color:green;""><b>Correct!</b></p>","","null","","","","","","","","","","","","","","","",""
"audio-keyboard-response","99","162052","0.0-4.0-1.0-0.26","1","1","xf8429shn4h8nms","","null","","sounds/induction/left/ru_SWS.wav","","null","","","","","","","","","","","","","","","",""
"html-button-response","100","162907","0.0-4.0-1.0-1.26","1","1","xf8429shn4h8nms","","853.6999999880791","","What sound did you hear?","0","","","1","INDUCTION-JUDGMENT","left","0","","","","","","","","","","",""
"html-keyboard-response","101","163910","0.0-4.0-1.0-2.26","1","1","xf8429shn4h8nms","","null","","<p style=""color:green;""><b>Correct!</b></p>","","null","","","","","","","","","","","","","","","",""
"audio-keyboard-response","102","164717","0.0-4.0-1.0-0.27","1","1","xf8429shn4h8nms","","null","","sounds/induction/right/ru_SWS.wav","","null","","","","","","","","","","","","","","","",""
"html-button-response","103","165533","0.0-4.0-1.0-1.27","1","1","xf8429shn4h8nms","","815.1999999880791","","What sound did you hear?","1","","","1","INDUCTION-JUDGMENT","right","1","","","","","","","","","","",""
"html-keyboard-response","104","166535","0.0-4.0-1.0-2.27","1","1","xf8429shn4h8nms","","null","","<p style=""color:green;""><b>Correct!</b></p>","","null","","","","","","","","","","","","","","","",""
"audio-keyboard-response","105","167335","0.0-4.0-1.0-0.28","1","1","xf8429shn4h8nms","","null","","sounds/induction/right/fe_SWS.wav","","null","","","","","","","","","","","","","","","",""
"html-button-response","106","168517","0.0-4.0-1.0-1.28","1","1","xf8429shn4h8nms","","1180.6000000238419","","What sound did you hear?","0","","","1","INDUCTION-JUDGMENT","right","0","","","","","","","","","","",""
"html-keyboard-response","107","169519","0.0-4.0-1.0-2.28","1","1","xf8429shn4h8nms","","null","","<p style=""color:green;""><b>Correct!</b></p>","","null","","","","","","","","","","","","","","","",""
"audio-keyboard-response","108","170319","0.0-4.0-1.0-0.29","1","1","xf8429shn4h8nms","","null","","sounds/induction/left/ge_SWS.wav","","null","","","","","","","","","","","","","","","",""
"html-button-response","109","172274","0.0-4.0-1.0-1.29","1","1","xf8429shn4h8nms","","1954.199999988079","","What sound did you hear?","1","","","1","INDUCTION-JUDGMENT","left","1","","","","","","","","","","",""
"html-keyboard-response","110","173279","0.0-4.0-1.0-2.29","1","1","xf8429shn4h8nms","","null","","<p style=""color:green;""><b>Correct!</b></p>","","null","","","","","","","","","","","","","","","",""
"audio-keyboard-response","111","174086","0.0-4.0-1.0-0.30","1","1","xf8429shn4h8nms","","null","","sounds/induction/left/ko_SWS.wav","","null","","","","","","","","","","","","","","","",""
"html-button-response","112","175702","0.0-4.0-1.0-1.30","1","1","xf8429shn4h8nms","","1615.199999988079","","What sound did you hear?","1","","","1","INDUCTION-JUDGMENT","left","1","","","","","","","","","","",""
"html-keyboard-response","113","176704","0.0-4.0-1.0-2.30","1","1","xf8429shn4h8nms","","null","","<p style=""color:green;""><b>Correct!</b></p>","","null","","","","","","","","","","","","","","","",""
"audio-keyboard-response","114","177511","0.0-4.0-1.0-0.31","1","1","xf8429shn4h8nms","","null","","sounds/induction/right/ge_SWS.wav","","null","","","","","","","","","","","","","","","",""
"html-button-response","115","178545","0.0-4.0-1.0-1.31","1","1","xf8429shn4h8nms","","1032.800000011921","","What sound did you hear?","0","","","1","INDUCTION-JUDGMENT","right","0","","","","","","","","","","",""
"html-keyboard-response","116","179546","0.0-4.0-1.0-2.31","1","1","xf8429shn4h8nms","","null","","<p style=""color:green;""><b>Correct!</b></p>","","null","","","","","","","","","","","","","","","",""
"audio-keyboard-response","117","180344","0.0-4.0-1.0-0.32","1","1","xf8429shn4h8nms","","null","","sounds/induction/left/ti_SWS.wav","","null","","","","","","","","","","","","","","","",""
"html-button-response","118","181432","0.0-4.0-1.0-1.32","1","1","xf8429shn4h8nms","","1087","","What sound did you hear?","0","","","1","INDUCTION-JUDGMENT","left","0","","","","","","","","","","",""
"html-keyboard-response","119","182434","0.0-4.0-1.0-2.32","1","1","xf8429shn4h8nms","","null","","<p style=""color:green;""><b>Correct!</b></p>","","null","","","","","","","","","","","","","","","",""
"audio-keyboard-response","120","183235","0.0-4.0-1.0-0.33","1","1","xf8429shn4h8nms","","null","","sounds/induction/right/ta_SWS.wav","","null","","","","","","","","","","","","","","","",""
"html-button-response","121","184603","0.0-4.0-1.0-1.33","1","1","xf8429shn4h8nms","","1367.4000000357628","","What sound did you hear?","0","","","0","INDUCTION-JUDGMENT","right","1","","","","","","","","","","",""
"html-keyboard-response","122","185606","0.0-4.0-1.0-2.33","1","1","xf8429shn4h8nms","","null","","<p style=""color:red;""><b>Incorrect!</b></p>","","null","","","","","","","","","","","","","","","",""
"audio-keyboard-response","123","186410","0.0-4.0-1.0-0.34","1","1","xf8429shn4h8nms","","null","","sounds/induction/left/pu_SWS.wav","","null","","","","","","","","","","","","","","","",""
"html-button-response","124","188528","0.0-4.0-1.0-1.34","1","1","xf8429shn4h8nms","","2116.300000011921","","What sound did you hear?","0","","","1","INDUCTION-JUDGMENT","left","0","","","","","","","","","","",""
"html-keyboard-response","125","189529","0.0-4.0-1.0-2.34","1","1","xf8429shn4h8nms","","null","","<p style=""color:green;""><b>Correct!</b></p>","","null","","","","","","","","","","","","","","","",""
"audio-keyboard-response","126","190335","0.0-4.0-1.0-0.35","1","1","xf8429shn4h8nms","","null","","sounds/induction/right/me_SWS.wav","","null","","","","","","","","","","","","","","","",""
"html-button-response","127","191146","0.0-4.0-1.0-1.35","1","1","xf8429shn4h8nms","","810.2000000476837","","What sound did you hear?","0","","","1","INDUCTION-JUDGMENT","right","0","","","","","","","","","","",""
"html-keyboard-response","128","192148","0.0-4.0-1.0-2.35","1","1","xf8429shn4h8nms","","null","","<p style=""color:green;""><b>Correct!</b></p>","","null","","","","","","","","","","","","","","","",""
"audio-keyboard-response","129","192953","0.0-4.0-1.0-0.36","1","1","xf8429shn4h8nms","","null","","sounds/induction/left/me_SWS.wav","","null","","","","","","","","","","","","","","","",""
"html-button-response","130","193936","0.0-4.0-1.0-1.36","1","1","xf8429shn4h8nms","","982.1999999880791","","What sound did you hear?","1","","","1","INDUCTION-JUDGMENT","left","1","","","","","","","","","","",""
"html-keyboard-response","131","194938","0.0-4.0-1.0-2.36","1","1","xf8429shn4h8nms","","null","","<p style=""color:green;""><b>Correct!</b></p>","","null","","","","","","","","","","","","","","","",""
"audio-keyboard-response","132","195739","0.0-4.0-1.0-0.37","1","1","xf8429shn4h8nms","","null","","sounds/induction/left/me_SWS.wav","","null","","","","","","","","","","","","","","","",""
"html-button-response","133","196554","0.0-4.0-1.0-1.37","1","1","xf8429shn4h8nms","","813.8000000119209","","What sound did you hear?","1","","","1","INDUCTION-JUDGMENT","left","1","","","","","","","","","","",""
"html-keyboard-response","134","197556","0.0-4.0-1.0-2.37","1","1","xf8429shn4h8nms","","null","","<p style=""color:green;""><b>Correct!</b></p>","","null","","","","","","","","","","","","","","","",""
"audio-keyboard-response","135","198357","0.0-4.0-1.0-0.38","1","1","xf8429shn4h8nms","","null","","sounds/induction/left/ko_SWS.wav","","null","","","","","","","","","","","","","","","",""
"html-button-response","136","199633","0.0-4.0-1.0-1.38","1","1","xf8429shn4h8nms","","1274.5999999642372","","What sound did you hear?","1","","","1","INDUCTION-JUDGMENT","left","1","","","","","","","","","","",""
"html-keyboard-response","137","200638","0.0-4.0-1.0-2.38","1","1","xf8429shn4h8nms","","null","","<p style=""color:green;""><b>Correct!</b></p>","","null","","","","","","","","","","","","","","","",""
"audio-keyboard-response","138","201440","0.0-4.0-1.0-0.39","1","1","xf8429shn4h8nms","","null","","sounds/induction/left/fu_SWS.wav","","null","","","","","","","","","","","","","","","",""
"html-button-response","139","202852","0.0-4.0-1.0-1.39","1","1","xf8429shn4h8nms","","1411.5999999642372","","What sound did you hear?","1","","","1","INDUCTION-JUDGMENT","left","1","","","","","","","","","","",""
"html-keyboard-response","140","203853","0.0-4.0-1.0-2.39","1","1","xf8429shn4h8nms","","null","","<p style=""color:green;""><b>Correct!</b></p>","","null","","","","","","","","","","","","","","","",""
"audio-keyboard-response","141","204656","0.0-4.0-1.0-0.40","1","1","xf8429shn4h8nms","","null","","sounds/induction/left/pu_SWS.wav","","null","","","","","","","","","","","","","","","",""
"html-button-response","142","206336","0.0-4.0-1.0-1.40","1","1","xf8429shn4h8nms","","1678.9000000357628","","What sound did you hear?","0","","","1","INDUCTION-JUDGMENT","left","0","","","","","","","","","","",""
"html-keyboard-response","143","207337","0.0-4.0-1.0-2.40","1","1","xf8429shn4h8nms","","null","","<p style=""color:green;""><b>Correct!</b></p>","","null","","","","","","","","","","","","","","","",""
"audio-keyboard-response","144","208138","0.0-4.0-1.0-0.41","1","1","xf8429shn4h8nms","","null","","sounds/induction/right/fe_SWS.wav","","null","","","","","","","","","","","","","","","",""
"html-button-response","145","209054","0.0-4.0-1.0-1.41","1","1","xf8429shn4h8nms","","913.8000000119209","","What sound did you hear?","0","","","1","INDUCTION-JUDGMENT","right","0","","","","","","","","","","",""
"html-keyboard-response","146","210059","0.0-4.0-1.0-2.41","1","1","xf8429shn4h8nms","","null","","<p style=""color:green;""><b>Correct!</b></p>","","null","","","","","","","","","","","","","","","",""
"audio-keyboard-response","147","210861","0.0-4.0-1.0-0.42","1","1","xf8429shn4h8nms","","null","","sounds/induction/left/ti_SWS.wav","","null","","","","","","","","","","","","","","","",""
"html-button-response","148","211733","0.0-4.0-1.0-1.42","1","1","xf8429shn4h8nms","","870.5","","What sound did you hear?","0","","","1","INDUCTION-JUDGMENT","left","0","","","","","","","","","","",""
"html-keyboard-response","149","212736","0.0-4.0-1.0-2.42","1","1","xf8429shn4h8nms","","null","","<p style=""color:green;""><b>Correct!</b></p>","","null","","","","","","","","","","","","","","","",""
"audio-keyboard-response","150","213543","0.0-4.0-1.0-0.43","1","1","xf8429shn4h8nms","","null","","sounds/induction/right/pu_SWS.wav","","null","","","","","","","","","","","","","","","",""
"html-button-response","151","215165","0.0-4.0-1.0-1.43","1","1","xf8429shn4h8nms","","1620.800000011921","","What sound did you hear?","0","","","0","INDUCTION-JUDGMENT","right","1","","","","","","","","","","",""
"html-keyboard-response","152","216172","0.0-4.0-1.0-2.43","1","1","xf8429shn4h8nms","","null","","<p style=""color:red;""><b>Incorrect!</b></p>","","null","","","","","","","","","","","","","","","",""
"audio-keyboard-response","153","216974","0.0-4.0-1.0-0.44","1","1","xf8429shn4h8nms","","null","","sounds/induction/right/ti_SWS.wav","","null","","","","","","","","","","","","","","","",""
"html-button-response","154","218189","0.0-4.0-1.0-1.44","1","1","xf8429shn4h8nms","","1214","","What sound did you hear?","1","","","1","INDUCTION-JUDGMENT","right","1","","","","","","","","","","",""
"html-keyboard-response","155","219195","0.0-4.0-1.0-2.44","1","1","xf8429shn4h8nms","","null","","<p style=""color:green;""><b>Correct!</b></p>","","null","","","","","","","","","","","","","","","",""
"audio-keyboard-response","156","219998","0.0-4.0-1.0-0.45","1","1","xf8429shn4h8nms","","null","","sounds/induction/left/fu_SWS.wav","","null","","","","","","","","","","","","","","","",""
"html-button-response","157","221024","0.0-4.0-1.0-1.45","1","1","xf8429shn4h8nms","","1024.0999999642372","","What sound did you hear?","1","","","1","INDUCTION-JUDGMENT","left","1","","","","","","","","","","",""
"html-keyboard-response","158","222025","0.0-4.0-1.0-2.45","1","1","xf8429shn4h8nms","","null","","<p style=""color:green;""><b>Correct!</b></p>","","null","","","","","","","","","","","","","","","",""
"audio-keyboard-response","159","222825","0.0-4.0-1.0-0.46","1","1","xf8429shn4h8nms","","null","","sounds/induction/left/fe_SWS.wav","","null","","","","","","","","","","","","","","","",""
"html-button-response","160","223831","0.0-4.0-1.0-1.46","1","1","xf8429shn4h8nms","","1004","","What sound did you hear?","1","","","1","INDUCTION-JUDGMENT","left","1","","","","","","","","","","",""
"html-keyboard-response","161","224832","0.0-4.0-1.0-2.46","1","1","xf8429shn4h8nms","","null","","<p style=""color:green;""><b>Correct!</b></p>","","null","","","","","","","","","","","","","","","",""
"audio-keyboard-response","162","225635","0.0-4.0-1.0-0.47","1","1","xf8429shn4h8nms","","null","","sounds/induction/right/ge_SWS.wav","","null","","","","","","","","","","","","","","","",""
"html-button-response","163","226530","0.0-4.0-1.0-1.47","1","1","xf8429shn4h8nms","","892.9000000357628","","What sound did you hear?","0","","","1","INDUCTION-JUDGMENT","right","0","","","","","","","","","","",""
"html-keyboard-response","164","227533","0.0-4.0-1.0-2.47","1","1","xf8429shn4h8nms","","null","","<p style=""color:green;""><b>Correct!</b></p>","","null","","","","","","","","","","","","","","","",""
"html-button-response","165","233212","0.0-5.0-0.0","1","1","xf8429shn4h8nms","","5174.799999952316","","<p>Thank you for your answers.</p><p>You will now listen to similar sounds. The main difference is that the sounds will be longer and will make up complete sentences.</p><p>Please listen carefully to each sentence. After each sentence, you will be asked to type back what you heard to the best of your ability. After you provide your response, you will be given feedback about the correct answer.</p><p>There are 10 sentences in total.","0","","","","","","","","","","","","","","","","",""
"audio-keyboard-response","166","235956","0.0-5.0-1.0-0.0","1","1","xf8429shn4h8nms","","null","","sounds/sentences/right/14_06_cfSWS.wav","","null","","","","","","","","","","","","","","","",""
"sentence-resp","167","253060","0.0-5.0-1.0-1.0","1","1","xf8429shn4h8nms","","17102","","","","","","","SWS-SENT-RESPONSE","","","{""Q0"":""we who huh eh""}","Bring your problems to the wise chief.","bring,your,problems,wise,chief","WE WHO HUH EH","0","0","0","0","0","0","0"
"html-keyboard-response","168","254314","0.0-5.0-1.0-2.0","1","1","xf8429shn4h8nms","","null","","","","null","","","","","","","","","","","","","","","",""
"audio-keyboard-response","169","256558","0.0-5.0-1.0-3.0","1","1","xf8429shn4h8nms","","null","","sounds/sentences/right/14_06_cfSWS.wav","","null","","","","","","","","","","","","","","","",""
"html-keyboard-response","170","257563","0.0-5.0-1.0-4.0","1","1","xf8429shn4h8nms","","null","","","","null","","","","","","","","","","","","","","","",""
"html-button-response","171","259683","0.0-5.0-1.0-5.0","1","1","xf8429shn4h8nms","","1619.699999988079","","<p>Press the button below when you are ready to continue.</p>","0","","","","","","","","","","","","","","","","",""
"audio-keyboard-response","172","262265","0.0-5.0-1.0-0.1","1","1","xf8429shn4h8nms","","null","","sounds/sentences/left/14_03_cfSWS.wav","","null","","","","","","","","","","","","","","","",""
"sentence-resp","173","271916","0.0-5.0-1.0-1.1","1","1","xf8429shn4h8nms","","9649","","","","","","","SWS-SENT-RESPONSE","","","{""Q0"":""I dont know who""}","Pluck the bright rose without leaves.","pluck,bright,rose,without,leaves","I DONT KNOW WHO","0","0","0","0","0","0","0"
"html-keyboard-response","174","273173","0.0-5.0-1.0-2.1","1","1","xf8429shn4h8nms","","null","","","","null","","","","","","","","","","","","","","","",""
"audio-keyboard-response","175","275257","0.0-5.0-1.0-3.1","1","1","xf8429shn4h8nms","","null","","sounds/sentences/left/14_03_cfSWS.wav","","null","","","","","","","","","","","","","","","",""
"html-keyboard-response","176","276263","0.0-5.0-1.0-4.1","1","1","xf8429shn4h8nms","","null","","","","null","","","","","","","","","","","","","","","",""
"html-button-response","177","278951","0.0-5.0-1.0-5.1","1","1","xf8429shn4h8nms","","2182.699999988079","","<p>Press the button below when you are ready to continue.</p>","0","","","","","","","","","","","","","","","","",""
"audio-keyboard-response","178","281770","0.0-5.0-1.0-0.2","1","1","xf8429shn4h8nms","","null","","sounds/sentences/left/14_02_cfSWS.wav","","null","","","","","","","","","","","","","","","",""
"sentence-resp","179","288559","0.0-5.0-1.0-1.2","1","1","xf8429shn4h8nms","","6787","","","","","","","SWS-SENT-RESPONSE","","","{""Q0"":""I went thrity times""}","He said the same phrase thirty times.","said,same,phrase,thirty,times","I WENT THRITY TIMES","0","0","0","0","1","1","0.2"
"html-keyboard-response","180","289815","0.0-5.0-1.0-2.2","1","1","xf8429shn4h8nms","","null","","","","null","","","","","","","","","","","","","","","",""
"audio-keyboard-response","181","292132","0.0-5.0-1.0-3.2","1","1","xf8429shn4h8nms","","null","","sounds/sentences/left/14_02_cfSWS.wav","","null","","","","","","","","","","","","","","","",""
"html-keyboard-response","182","293136","0.0-5.0-1.0-4.2","1","1","xf8429shn4h8nms","","null","","","","null","","","","","","","","","","","","","","","",""
"html-button-response","183","294652","0.0-5.0-1.0-5.2","1","1","xf8429shn4h8nms","","1012.3999999761581","","<p>Press the button below when you are ready to continue.</p>","0","","","","","","","","","","","","","","","","",""
"audio-keyboard-response","184","297646","0.0-5.0-1.0-0.3","1","1","xf8429shn4h8nms","","null","","sounds/sentences/left/14_05_cfSWS.wav","","null","","","","","","","","","","","","","","","",""
"sentence-resp","185","305411","0.0-5.0-1.0-1.3","1","1","xf8429shn4h8nms","","7762","","","","","","","SWS-SENT-RESPONSE","","","{""Q0"":""I think she is a sweet girl""}","The glow deepened in the eyes of the sweet girl.","glow,deepened,eyes,sweet,girl","I THINK SHE IS A SWEET GIRL","0","0","0","1","1","2","0.4"
"html-keyboard-response","186","306663","0.0-5.0-1.0-2.3","1","1","xf8429shn4h8nms","","null","","","","null","","","","","","","","","","","","","","","",""
"audio-keyboard-response","187","309152","0.0-5.0-1.0-3.3","1","1","xf8429shn4h8nms","","null","","sounds/sentences/left/14_05_cfSWS.wav","","null","","","","","","","","","","","","","","","",""
"html-keyboard-response","188","310155","0.0-5.0-1.0-4.3","1","1","xf8429shn4h8nms","","null","","","","null","","","","","","","","","","","","","","","",""
"html-button-response","189","311547","0.0-5.0-1.0-5.3","1","1","xf8429shn4h8nms","","890.7999999523163","","<p>Press the button below when you are ready to continue.</p>","0","","","","","","","","","","","","","","","","",""
"audio-keyboard-response","190","314104","0.0-5.0-1.0-0.4","1","1","xf8429shn4h8nms","","null","","sounds/sentences/left/14_04_cfSWS.wav","","null","","","","","","","","","","","","","","","",""
"sentence-resp","191","325760","0.0-5.0-1.0-1.4","1","1","xf8429shn4h8nms","","11654","","","","","","","SWS-SENT-RESPONSE","","","{""Q0"":""your eyes are less than ten""}","Two plus seven is less than ten.","two,plus,seven,less,ten","YOUR EYES ARE LESS THAN TEN","0","0","0","1","1","2","0.4"
"html-keyboard-response","192","327019","0.0-5.0-1.0-2.4","1","1","xf8429shn4h8nms","","null","","","","null","","","","","","","","","","","","","","","",""
"audio-keyboard-response","193","329069","0.0-5.0-1.0-3.4","1","1","xf8429shn4h8nms","","null","","sounds/sentences/left/14_04_cfSWS.wav","","null","","","","","","","","","","","","","","","",""
"html-keyboard-response","194","330070","0.0-5.0-1.0-4.4","1","1","xf8429shn4h8nms","","null","","","","null","","","","","","","","","","","","","","","",""
"html-button-response","195","331196","0.0-5.0-1.0-5.4","1","1","xf8429shn4h8nms","","625","","<p>Press the button below when you are ready to continue.</p>","0","","","","","","","","","","","","","","","","",""
"audio-keyboard-response","196","333922","0.0-5.0-1.0-0.5","1","1","xf8429shn4h8nms","","null","","sounds/sentences/right/14_09_cfSWS.wav","","null","","","","","","","","","","","","","","","",""
"sentence-resp","197","341865","0.0-5.0-1.0-1.5","1","1","xf8429shn4h8nms","","7942","","","","","","","SWS-SENT-RESPONSE","","","{""Q0"":""we are from jacob""}","We frown when events take a bad turn.","frown,events,take,bad,turn","WE ARE FROM JACOB","0","0","0","0","0","0","0"
"html-keyboard-response","198","343123","0.0-5.0-1.0-2.5","1","1","xf8429shn4h8nms","","null","","","","null","","","","","","","","","","","","","","","",""
"audio-keyboard-response","199","345352","0.0-5.0-1.0-3.5","1","1","xf8429shn4h8nms","","null","","sounds/sentences/right/14_09_cfSWS.wav","","null","","","","","","","","","","","","","","","",""
"html-keyboard-response","200","346358","0.0-5.0-1.0-4.5","1","1","xf8429shn4h8nms","","null","","","","null","","","","","","","","","","","","","","","",""
"html-button-response","201","347510","0.0-5.0-1.0-5.5","1","1","xf8429shn4h8nms","","648","","<p>Press the button below when you are ready to continue.</p>","0","","","","","","","","","","","","","","","","",""
"audio-keyboard-response","202","350629","0.0-5.0-1.0-0.6","1","1","xf8429shn4h8nms","","null","","sounds/sentences/left/14_01_cfSWS.wav","","null","","","","","","","","","","","","","","","",""
"sentence-resp","203","362428","0.0-5.0-1.0-1.6","1","1","xf8429shn4h8nms","","11798","","","","","","","SWS-SENT-RESPONSE","","","{""Q0"":""I had a small teacher learn how to swim""}","A cramp is no small danger on a swim.","cramp,no,small,danger,swim","I HAD A SMALL TEACHER LEARN HOW TO SWIM","0","0","1","0","1","2","0.4"
"html-keyboard-response","204","363682","0.0-5.0-1.0-2.6","1","1","xf8429shn4h8nms","","null","","","","null","","","","","","","","","","","","","","","",""
"audio-keyboard-response","205","366297","0.0-5.0-1.0-3.6","1","1","xf8429shn4h8nms","","null","","sounds/sentences/left/14_01_cfSWS.wav","","null","","","","","","","","","","","","","","","",""
"html-keyboard-response","206","367301","0.0-5.0-1.0-4.6","1","1","xf8429shn4h8nms","","null","","","","null","","","","","","","","","","","","","","","",""
"html-button-response","207","368708","0.0-5.0-1.0-5.6","1","1","xf8429shn4h8nms","","901.5","","<p>Press the button below when you are ready to continue.</p>","0","","","","","","","","","","","","","","","","",""
"audio-keyboard-response","208","371725","0.0-5.0-1.0-0.7","1","1","xf8429shn4h8nms","","null","","sounds/sentences/right/14_10_cfSWS.wav","","null","","","","","","","","","","","","","","","",""
"sentence-resp","209","381270","0.0-5.0-1.0-1.7","1","1","xf8429shn4h8nms","","9543","","","","","","","SWS-SENT-RESPONSE","","","{""Q0"":""strong wine with a smokey taste ""}","Port is a strong wine with a smoky taste.","port,strong,wine,smoky,taste","STRONG WINE WITH A SMOKEY TASTE ","0","1","1","0","1","3","0.6"
"html-keyboard-response","210","382525","0.0-5.0-1.0-2.7","1","1","xf8429shn4h8nms","","null","","","","null","","","","","","","","","","","","","","","",""
"audio-keyboard-response","211","385041","0.0-5.0-1.0-3.7","1","1","xf8429shn4h8nms","","null","","sounds/sentences/right/14_10_cfSWS.wav","","null","","","","","","","","","","","","","","","",""
"html-keyboard-response","212","386045","0.0-5.0-1.0-4.7","1","1","xf8429shn4h8nms","","null","","","","null","","","","","","","","","","","","","","","",""
"html-button-response","213","387237","0.0-5.0-1.0-5.7","1","1","xf8429shn4h8nms","","689.1999999880791","","<p>Press the button below when you are ready to continue.</p>","0","","","","","","","","","","","","","","","","",""
"audio-keyboard-response","214","390132","0.0-5.0-1.0-0.8","1","1","xf8429shn4h8nms","","null","","sounds/sentences/right/14_07_cfSWS.wav","","null","","","","","","","","","","","","","","","",""
"sentence-resp","215","398333","0.0-5.0-1.0-1.8","1","1","xf8429shn4h8nms","","8200","","","","","","","SWS-SENT-RESPONSE","","","{""Q0"":""friends you cherish""}","Write a fond note to the friend you cherish.","write,fond,note,friend,cherish","FRIENDS YOU CHERISH","0","0","0","0","1","1","0.2"
"html-keyboard-response","216","399586","0.0-5.0-1.0-2.8","1","1","xf8429shn4h8nms","","null","","","","null","","","","","","","","","","","","","","","",""
"audio-keyboard-response","217","401975","0.0-5.0-1.0-3.8","1","1","xf8429shn4h8nms","","null","","sounds/sentences/right/14_07_cfSWS.wav","","null","","","","","","","","","","","","","","","",""
"html-keyboard-response","218","402976","0.0-5.0-1.0-4.8","1","1","xf8429shn4h8nms","","null","","","","null","","","","","","","","","","","","","","","",""
"html-button-response","219","404309","0.0-5.0-1.0-5.8","1","1","xf8429shn4h8nms","","828.3999999761581","","<p>Press the button below when you are ready to continue.</p>","0","","","","","","","","","","","","","","","","",""
"audio-keyboard-response","220","407071","0.0-5.0-1.0-0.9","1","1","xf8429shn4h8nms","","null","","sounds/sentences/right/14_08_cfSWS.wav","","null","","","","","","","","","","","","","","","",""
"sentence-resp","221","425246","0.0-5.0-1.0-1.9","1","1","xf8429shn4h8nms","","18173","","","","","","","SWS-SENT-RESPONSE","","","{""Q0"":""no clue""}","Clothes and lodging are free to new men.","clothes,lodging,free,new,men","NO CLUE","0","0","0","0","0","0","0"
"html-keyboard-response","222","426501","0.0-5.0-1.0-2.9","1","1","xf8429shn4h8nms","","null","","","","null","","","","","","","","","","","","","","","",""
"audio-keyboard-response","223","428759","0.0-5.0-1.0-3.9","1","1","xf8429shn4h8nms","","null","","sounds/sentences/right/14_08_cfSWS.wav","","null","","","","","","","","","","","","","","","",""
"html-keyboard-response","224","429762","0.0-5.0-1.0-4.9","1","1","xf8429shn4h8nms","","null","","","","null","","","","","","","","","","","","","","","",""
"html-button-response","225","430930","0.0-5.0-1.0-5.9","1","1","xf8429shn4h8nms","","661.7000000476837","","<p>Press the button below when you are ready to continue.</p>","0","","","","","","","","","","","","","","","","",""
"html-keyboard-response","226","432910","0.0-6.0-0.0","1","1","xf8429shn4h8nms","","1474","","<p>In this part of the study, you will hear sounds similar to those you just heard.</p><p>Please focus on these sounds, as you may be asked questions about them later.</p><p>Occasionally, the sounds will pause for up to two seconds. When this happens, please press SPACEBAR as quickly as you can.</br>This helps ensure that you are paying attention to the sounds.</p><p>This part of the study will take about 12 minutes to complete, and you will be given the opportunity to take a couple of short breaks every few minutes.</p><p><strong>Press SPACEBAR to begin</strong></p>","","32","","","","","","","","","","","","","","","",""
"html-keyboard-response","227","433914","0.0-6.0-1.0-0.0","1","1","xf8429shn4h8nms","","null","","<p style=""font-size: 40px;"">+</p>","","null","","","","","","","","","","","","","","","",""
