"trial_type","trial_index","time_elapsed","internal_node_id","counterbalance","lang_instruct","ParticipantID","view_history","rt","url","stimulus","button_pressed","key_press","correctRESP","correct","designation","location","correctanswer","responses","sentence","keywords","typed_resp","keyword1_acc","keyword2_acc","keyword3_acc","keyword4_acc","keyword5_acc","total_acc","prop_acc","timeouts","pause_rt01","pause_rt02","train_file","numKeyPress","sound","fam_type","SYLLABLE","EXEMPLAR","TD_LOCS","TD_TYPE","TDLOC_01","TDLOC_02","TDLOC_03","TDLOC_04","TD_RT_01","TD_RT_02","TD_RT_03","TD_RT_04","TD_SUBJ_RTs","number_of_plays","slider_start","response","question_order","syllable","syllable_type"
"pavlovia","0","5","0.0-0.0","2","1","n6ly78yooxf6kf7","","","","","","","","","","","","","","","","","","","","","","","","","","","","","","","","","","","","","","","","","","","","","","","",""
"instructions","1","55543","0.0-1.0","2","1","n6ly78yooxf6kf7","[{""page_index"":0,""viewing_time"":4451.0999999940395},{""page_index"":1,""viewing_time"":51084.59999999404}]","55536.89999997616","","","","","","","","","","","","","","","","","","","","","","","","","","","","","","","","","","","","","","","","","","","","","",""
"external-html","2","62670","0.0-2.0","2","1","n6ly78yooxf6kf7","","6977.0999999940395","consent/consent.html","","","","","","","","","","","","","","","","","","","","","","","","","","","","","","","","","","","","","","","","","","","","",""
"html-button-response","3","79651","0.0-3.0-0.0-0.0","2","1","n6ly78yooxf6kf7","","16980.59999999404","","<p>Welcome to the study. You will first complete a short volume calibration and headphone check.</p><p>Please make sure you are in a quiet listening environment, that you are wearing headphones, and that your computer's volume is turned on.<p></p>","0","","","","","","","","","","","","","","","","","","","","","","","","","","","","","","","","","","","","","","","","","","",""
"html-button-response","4","85443","0.0-3.0-0.0-1.0","2","1","n6ly78yooxf6kf7","","5533.5","","<p>The volume calibration will be first.</p><p>You will hear a thirty-second noise. Please adjust your computer's volume so that this noise is being presented at a comfortable level.<p></p>","0","","","","","","","","","","","","","","","","","","","","","","","","","","","","","","","","","","","","","","","","","","",""
"audio-button-response","5","90810","0.0-3.0-0.0-2.0","2","1","n6ly78yooxf6kf7","","4829","","audCalib/volumetest.mp3","0","","","","","","","","","","","","","","","","","","","","","","","","","","","","","","","","","","","","","","","","","","",""
"html-button-response","6","98981","0.0-3.0-1.0-0.0","2","1","n6ly78yooxf6kf7","","8169.699999988079","","<p>You will now complete a short headphone check.</p><p>On each trial, you will hear three tones. One of these tones will be quieter than the others. Your task is to identify whether the quiet tone occured first, second, or third.</p><p>There are six trials in total.<p></p>","0","","","","","","","","","","","","","","","","","","","","","","","","","","","","","","","","","","","","","","","","","","",""
"html-keyboard-response","7","99757","0.0-3.0-1.0-1.0-0.0","2","1","n6ly78yooxf6kf7","","null","","<div style=""font-size:60px;"">+</div>","","null","","","","","","","","","","","","","","","","","","","","","","","","","","","","","","","","","","","","","","","","","",""
"audio-button-response","8","104573","0.0-3.0-1.0-1.0-1.0","2","1","n6ly78yooxf6kf7","","4819","","audCalib/t3_2.mp3","2","","2","1","headphone-test","","","","","","","","","","","","","","","","","","","","","","","","","","","","","","","","","","","","","","",""
"html-keyboard-response","9","105341","0.0-3.0-1.0-1.0-0.1","2","1","n6ly78yooxf6kf7","","null","","<div style=""font-size:60px;"">+</div>","","null","","","","","","","","","","","","","","","","","","","","","","","","","","","","","","","","","","","","","","","","","",""
"audio-button-response","10","109930","0.0-3.0-1.0-1.0-1.1","2","1","n6ly78yooxf6kf7","","4579","","audCalib/t2_1.mp3","1","","1","1","headphone-test","","","","","","","","","","","","","","","","","","","","","","","","","","","","","","","","","","","","","","",""
"html-keyboard-response","11","110706","0.0-3.0-1.0-1.0-0.2","2","1","n6ly78yooxf6kf7","","null","","<div style=""font-size:60px;"">+</div>","","null","","","","","","","","","","","","","","","","","","","","","","","","","","","","","","","","","","","","","","","","","",""
"audio-button-response","12","115565","0.0-3.0-1.0-1.0-1.2","2","1","n6ly78yooxf6kf7","","4859","","audCalib/t1_2.mp3","0","","0","1","headphone-test","","","","","","","","","","","","","","","","","","","","","","","","","","","","","","","","","","","","","","",""
"html-keyboard-response","13","116332","0.0-3.0-1.0-1.0-0.3","2","1","n6ly78yooxf6kf7","","null","","<div style=""font-size:60px;"">+</div>","","null","","","","","","","","","","","","","","","","","","","","","","","","","","","","","","","","","","","","","","","","","",""
"audio-button-response","14","121087","0.0-3.0-1.0-1.0-1.3","2","1","n6ly78yooxf6kf7","","4749","","audCalib/t1_1.mp3","0","","0","1","headphone-test","","","","","","","","","","","","","","","","","","","","","","","","","","","","","","","","","","","","","","",""
"html-keyboard-response","15","121862","0.0-3.0-1.0-1.0-0.4","2","1","n6ly78yooxf6kf7","","null","","<div style=""font-size:60px;"">+</div>","","null","","","","","","","","","","","","","","","","","","","","","","","","","","","","","","","","","","","","","","","","","",""
"audio-button-response","16","126416","0.0-3.0-1.0-1.0-1.4","2","1","n6ly78yooxf6kf7","","4560","","audCalib/t2_2.mp3","1","","1","1","headphone-test","","","","","","","","","","","","","","","","","","","","","","","","","","","","","","","","","","","","","","",""
"html-keyboard-response","17","127202","0.0-3.0-1.0-1.0-0.5","2","1","n6ly78yooxf6kf7","","null","","<div style=""font-size:60px;"">+</div>","","null","","","","","","","","","","","","","","","","","","","","","","","","","","","","","","","","","","","","","","","","","",""
"audio-button-response","18","131781","0.0-3.0-1.0-1.0-1.5","2","1","n6ly78yooxf6kf7","","4571","","audCalib/t3_1.mp3","2","","2","1","headphone-test","","","","","","","","","","","","","","","","","","","","","","","","","","","","","","","","","","","","","","",""
"html-button-response","19","133748","0.0-3.0-2.0","2","1","n6ly78yooxf6kf7","","1715.5999999940395","","<p>The volume calibration and headphone check are now complete.</p>","0","","","","","","","","","","","","","","","","","","","","","","","","","","","","","","","","","","","","","","","","","","",""
"instructions","20","163425","0.0-4.0-0.0","2","1","n6ly78yooxf6kf7","[{""page_index"":0,""viewing_time"":1483.5},{""page_index"":1,""viewing_time"":26026.5},{""page_index"":2,""viewing_time"":2165.800000011921}]","29676","","","","","","","","","","","","","","","","","","","","","","","","","","","","","","","","","","","","","","","","","","","","","",""
"audio-keyboard-response","21","163726","0.0-4.0-1.0-0.0","2","1","n6ly78yooxf6kf7","","null","","sounds/induction/left/su_SWS.wav","","null","","","","","","","","","","","","","","","","","","","","","","","","","","","","","","","","","","","","","","","","","",""
"html-button-response","22","166561","0.0-4.0-1.0-1.0","2","1","n6ly78yooxf6kf7","","2834.5","","What sound did you hear?","1","","","0","INDUCTION-JUDGMENT","left","0","","","","","","","","","","","","","","","","","","","","","","","","","","","","","","","","","","","","",""
"html-keyboard-response","23","167575","0.0-4.0-1.0-2.0","2","1","n6ly78yooxf6kf7","","null","","<p style=""color:red;""><b>Incorrect!</b></p>","","null","","","","","","","","","","","","","","","","","","","","","","","","","","","","","","","","","","","","","","","","","",""
"audio-keyboard-response","24","168376","0.0-4.0-1.0-0.1","2","1","n6ly78yooxf6kf7","","null","","sounds/induction/right/ni_SWS.wav","","null","","","","","","","","","","","","","","","","","","","","","","","","","","","","","","","","","","","","","","","","","",""
"html-button-response","25","171113","0.0-4.0-1.0-1.1","2","1","n6ly78yooxf6kf7","","2736.2000000178814","","What sound did you hear?","0","","","1","INDUCTION-JUDGMENT","right","0","","","","","","","","","","","","","","","","","","","","","","","","","","","","","","","","","","","","",""
"html-keyboard-response","26","172125","0.0-4.0-1.0-2.1","2","1","n6ly78yooxf6kf7","","null","","<p style=""color:green;""><b>Correct!</b></p>","","null","","","","","","","","","","","","","","","","","","","","","","","","","","","","","","","","","","","","","","","","","",""
"audio-keyboard-response","27","172926","0.0-4.0-1.0-0.2","2","1","n6ly78yooxf6kf7","","null","","sounds/induction/left/ta_SWS.wav","","null","","","","","","","","","","","","","","","","","","","","","","","","","","","","","","","","","","","","","","","","","",""
"html-button-response","28","174504","0.0-4.0-1.0-1.2","2","1","n6ly78yooxf6kf7","","1577.5999999940395","","What sound did you hear?","1","","","0","INDUCTION-JUDGMENT","left","0","","","","","","","","","","","","","","","","","","","","","","","","","","","","","","","","","","","","",""
"html-keyboard-response","29","175515","0.0-4.0-1.0-2.2","2","1","n6ly78yooxf6kf7","","null","","<p style=""color:red;""><b>Incorrect!</b></p>","","null","","","","","","","","","","","","","","","","","","","","","","","","","","","","","","","","","","","","","","","","","",""
"audio-keyboard-response","30","176326","0.0-4.0-1.0-0.3","2","1","n6ly78yooxf6kf7","","null","","sounds/induction/right/ni_SWS.wav","","null","","","","","","","","","","","","","","","","","","","","","","","","","","","","","","","","","","","","","","","","","",""
"html-button-response","31","178327","0.0-4.0-1.0-1.3","2","1","n6ly78yooxf6kf7","","2000.2000000178814","","What sound did you hear?","0","","","1","INDUCTION-JUDGMENT","right","0","","","","","","","","","","","","","","","","","","","","","","","","","","","","","","","","","","","","",""
"html-keyboard-response","32","179330","0.0-4.0-1.0-2.3","2","1","n6ly78yooxf6kf7","","null","","<p style=""color:green;""><b>Correct!</b></p>","","null","","","","","","","","","","","","","","","","","","","","","","","","","","","","","","","","","","","","","","","","","",""
"audio-keyboard-response","33","180126","0.0-4.0-1.0-0.4","2","1","n6ly78yooxf6kf7","","null","","sounds/induction/left/ti_SWS.wav","","null","","","","","","","","","","","","","","","","","","","","","","","","","","","","","","","","","","","","","","","","","",""
"html-button-response","34","181724","0.0-4.0-1.0-1.4","2","1","n6ly78yooxf6kf7","","1597.300000011921","","What sound did you hear?","0","","","1","INDUCTION-JUDGMENT","left","0","","","","","","","","","","","","","","","","","","","","","","","","","","","","","","","","","","","","",""
"html-keyboard-response","35","182735","0.0-4.0-1.0-2.4","2","1","n6ly78yooxf6kf7","","null","","<p style=""color:green;""><b>Correct!</b></p>","","null","","","","","","","","","","","","","","","","","","","","","","","","","","","","","","","","","","","","","","","","","",""
"audio-keyboard-response","36","183556","0.0-4.0-1.0-0.5","2","1","n6ly78yooxf6kf7","","null","","sounds/induction/right/ti_SWS.wav","","null","","","","","","","","","","","","","","","","","","","","","","","","","","","","","","","","","","","","","","","","","",""
"html-button-response","37","185375","0.0-4.0-1.0-1.5","2","1","n6ly78yooxf6kf7","","1818.3999999761581","","What sound did you hear?","1","","","1","INDUCTION-JUDGMENT","right","1","","","","","","","","","","","","","","","","","","","","","","","","","","","","","","","","","","","","",""
"html-keyboard-response","38","186395","0.0-4.0-1.0-2.5","2","1","n6ly78yooxf6kf7","","null","","<p style=""color:green;""><b>Correct!</b></p>","","null","","","","","","","","","","","","","","","","","","","","","","","","","","","","","","","","","","","","","","","","","",""
"audio-keyboard-response","39","187206","0.0-4.0-1.0-0.6","2","1","n6ly78yooxf6kf7","","null","","sounds/induction/right/re_SWS.wav","","null","","","","","","","","","","","","","","","","","","","","","","","","","","","","","","","","","","","","","","","","","",""
"html-button-response","40","188861","0.0-4.0-1.0-1.6","2","1","n6ly78yooxf6kf7","","1654.5999999940395","","What sound did you hear?","1","","","1","INDUCTION-JUDGMENT","right","1","","","","","","","","","","","","","","","","","","","","","","","","","","","","","","","","","","","","",""
"html-keyboard-response","41","189875","0.0-4.0-1.0-2.6","2","1","n6ly78yooxf6kf7","","null","","<p style=""color:green;""><b>Correct!</b></p>","","null","","","","","","","","","","","","","","","","","","","","","","","","","","","","","","","","","","","","","","","","","",""
"audio-keyboard-response","42","190686","0.0-4.0-1.0-0.7","2","1","n6ly78yooxf6kf7","","null","","sounds/induction/right/fe_SWS.wav","","null","","","","","","","","","","","","","","","","","","","","","","","","","","","","","","","","","","","","","","","","","",""
"html-button-response","43","192526","0.0-4.0-1.0-1.7","2","1","n6ly78yooxf6kf7","","1839.199999988079","","What sound did you hear?","0","","","1","INDUCTION-JUDGMENT","right","0","","","","","","","","","","","","","","","","","","","","","","","","","","","","","","","","","","","","",""
"html-keyboard-response","44","193545","0.0-4.0-1.0-2.7","2","1","n6ly78yooxf6kf7","","null","","<p style=""color:green;""><b>Correct!</b></p>","","null","","","","","","","","","","","","","","","","","","","","","","","","","","","","","","","","","","","","","","","","","",""
"audio-keyboard-response","45","194356","0.0-4.0-1.0-0.8","2","1","n6ly78yooxf6kf7","","null","","sounds/induction/right/pu_SWS.wav","","null","","","","","","","","","","","","","","","","","","","","","","","","","","","","","","","","","","","","","","","","","",""
"html-button-response","46","195654","0.0-4.0-1.0-1.8","2","1","n6ly78yooxf6kf7","","1297.4000000059605","","What sound did you hear?","1","","","1","INDUCTION-JUDGMENT","right","1","","","","","","","","","","","","","","","","","","","","","","","","","","","","","","","","","","","","",""
"html-keyboard-response","47","196665","0.0-4.0-1.0-2.8","2","1","n6ly78yooxf6kf7","","null","","<p style=""color:green;""><b>Correct!</b></p>","","null","","","","","","","","","","","","","","","","","","","","","","","","","","","","","","","","","","","","","","","","","",""
"audio-keyboard-response","48","197486","0.0-4.0-1.0-0.9","2","1","n6ly78yooxf6kf7","","null","","sounds/induction/right/su_SWS.wav","","null","","","","","","","","","","","","","","","","","","","","","","","","","","","","","","","","","","","","","","","","","",""
"html-button-response","49","200605","0.0-4.0-1.0-1.9","2","1","n6ly78yooxf6kf7","","3118.7999999821186","","What sound did you hear?","1","","","1","INDUCTION-JUDGMENT","right","1","","","","","","","","","","","","","","","","","","","","","","","","","","","","","","","","","","","","",""
"html-keyboard-response","50","201625","0.0-4.0-1.0-2.9","2","1","n6ly78yooxf6kf7","","null","","<p style=""color:green;""><b>Correct!</b></p>","","null","","","","","","","","","","","","","","","","","","","","","","","","","","","","","","","","","","","","","","","","","",""
"audio-keyboard-response","51","202436","0.0-4.0-1.0-0.10","2","1","n6ly78yooxf6kf7","","null","","sounds/induction/right/fe_SWS.wav","","null","","","","","","","","","","","","","","","","","","","","","","","","","","","","","","","","","","","","","","","","","",""
"html-button-response","52","203673","0.0-4.0-1.0-1.10","2","1","n6ly78yooxf6kf7","","1235.7999999821186","","What sound did you hear?","0","","","1","INDUCTION-JUDGMENT","right","0","","","","","","","","","","","","","","","","","","","","","","","","","","","","","","","","","","","","",""
"html-keyboard-response","53","204695","0.0-4.0-1.0-2.10","2","1","n6ly78yooxf6kf7","","null","","<p style=""color:green;""><b>Correct!</b></p>","","null","","","","","","","","","","","","","","","","","","","","","","","","","","","","","","","","","","","","","","","","","",""
"audio-keyboard-response","54","205516","0.0-4.0-1.0-0.11","2","1","n6ly78yooxf6kf7","","null","","sounds/induction/left/re_SWS.wav","","null","","","","","","","","","","","","","","","","","","","","","","","","","","","","","","","","","","","","","","","","","",""
"html-button-response","55","206814","0.0-4.0-1.0-1.11","2","1","n6ly78yooxf6kf7","","1297.199999988079","","What sound did you hear?","0","","","1","INDUCTION-JUDGMENT","left","0","","","","","","","","","","","","","","","","","","","","","","","","","","","","","","","","","","","","",""
"html-keyboard-response","56","207825","0.0-4.0-1.0-2.11","2","1","n6ly78yooxf6kf7","","null","","<p style=""color:green;""><b>Correct!</b></p>","","null","","","","","","","","","","","","","","","","","","","","","","","","","","","","","","","","","","","","","","","","","",""
"audio-keyboard-response","57","208636","0.0-4.0-1.0-0.12","2","1","n6ly78yooxf6kf7","","null","","sounds/induction/left/ko_SWS.wav","","null","","","","","","","","","","","","","","","","","","","","","","","","","","","","","","","","","","","","","","","","","",""
"html-button-response","58","209977","0.0-4.0-1.0-1.12","2","1","n6ly78yooxf6kf7","","1340.0999999940395","","What sound did you hear?","0","","","0","INDUCTION-JUDGMENT","left","1","","","","","","","","","","","","","","","","","","","","","","","","","","","","","","","","","","","","",""
"html-keyboard-response","59","210995","0.0-4.0-1.0-2.12","2","1","n6ly78yooxf6kf7","","null","","<p style=""color:red;""><b>Incorrect!</b></p>","","null","","","","","","","","","","","","","","","","","","","","","","","","","","","","","","","","","","","","","","","","","",""
"audio-keyboard-response","60","211806","0.0-4.0-1.0-0.13","2","1","n6ly78yooxf6kf7","","null","","sounds/induction/right/re_SWS.wav","","null","","","","","","","","","","","","","","","","","","","","","","","","","","","","","","","","","","","","","","","","","",""
"html-button-response","61","213546","0.0-4.0-1.0-1.13","2","1","n6ly78yooxf6kf7","","1739.5","","What sound did you hear?","1","","","1","INDUCTION-JUDGMENT","right","1","","","","","","","","","","","","","","","","","","","","","","","","","","","","","","","","","","","","",""
"html-keyboard-response","62","214555","0.0-4.0-1.0-2.13","2","1","n6ly78yooxf6kf7","","null","","<p style=""color:green;""><b>Correct!</b></p>","","null","","","","","","","","","","","","","","","","","","","","","","","","","","","","","","","","","","","","","","","","","",""
"audio-keyboard-response","63","215366","0.0-4.0-1.0-0.14","2","1","n6ly78yooxf6kf7","","null","","sounds/induction/left/fe_SWS.wav","","null","","","","","","","","","","","","","","","","","","","","","","","","","","","","","","","","","","","","","","","","","",""
"html-button-response","64","216839","0.0-4.0-1.0-1.14","2","1","n6ly78yooxf6kf7","","1472.699999988079","","What sound did you hear?","1","","","1","INDUCTION-JUDGMENT","left","1","","","","","","","","","","","","","","","","","","","","","","","","","","","","","","","","","","","","",""
"html-keyboard-response","65","217845","0.0-4.0-1.0-2.14","2","1","n6ly78yooxf6kf7","","null","","<p style=""color:green;""><b>Correct!</b></p>","","null","","","","","","","","","","","","","","","","","","","","","","","","","","","","","","","","","","","","","","","","","",""
"audio-keyboard-response","66","218656","0.0-4.0-1.0-0.15","2","1","n6ly78yooxf6kf7","","null","","sounds/induction/right/me_SWS.wav","","null","","","","","","","","","","","","","","","","","","","","","","","","","","","","","","","","","","","","","","","","","",""
"html-button-response","67","220002","0.0-4.0-1.0-1.15","2","1","n6ly78yooxf6kf7","","1345.300000011921","","What sound did you hear?","1","","","0","INDUCTION-JUDGMENT","right","0","","","","","","","","","","","","","","","","","","","","","","","","","","","","","","","","","","","","",""
"html-keyboard-response","68","221003","0.0-4.0-1.0-2.15","2","1","n6ly78yooxf6kf7","","null","","<p style=""color:red;""><b>Incorrect!</b></p>","","null","","","","","","","","","","","","","","","","","","","","","","","","","","","","","","","","","","","","","","","","","",""
"audio-keyboard-response","69","221806","0.0-4.0-1.0-0.16","2","1","n6ly78yooxf6kf7","","null","","sounds/induction/left/fu_SWS.wav","","null","","","","","","","","","","","","","","","","","","","","","","","","","","","","","","","","","","","","","","","","","",""
"html-button-response","70","223667","0.0-4.0-1.0-1.16","2","1","n6ly78yooxf6kf7","","1859.5","","What sound did you hear?","1","","","1","INDUCTION-JUDGMENT","left","1","","","","","","","","","","","","","","","","","","","","","","","","","","","","","","","","","","","","",""
"html-keyboard-response","71","224670","0.0-4.0-1.0-2.16","2","1","n6ly78yooxf6kf7","","null","","<p style=""color:green;""><b>Correct!</b></p>","","null","","","","","","","","","","","","","","","","","","","","","","","","","","","","","","","","","","","","","","","","","",""
"audio-keyboard-response","72","225486","0.0-4.0-1.0-0.17","2","1","n6ly78yooxf6kf7","","null","","sounds/induction/right/ta_SWS.wav","","null","","","","","","","","","","","","","","","","","","","","","","","","","","","","","","","","","","","","","","","","","",""
"html-button-response","73","227263","0.0-4.0-1.0-1.17","2","1","n6ly78yooxf6kf7","","1776.2000000178814","","What sound did you hear?","1","","","1","INDUCTION-JUDGMENT","right","1","","","","","","","","","","","","","","","","","","","","","","","","","","","","","","","","","","","","",""
"html-keyboard-response","74","228275","0.0-4.0-1.0-2.17","2","1","n6ly78yooxf6kf7","","null","","<p style=""color:green;""><b>Correct!</b></p>","","null","","","","","","","","","","","","","","","","","","","","","","","","","","","","","","","","","","","","","","","","","",""
"audio-keyboard-response","75","229086","0.0-4.0-1.0-0.18","2","1","n6ly78yooxf6kf7","","null","","sounds/induction/right/me_SWS.wav","","null","","","","","","","","","","","","","","","","","","","","","","","","","","","","","","","","","","","","","","","","","",""
"html-button-response","76","230997","0.0-4.0-1.0-1.18","2","1","n6ly78yooxf6kf7","","1910.4000000059605","","What sound did you hear?","0","","","1","INDUCTION-JUDGMENT","right","0","","","","","","","","","","","","","","","","","","","","","","","","","","","","","","","","","","","","",""
"html-keyboard-response","77","232005","0.0-4.0-1.0-2.18","2","1","n6ly78yooxf6kf7","","null","","<p style=""color:green;""><b>Correct!</b></p>","","null","","","","","","","","","","","","","","","","","","","","","","","","","","","","","","","","","","","","","","","","","",""
"audio-keyboard-response","78","232805","0.0-4.0-1.0-0.19","2","1","n6ly78yooxf6kf7","","null","","sounds/induction/right/ko_SWS.wav","","null","","","","","","","","","","","","","","","","","","","","","","","","","","","","","","","","","","","","","","","","","",""
"html-button-response","79","234619","0.0-4.0-1.0-1.19","2","1","n6ly78yooxf6kf7","","1813.2000000178814","","What sound did you hear?","0","","","1","INDUCTION-JUDGMENT","right","0","","","","","","","","","","","","","","","","","","","","","","","","","","","","","","","","","","","","",""
"html-keyboard-response","80","235630","0.0-4.0-1.0-2.19","2","1","n6ly78yooxf6kf7","","null","","<p style=""color:green;""><b>Correct!</b></p>","","null","","","","","","","","","","","","","","","","","","","","","","","","","","","","","","","","","","","","","","","","","",""
"audio-keyboard-response","81","236435","0.0-4.0-1.0-0.20","2","1","n6ly78yooxf6kf7","","null","","sounds/induction/left/ge_SWS.wav","","null","","","","","","","","","","","","","","","","","","","","","","","","","","","","","","","","","","","","","","","","","",""
"html-button-response","82","238070","0.0-4.0-1.0-1.20","2","1","n6ly78yooxf6kf7","","1634.300000011921","","What sound did you hear?","1","","","1","INDUCTION-JUDGMENT","left","1","","","","","","","","","","","","","","","","","","","","","","","","","","","","","","","","","","","","",""
"html-keyboard-response","83","239074","0.0-4.0-1.0-2.20","2","1","n6ly78yooxf6kf7","","null","","<p style=""color:green;""><b>Correct!</b></p>","","null","","","","","","","","","","","","","","","","","","","","","","","","","","","","","","","","","","","","","","","","","",""
"audio-keyboard-response","84","239885","0.0-4.0-1.0-0.21","2","1","n6ly78yooxf6kf7","","null","","sounds/induction/left/ta_SWS.wav","","null","","","","","","","","","","","","","","","","","","","","","","","","","","","","","","","","","","","","","","","","","",""
"html-button-response","85","241583","0.0-4.0-1.0-1.21","2","1","n6ly78yooxf6kf7","","1697","","What sound did you hear?","1","","","0","INDUCTION-JUDGMENT","left","0","","","","","","","","","","","","","","","","","","","","","","","","","","","","","","","","","","","","",""
"html-keyboard-response","86","242604","0.0-4.0-1.0-2.21","2","1","n6ly78yooxf6kf7","","null","","<p style=""color:red;""><b>Incorrect!</b></p>","","null","","","","","","","","","","","","","","","","","","","","","","","","","","","","","","","","","","","","","","","","","",""
"audio-keyboard-response","87","243405","0.0-4.0-1.0-0.22","2","1","n6ly78yooxf6kf7","","null","","sounds/induction/right/ti_SWS.wav","","null","","","","","","","","","","","","","","","","","","","","","","","","","","","","","","","","","","","","","","","","","",""
"html-button-response","88","246678","0.0-4.0-1.0-1.22","2","1","n6ly78yooxf6kf7","","3272.300000011921","","What sound did you hear?","0","","","0","INDUCTION-JUDGMENT","right","1","","","","","","","","","","","","","","","","","","","","","","","","","","","","","","","","","","","","",""
"html-keyboard-response","89","247684","0.0-4.0-1.0-2.22","2","1","n6ly78yooxf6kf7","","null","","<p style=""color:red;""><b>Incorrect!</b></p>","","null","","","","","","","","","","","","","","","","","","","","","","","","","","","","","","","","","","","","","","","","","",""
"audio-keyboard-response","90","248485","0.0-4.0-1.0-0.23","2","1","n6ly78yooxf6kf7","","null","","sounds/induction/left/ge_SWS.wav","","null","","","","","","","","","","","","","","","","","","","","","","","","","","","","","","","","","","","","","","","","","",""
"html-button-response","91","249710","0.0-4.0-1.0-1.23","2","1","n6ly78yooxf6kf7","","1224.199999988079","","What sound did you hear?","1","","","1","INDUCTION-JUDGMENT","left","1","","","","","","","","","","","","","","","","","","","","","","","","","","","","","","","","","","","","",""
"html-keyboard-response","92","250724","0.0-4.0-1.0-2.23","2","1","n6ly78yooxf6kf7","","null","","<p style=""color:green;""><b>Correct!</b></p>","","null","","","","","","","","","","","","","","","","","","","","","","","","","","","","","","","","","","","","","","","","","",""
"audio-keyboard-response","93","251525","0.0-4.0-1.0-0.24","2","1","n6ly78yooxf6kf7","","null","","sounds/induction/left/pu_SWS.wav","","null","","","","","","","","","","","","","","","","","","","","","","","","","","","","","","","","","","","","","","","","","",""
"html-button-response","94","252866","0.0-4.0-1.0-1.24","2","1","n6ly78yooxf6kf7","","1340.2000000178814","","What sound did you hear?","0","","","1","INDUCTION-JUDGMENT","left","0","","","","","","","","","","","","","","","","","","","","","","","","","","","","","","","","","","","","",""
"html-keyboard-response","95","253884","0.0-4.0-1.0-2.24","2","1","n6ly78yooxf6kf7","","null","","<p style=""color:green;""><b>Correct!</b></p>","","null","","","","","","","","","","","","","","","","","","","","","","","","","","","","","","","","","","","","","","","","","",""
"audio-keyboard-response","96","254695","0.0-4.0-1.0-0.25","2","1","n6ly78yooxf6kf7","","null","","sounds/induction/left/ni_SWS.wav","","null","","","","","","","","","","","","","","","","","","","","","","","","","","","","","","","","","","","","","","","","","",""
"html-button-response","97","257197","0.0-4.0-1.0-1.25","2","1","n6ly78yooxf6kf7","","2501.300000011921","","What sound did you hear?","1","","","1","INDUCTION-JUDGMENT","left","1","","","","","","","","","","","","","","","","","","","","","","","","","","","","","","","","","","","","",""
"html-keyboard-response","98","258199","0.0-4.0-1.0-2.25","2","1","n6ly78yooxf6kf7","","null","","<p style=""color:green;""><b>Correct!</b></p>","","null","","","","","","","","","","","","","","","","","","","","","","","","","","","","","","","","","","","","","","","","","",""
"audio-keyboard-response","99","259006","0.0-4.0-1.0-0.26","2","1","n6ly78yooxf6kf7","","null","","sounds/induction/left/pu_SWS.wav","","null","","","","","","","","","","","","","","","","","","","","","","","","","","","","","","","","","","","","","","","","","",""
"html-button-response","100","260732","0.0-4.0-1.0-1.26","2","1","n6ly78yooxf6kf7","","1725.5","","What sound did you hear?","0","","","1","INDUCTION-JUDGMENT","left","0","","","","","","","","","","","","","","","","","","","","","","","","","","","","","","","","","","","","",""
"html-keyboard-response","101","261735","0.0-4.0-1.0-2.26","2","1","n6ly78yooxf6kf7","","null","","<p style=""color:green;""><b>Correct!</b></p>","","null","","","","","","","","","","","","","","","","","","","","","","","","","","","","","","","","","","","","","","","","","",""
"audio-keyboard-response","102","262556","0.0-4.0-1.0-0.27","2","1","n6ly78yooxf6kf7","","null","","sounds/induction/right/ta_SWS.wav","","null","","","","","","","","","","","","","","","","","","","","","","","","","","","","","","","","","","","","","","","","","",""
"html-button-response","103","264588","0.0-4.0-1.0-1.27","2","1","n6ly78yooxf6kf7","","2032.2999999821186","","What sound did you hear?","1","","","1","INDUCTION-JUDGMENT","right","1","","","","","","","","","","","","","","","","","","","","","","","","","","","","","","","","","","","","",""
"html-keyboard-response","104","265609","0.0-4.0-1.0-2.27","2","1","n6ly78yooxf6kf7","","null","","<p style=""color:green;""><b>Correct!</b></p>","","null","","","","","","","","","","","","","","","","","","","","","","","","","","","","","","","","","","","","","","","","","",""
"audio-keyboard-response","105","266406","0.0-4.0-1.0-0.28","2","1","n6ly78yooxf6kf7","","null","","sounds/induction/right/su_SWS.wav","","null","","","","","","","","","","","","","","","","","","","","","","","","","","","","","","","","","","","","","","","","","",""
"html-button-response","106","268955","0.0-4.0-1.0-1.28","2","1","n6ly78yooxf6kf7","","2548.2999999821186","","What sound did you hear?","1","","","1","INDUCTION-JUDGMENT","right","1","","","","","","","","","","","","","","","","","","","","","","","","","","","","","","","","","","","","",""
"html-keyboard-response","107","269974","0.0-4.0-1.0-2.28","2","1","n6ly78yooxf6kf7","","null","","<p style=""color:green;""><b>Correct!</b></p>","","null","","","","","","","","","","","","","","","","","","","","","","","","","","","","","","","","","","","","","","","","","",""
"audio-keyboard-response","108","270776","0.0-4.0-1.0-0.29","2","1","n6ly78yooxf6kf7","","null","","sounds/induction/right/ge_SWS.wav","","null","","","","","","","","","","","","","","","","","","","","","","","","","","","","","","","","","","","","","","","","","",""
"html-button-response","109","272132","0.0-4.0-1.0-1.29","2","1","n6ly78yooxf6kf7","","1355.3999999761581","","What sound did you hear?","0","","","1","INDUCTION-JUDGMENT","right","0","","","","","","","","","","","","","","","","","","","","","","","","","","","","","","","","","","","","",""
"html-keyboard-response","110","273150","0.0-4.0-1.0-2.29","2","1","n6ly78yooxf6kf7","","null","","<p style=""color:green;""><b>Correct!</b></p>","","null","","","","","","","","","","","","","","","","","","","","","","","","","","","","","","","","","","","","","","","","","",""
"audio-keyboard-response","111","273965","0.0-4.0-1.0-0.30","2","1","n6ly78yooxf6kf7","","null","","sounds/induction/left/ru_SWS.wav","","null","","","","","","","","","","","","","","","","","","","","","","","","","","","","","","","","","","","","","","","","","",""
"html-button-response","112","275183","0.0-4.0-1.0-1.30","2","1","n6ly78yooxf6kf7","","1217.2999999821186","","What sound did you hear?","0","","","1","INDUCTION-JUDGMENT","left","0","","","","","","","","","","","","","","","","","","","","","","","","","","","","","","","","","","","","",""
"html-keyboard-response","113","276195","0.0-4.0-1.0-2.30","2","1","n6ly78yooxf6kf7","","null","","<p style=""color:green;""><b>Correct!</b></p>","","null","","","","","","","","","","","","","","","","","","","","","","","","","","","","","","","","","","","","","","","","","",""
"audio-keyboard-response","114","277006","0.0-4.0-1.0-0.31","2","1","n6ly78yooxf6kf7","","null","","sounds/induction/right/ru_SWS.wav","","null","","","","","","","","","","","","","","","","","","","","","","","","","","","","","","","","","","","","","","","","","",""
"html-button-response","115","277940","0.0-4.0-1.0-1.31","2","1","n6ly78yooxf6kf7","","934.0999999940395","","What sound did you hear?","1","","","1","INDUCTION-JUDGMENT","right","1","","","","","","","","","","","","","","","","","","","","","","","","","","","","","","","","","","","","",""
"html-keyboard-response","116","278954","0.0-4.0-1.0-2.31","2","1","n6ly78yooxf6kf7","","null","","<p style=""color:green;""><b>Correct!</b></p>","","null","","","","","","","","","","","","","","","","","","","","","","","","","","","","","","","","","","","","","","","","","",""
"audio-keyboard-response","117","279756","0.0-4.0-1.0-0.32","2","1","n6ly78yooxf6kf7","","null","","sounds/induction/left/su_SWS.wav","","null","","","","","","","","","","","","","","","","","","","","","","","","","","","","","","","","","","","","","","","","","",""
"html-button-response","118","281585","0.0-4.0-1.0-1.32","2","1","n6ly78yooxf6kf7","","1828.4000000059605","","What sound did you hear?","0","","","1","INDUCTION-JUDGMENT","left","0","","","","","","","","","","","","","","","","","","","","","","","","","","","","","","","","","","","","",""
"html-keyboard-response","119","282600","0.0-4.0-1.0-2.32","2","1","n6ly78yooxf6kf7","","null","","<p style=""color:green;""><b>Correct!</b></p>","","null","","","","","","","","","","","","","","","","","","","","","","","","","","","","","","","","","","","","","","","","","",""
"audio-keyboard-response","120","283416","0.0-4.0-1.0-0.33","2","1","n6ly78yooxf6kf7","","null","","sounds/induction/left/ru_SWS.wav","","null","","","","","","","","","","","","","","","","","","","","","","","","","","","","","","","","","","","","","","","","","",""
"html-button-response","121","284485","0.0-4.0-1.0-1.33","2","1","n6ly78yooxf6kf7","","1069.300000011921","","What sound did you hear?","0","","","1","INDUCTION-JUDGMENT","left","0","","","","","","","","","","","","","","","","","","","","","","","","","","","","","","","","","","","","",""
"html-keyboard-response","122","285505","0.0-4.0-1.0-2.33","2","1","n6ly78yooxf6kf7","","null","","<p style=""color:green;""><b>Correct!</b></p>","","null","","","","","","","","","","","","","","","","","","","","","","","","","","","","","","","","","","","","","","","","","",""
"audio-keyboard-response","123","286326","0.0-4.0-1.0-0.34","2","1","n6ly78yooxf6kf7","","null","","sounds/induction/left/me_SWS.wav","","null","","","","","","","","","","","","","","","","","","","","","","","","","","","","","","","","","","","","","","","","","",""
"html-button-response","124","288165","0.0-4.0-1.0-1.34","2","1","n6ly78yooxf6kf7","","1838.5999999940395","","What sound did you hear?","1","","","1","INDUCTION-JUDGMENT","left","1","","","","","","","","","","","","","","","","","","","","","","","","","","","","","","","","","","","","",""
"html-keyboard-response","125","289175","0.0-4.0-1.0-2.34","2","1","n6ly78yooxf6kf7","","null","","<p style=""color:green;""><b>Correct!</b></p>","","null","","","","","","","","","","","","","","","","","","","","","","","","","","","","","","","","","","","","","","","","","",""
"audio-keyboard-response","126","289976","0.0-4.0-1.0-0.35","2","1","n6ly78yooxf6kf7","","null","","sounds/induction/right/pu_SWS.wav","","null","","","","","","","","","","","","","","","","","","","","","","","","","","","","","","","","","","","","","","","","","",""
"html-button-response","127","291210","0.0-4.0-1.0-1.35","2","1","n6ly78yooxf6kf7","","1234.199999988079","","What sound did you hear?","1","","","1","INDUCTION-JUDGMENT","right","1","","","","","","","","","","","","","","","","","","","","","","","","","","","","","","","","","","","","",""
"html-keyboard-response","128","292225","0.0-4.0-1.0-2.35","2","1","n6ly78yooxf6kf7","","null","","<p style=""color:green;""><b>Correct!</b></p>","","null","","","","","","","","","","","","","","","","","","","","","","","","","","","","","","","","","","","","","","","","","",""
"audio-keyboard-response","129","293045","0.0-4.0-1.0-0.36","2","1","n6ly78yooxf6kf7","","null","","sounds/induction/right/ge_SWS.wav","","null","","","","","","","","","","","","","","","","","","","","","","","","","","","","","","","","","","","","","","","","","",""
"html-button-response","130","294194","0.0-4.0-1.0-1.36","2","1","n6ly78yooxf6kf7","","1148.5","","What sound did you hear?","0","","","1","INDUCTION-JUDGMENT","right","0","","","","","","","","","","","","","","","","","","","","","","","","","","","","","","","","","","","","",""
"html-keyboard-response","131","295205","0.0-4.0-1.0-2.36","2","1","n6ly78yooxf6kf7","","null","","<p style=""color:green;""><b>Correct!</b></p>","","null","","","","","","","","","","","","","","","","","","","","","","","","","","","","","","","","","","","","","","","","","",""
"audio-keyboard-response","132","296015","0.0-4.0-1.0-0.37","2","1","n6ly78yooxf6kf7","","null","","sounds/induction/right/ru_SWS.wav","","null","","","","","","","","","","","","","","","","","","","","","","","","","","","","","","","","","","","","","","","","","",""
"html-button-response","133","296937","0.0-4.0-1.0-1.37","2","1","n6ly78yooxf6kf7","","921.3000000119209","","What sound did you hear?","1","","","1","INDUCTION-JUDGMENT","right","1","","","","","","","","","","","","","","","","","","","","","","","","","","","","","","","","","","","","",""
"html-keyboard-response","134","297945","0.0-4.0-1.0-2.37","2","1","n6ly78yooxf6kf7","","null","","<p style=""color:green;""><b>Correct!</b></p>","","null","","","","","","","","","","","","","","","","","","","","","","","","","","","","","","","","","","","","","","","","","",""
"audio-keyboard-response","135","298756","0.0-4.0-1.0-0.38","2","1","n6ly78yooxf6kf7","","null","","sounds/induction/left/fe_SWS.wav","","null","","","","","","","","","","","","","","","","","","","","","","","","","","","","","","","","","","","","","","","","","",""
"html-button-response","136","300623","0.0-4.0-1.0-1.38","2","1","n6ly78yooxf6kf7","","1866.4000000059605","","What sound did you hear?","1","","","1","INDUCTION-JUDGMENT","left","1","","","","","","","","","","","","","","","","","","","","","","","","","","","","","","","","","","","","",""
"html-keyboard-response","137","301625","0.0-4.0-1.0-2.38","2","1","n6ly78yooxf6kf7","","null","","<p style=""color:green;""><b>Correct!</b></p>","","null","","","","","","","","","","","","","","","","","","","","","","","","","","","","","","","","","","","","","","","","","",""
"audio-keyboard-response","138","302436","0.0-4.0-1.0-0.39","2","1","n6ly78yooxf6kf7","","null","","sounds/induction/left/ni_SWS.wav","","null","","","","","","","","","","","","","","","","","","","","","","","","","","","","","","","","","","","","","","","","","",""
"html-button-response","139","304721","0.0-4.0-1.0-1.39","2","1","n6ly78yooxf6kf7","","2284.5","","What sound did you hear?","1","","","1","INDUCTION-JUDGMENT","left","1","","","","","","","","","","","","","","","","","","","","","","","","","","","","","","","","","","","","",""
"html-keyboard-response","140","305735","0.0-4.0-1.0-2.39","2","1","n6ly78yooxf6kf7","","null","","<p style=""color:green;""><b>Correct!</b></p>","","null","","","","","","","","","","","","","","","","","","","","","","","","","","","","","","","","","","","","","","","","","",""
"audio-keyboard-response","141","306536","0.0-4.0-1.0-0.40","2","1","n6ly78yooxf6kf7","","null","","sounds/induction/left/re_SWS.wav","","null","","","","","","","","","","","","","","","","","","","","","","","","","","","","","","","","","","","","","","","","","",""
"html-button-response","142","307615","0.0-4.0-1.0-1.40","2","1","n6ly78yooxf6kf7","","1079.0999999940395","","What sound did you hear?","0","","","1","INDUCTION-JUDGMENT","left","0","","","","","","","","","","","","","","","","","","","","","","","","","","","","","","","","","","","","",""
"html-keyboard-response","143","308629","0.0-4.0-1.0-2.40","2","1","n6ly78yooxf6kf7","","null","","<p style=""color:green;""><b>Correct!</b></p>","","null","","","","","","","","","","","","","","","","","","","","","","","","","","","","","","","","","","","","","","","","","",""
"audio-keyboard-response","144","309446","0.0-4.0-1.0-0.41","2","1","n6ly78yooxf6kf7","","null","","sounds/induction/right/ko_SWS.wav","","null","","","","","","","","","","","","","","","","","","","","","","","","","","","","","","","","","","","","","","","","","",""
"html-button-response","145","310633","0.0-4.0-1.0-1.41","2","1","n6ly78yooxf6kf7","","1187","","What sound did you hear?","0","","","1","INDUCTION-JUDGMENT","right","0","","","","","","","","","","","","","","","","","","","","","","","","","","","","","","","","","","","","",""
"html-keyboard-response","146","311655","0.0-4.0-1.0-2.41","2","1","n6ly78yooxf6kf7","","null","","<p style=""color:green;""><b>Correct!</b></p>","","null","","","","","","","","","","","","","","","","","","","","","","","","","","","","","","","","","","","","","","","","","",""
"audio-keyboard-response","147","312456","0.0-4.0-1.0-0.42","2","1","n6ly78yooxf6kf7","","null","","sounds/induction/left/ko_SWS.wav","","null","","","","","","","","","","","","","","","","","","","","","","","","","","","","","","","","","","","","","","","","","",""
"html-button-response","148","313267","0.0-4.0-1.0-1.42","2","1","n6ly78yooxf6kf7","","810.5","","What sound did you hear?","1","","","1","INDUCTION-JUDGMENT","left","1","","","","","","","","","","","","","","","","","","","","","","","","","","","","","","","","","","","","",""
"html-keyboard-response","149","314268","0.0-4.0-1.0-2.42","2","1","n6ly78yooxf6kf7","","null","","<p style=""color:green;""><b>Correct!</b></p>","","null","","","","","","","","","","","","","","","","","","","","","","","","","","","","","","","","","","","","","","","","","",""
"audio-keyboard-response","150","315076","0.0-4.0-1.0-0.43","2","1","n6ly78yooxf6kf7","","null","","sounds/induction/left/fu_SWS.wav","","null","","","","","","","","","","","","","","","","","","","","","","","","","","","","","","","","","","","","","","","","","",""
"html-button-response","151","317618","0.0-4.0-1.0-1.43","2","1","n6ly78yooxf6kf7","","2541.7000000178814","","What sound did you hear?","1","","","1","INDUCTION-JUDGMENT","left","1","","","","","","","","","","","","","","","","","","","","","","","","","","","","","","","","","","","","",""
"html-keyboard-response","152","318625","0.0-4.0-1.0-2.43","2","1","n6ly78yooxf6kf7","","null","","<p style=""color:green;""><b>Correct!</b></p>","","null","","","","","","","","","","","","","","","","","","","","","","","","","","","","","","","","","","","","","","","","","",""
"audio-keyboard-response","153","319446","0.0-4.0-1.0-0.44","2","1","n6ly78yooxf6kf7","","null","","sounds/induction/right/fu_SWS.wav","","null","","","","","","","","","","","","","","","","","","","","","","","","","","","","","","","","","","","","","","","","","",""
"html-button-response","154","320369","0.0-4.0-1.0-1.44","2","1","n6ly78yooxf6kf7","","922.4000000059605","","What sound did you hear?","0","","","1","INDUCTION-JUDGMENT","right","0","","","","","","","","","","","","","","","","","","","","","","","","","","","","","","","","","","","","",""
"html-keyboard-response","155","321385","0.0-4.0-1.0-2.44","2","1","n6ly78yooxf6kf7","","null","","<p style=""color:green;""><b>Correct!</b></p>","","null","","","","","","","","","","","","","","","","","","","","","","","","","","","","","","","","","","","","","","","","","",""
"audio-keyboard-response","156","322206","0.0-4.0-1.0-0.45","2","1","n6ly78yooxf6kf7","","null","","sounds/induction/right/fu_SWS.wav","","null","","","","","","","","","","","","","","","","","","","","","","","","","","","","","","","","","","","","","","","","","",""
"html-button-response","157","323256","0.0-4.0-1.0-1.45","2","1","n6ly78yooxf6kf7","","1049","","What sound did you hear?","0","","","1","INDUCTION-JUDGMENT","right","0","","","","","","","","","","","","","","","","","","","","","","","","","","","","","","","","","","","","",""
"html-keyboard-response","158","324265","0.0-4.0-1.0-2.45","2","1","n6ly78yooxf6kf7","","null","","<p style=""color:green;""><b>Correct!</b></p>","","null","","","","","","","","","","","","","","","","","","","","","","","","","","","","","","","","","","","","","","","","","",""
"audio-keyboard-response","159","325086","0.0-4.0-1.0-0.46","2","1","n6ly78yooxf6kf7","","null","","sounds/induction/left/me_SWS.wav","","null","","","","","","","","","","","","","","","","","","","","","","","","","","","","","","","","","","","","","","","","","",""
"html-button-response","160","326735","0.0-4.0-1.0-1.46","2","1","n6ly78yooxf6kf7","","1648.199999988079","","What sound did you hear?","1","","","1","INDUCTION-JUDGMENT","left","1","","","","","","","","","","","","","","","","","","","","","","","","","","","","","","","","","","","","",""
"html-keyboard-response","161","327736","0.0-4.0-1.0-2.46","2","1","n6ly78yooxf6kf7","","null","","<p style=""color:green;""><b>Correct!</b></p>","","null","","","","","","","","","","","","","","","","","","","","","","","","","","","","","","","","","","","","","","","","","",""
"audio-keyboard-response","162","328536","0.0-4.0-1.0-0.47","2","1","n6ly78yooxf6kf7","","null","","sounds/induction/left/ti_SWS.wav","","null","","","","","","","","","","","","","","","","","","","","","","","","","","","","","","","","","","","","","","","","","",""
"html-button-response","163","330468","0.0-4.0-1.0-1.47","2","1","n6ly78yooxf6kf7","","1931.2999999821186","","What sound did you hear?","0","","","1","INDUCTION-JUDGMENT","left","0","","","","","","","","","","","","","","","","","","","","","","","","","","","","","","","","","","","","",""
"html-keyboard-response","164","331470","0.0-4.0-1.0-2.47","2","1","n6ly78yooxf6kf7","","null","","<p style=""color:green;""><b>Correct!</b></p>","","null","","","","","","","","","","","","","","","","","","","","","","","","","","","","","","","","","","","","","","","","","",""
"html-button-response","165","347043","0.0-5.0-0.0","2","1","n6ly78yooxf6kf7","","15067.5","","<p>Thank you for your answers.</p><p>You will now listen to similar sounds. The main difference is that the sounds will be longer and will make up complete sentences.</p><p>Please listen carefully to each sentence. After each sentence, you will be asked to type back what you heard to the best of your ability. After you provide your response, you will be given feedback about the correct answer.</p><p>There are 10 sentences in total.","0","","","","","","","","","","","","","","","","","","","","","","","","","","","","","","","","","","","","","","","","","","",""
"audio-keyboard-response","166","349806","0.0-5.0-1.0-0.0","2","1","n6ly78yooxf6kf7","","null","","sounds/sentences/right/14_08_cfSWS.wav","","null","","","","","","","","","","","","","","","","","","","","","","","","","","","","","","","","","","","","","","","","","",""
"sentence-resp","167","370169","0.0-5.0-1.0-1.0","2","1","n6ly78yooxf6kf7","","20362","","","","","","","SWS-SENT-RESPONSE","","","{""Q0"":""I went to the store and got bread""}","Clothes and lodging are free to new men.","clothes,lodging,free,new,men","I WENT TO THE STORE AND GOT BREAD","0","0","0","0","0","0","0","","","","","","","","","","","","","","","","","","","","","","","","","",""
"html-keyboard-response","168","371431","0.0-5.0-1.0-2.0","2","1","n6ly78yooxf6kf7","","null","","","","null","","","","","","","","","","","","","","","","","","","","","","","","","","","","","","","","","","","","","","","","","",""
"audio-keyboard-response","169","373687","0.0-5.0-1.0-3.0","2","1","n6ly78yooxf6kf7","","null","","sounds/sentences/right/14_08_cfSWS.wav","","null","","","","","","","","","","","","","","","","","","","","","","","","","","","","","","","","","","","","","","","","","",""
"html-keyboard-response","170","374689","0.0-5.0-1.0-4.0","2","1","n6ly78yooxf6kf7","","null","","","","null","","","","","","","","","","","","","","","","","","","","","","","","","","","","","","","","","","","","","","","","","",""
"html-button-response","171","379327","0.0-5.0-1.0-5.0","2","1","n6ly78yooxf6kf7","","4136.299999982119","","<p>Press the button below when you are ready to continue.</p>","0","","","","","","","","","","","","","","","","","","","","","","","","","","","","","","","","","","","","","","","","","","",""
"audio-keyboard-response","172","381897","0.0-5.0-1.0-0.1","2","1","n6ly78yooxf6kf7","","null","","sounds/sentences/left/14_04_cfSWS.wav","","null","","","","","","","","","","","","","","","","","","","","","","","","","","","","","","","","","","","","","","","","","",""
"sentence-resp","173","395080","0.0-5.0-1.0-1.1","2","1","n6ly78yooxf6kf7","","13183","","","","","","","SWS-SENT-RESPONSE","","","{""Q0"":""I want chicken with pizza""}","Two plus seven is less than ten.","two,plus,seven,less,ten","I WANT CHICKEN WITH PIZZA","0","0","0","0","0","0","0","","","","","","","","","","","","","","","","","","","","","","","","","",""
"html-keyboard-response","174","396356","0.0-5.0-1.0-2.1","2","1","n6ly78yooxf6kf7","","null","","","","null","","","","","","","","","","","","","","","","","","","","","","","","","","","","","","","","","","","","","","","","","",""
"audio-keyboard-response","175","398407","0.0-5.0-1.0-3.1","2","1","n6ly78yooxf6kf7","","null","","sounds/sentences/left/14_04_cfSWS.wav","","null","","","","","","","","","","","","","","","","","","","","","","","","","","","","","","","","","","","","","","","","","",""
"html-keyboard-response","176","399416","0.0-5.0-1.0-4.1","2","1","n6ly78yooxf6kf7","","null","","","","null","","","","","","","","","","","","","","","","","","","","","","","","","","","","","","","","","","","","","","","","","",""
"html-button-response","177","401387","0.0-5.0-1.0-5.1","2","1","n6ly78yooxf6kf7","","1459.800000011921","","<p>Press the button below when you are ready to continue.</p>","0","","","","","","","","","","","","","","","","","","","","","","","","","","","","","","","","","","","","","","","","","","",""
"audio-keyboard-response","178","403977","0.0-5.0-1.0-0.2","2","1","n6ly78yooxf6kf7","","null","","sounds/sentences/left/14_03_cfSWS.wav","","null","","","","","","","","","","","","","","","","","","","","","","","","","","","","","","","","","","","","","","","","","",""
"sentence-resp","179","418358","0.0-5.0-1.0-1.2","2","1","n6ly78yooxf6kf7","","14380","","","","","","","SWS-SENT-RESPONSE","","","{""Q0"":""Where is my mom i need her""}","Pluck the bright rose without leaves.","pluck,bright,rose,without,leaves","WHERE IS MY MOM I NEED HER","0","0","0","0","0","0","0","","","","","","","","","","","","","","","","","","","","","","","","","",""
"html-keyboard-response","180","419616","0.0-5.0-1.0-2.2","2","1","n6ly78yooxf6kf7","","null","","","","null","","","","","","","","","","","","","","","","","","","","","","","","","","","","","","","","","","","","","","","","","",""
"audio-keyboard-response","181","421697","0.0-5.0-1.0-3.2","2","1","n6ly78yooxf6kf7","","null","","sounds/sentences/left/14_03_cfSWS.wav","","null","","","","","","","","","","","","","","","","","","","","","","","","","","","","","","","","","","","","","","","","","",""
"html-keyboard-response","182","422715","0.0-5.0-1.0-4.2","2","1","n6ly78yooxf6kf7","","null","","","","null","","","","","","","","","","","","","","","","","","","","","","","","","","","","","","","","","","","","","","","","","",""
"html-button-response","183","424093","0.0-5.0-1.0-5.2","2","1","n6ly78yooxf6kf7","","875.3000000119209","","<p>Press the button below when you are ready to continue.</p>","0","","","","","","","","","","","","","","","","","","","","","","","","","","","","","","","","","","","","","","","","","","",""
"audio-keyboard-response","184","426907","0.0-5.0-1.0-0.3","2","1","n6ly78yooxf6kf7","","null","","sounds/sentences/left/14_02_cfSWS.wav","","null","","","","","","","","","","","","","","","","","","","","","","","","","","","","","","","","","","","","","","","","","",""
"sentence-resp","185","437291","0.0-5.0-1.0-1.3","2","1","n6ly78yooxf6kf7","","10383","","","","","","","SWS-SENT-RESPONSE","","","{""Q0"":""What is your middle name""}","He said the same phrase thirty times.","said,same,phrase,thirty,times","WHAT IS YOUR MIDDLE NAME","0","0","0","0","0","0","0","","","","","","","","","","","","","","","","","","","","","","","","","",""
"html-keyboard-response","186","438576","0.0-5.0-1.0-2.3","2","1","n6ly78yooxf6kf7","","null","","","","null","","","","","","","","","","","","","","","","","","","","","","","","","","","","","","","","","","","","","","","","","",""
"audio-keyboard-response","187","440887","0.0-5.0-1.0-3.3","2","1","n6ly78yooxf6kf7","","null","","sounds/sentences/left/14_02_cfSWS.wav","","null","","","","","","","","","","","","","","","","","","","","","","","","","","","","","","","","","","","","","","","","","",""
"html-keyboard-response","188","441906","0.0-5.0-1.0-4.3","2","1","n6ly78yooxf6kf7","","null","","","","null","","","","","","","","","","","","","","","","","","","","","","","","","","","","","","","","","","","","","","","","","",""
"html-button-response","189","444024","0.0-5.0-1.0-5.3","2","1","n6ly78yooxf6kf7","","1607.7000000178814","","<p>Press the button below when you are ready to continue.</p>","0","","","","","","","","","","","","","","","","","","","","","","","","","","","","","","","","","","","","","","","","","","",""
"audio-keyboard-response","190","447147","0.0-5.0-1.0-0.4","2","1","n6ly78yooxf6kf7","","null","","sounds/sentences/left/14_01_cfSWS.wav","","null","","","","","","","","","","","","","","","","","","","","","","","","","","","","","","","","","","","","","","","","","",""
"sentence-resp","191","493715","0.0-5.0-1.0-1.4","2","1","n6ly78yooxf6kf7","","46567","","","","","","","SWS-SENT-RESPONSE","","","{""Q0"":""i want a donut and fries""}","A cramp is no small danger on a swim.","cramp,no,small,danger,swim","I WANT A DONUT AND FRIES","0","0","0","0","0","0","0","","","","","","","","","","","","","","","","","","","","","","","","","",""
"html-keyboard-response","192","494969","0.0-5.0-1.0-2.4","2","1","n6ly78yooxf6kf7","","null","","","","null","","","","","","","","","","","","","","","","","","","","","","","","","","","","","","","","","","","","","","","","","",""
"audio-keyboard-response","193","497845","0.0-5.0-1.0-3.4","2","1","n6ly78yooxf6kf7","","null","","sounds/sentences/left/14_01_cfSWS.wav","","null","","","","","","","","","","","","","","","","","","","","","","","","","","","","","","","","","","","","","","","","","",""
"html-keyboard-response","194","498864","0.0-5.0-1.0-4.4","2","1","n6ly78yooxf6kf7","","null","","","","null","","","","","","","","","","","","","","","","","","","","","","","","","","","","","","","","","","","","","","","","","",""
"html-button-response","195","500310","0.0-5.0-1.0-5.4","2","1","n6ly78yooxf6kf7","","925.8000000119209","","<p>Press the button below when you are ready to continue.</p>","0","","","","","","","","","","","","","","","","","","","","","","","","","","","","","","","","","","","","","","","","","","",""
"audio-keyboard-response","196","503355","0.0-5.0-1.0-0.5","2","1","n6ly78yooxf6kf7","","null","","sounds/sentences/right/14_10_cfSWS.wav","","null","","","","","","","","","","","","","","","","","","","","","","","","","","","","","","","","","","","","","","","","","",""
"sentence-resp","197","525026","0.0-5.0-1.0-1.5","2","1","n6ly78yooxf6kf7","","21671","","","","","","","SWS-SENT-RESPONSE","","","{""Q0"":""where is my swimsuit i need it""}","Port is a strong wine with a smoky taste.","port,strong,wine,smoky,taste","WHERE IS MY SWIMSUIT I NEED IT","0","0","0","0","0","0","0","","","","","","","","","","","","","","","","","","","","","","","","","",""
"html-keyboard-response","198","526284","0.0-5.0-1.0-2.5","2","1","n6ly78yooxf6kf7","","null","","","","null","","","","","","","","","","","","","","","","","","","","","","","","","","","","","","","","","","","","","","","","","",""
"audio-keyboard-response","199","528795","0.0-5.0-1.0-3.5","2","1","n6ly78yooxf6kf7","","null","","sounds/sentences/right/14_10_cfSWS.wav","","null","","","","","","","","","","","","","","","","","","","","","","","","","","","","","","","","","","","","","","","","","",""
"html-keyboard-response","200","529804","0.0-5.0-1.0-4.5","2","1","n6ly78yooxf6kf7","","null","","","","null","","","","","","","","","","","","","","","","","","","","","","","","","","","","","","","","","","","","","","","","","",""
"html-button-response","201","533451","0.0-5.0-1.0-5.5","2","1","n6ly78yooxf6kf7","","3127.199999988079","","<p>Press the button below when you are ready to continue.</p>","0","","","","","","","","","","","","","","","","","","","","","","","","","","","","","","","","","","","","","","","","","","",""
"audio-keyboard-response","202","536175","0.0-5.0-1.0-0.6","2","1","n6ly78yooxf6kf7","","null","","sounds/sentences/right/14_09_cfSWS.wav","","null","","","","","","","","","","","","","","","","","","","","","","","","","","","","","","","","","","","","","","","","","",""
"sentence-resp","203","548038","0.0-5.0-1.0-1.6","2","1","n6ly78yooxf6kf7","","11863","","","","","","","SWS-SENT-RESPONSE","","","{""Q0"":""there is an alien in my bedroom""}","We frown when events take a bad turn.","frown,events,take,bad,turn","THERE IS AN ALIEN IN MY BEDROOM","0","0","0","0","0","0","0","","","","","","","","","","","","","","","","","","","","","","","","","",""
"html-keyboard-response","204","549304","0.0-5.0-1.0-2.6","2","1","n6ly78yooxf6kf7","","null","","","","null","","","","","","","","","","","","","","","","","","","","","","","","","","","","","","","","","","","","","","","","","",""
"audio-keyboard-response","205","551525","0.0-5.0-1.0-3.6","2","1","n6ly78yooxf6kf7","","null","","sounds/sentences/right/14_09_cfSWS.wav","","null","","","","","","","","","","","","","","","","","","","","","","","","","","","","","","","","","","","","","","","","","",""
"html-keyboard-response","206","552534","0.0-5.0-1.0-4.6","2","1","n6ly78yooxf6kf7","","null","","","","null","","","","","","","","","","","","","","","","","","","","","","","","","","","","","","","","","","","","","","","","","",""
"html-button-response","207","554276","0.0-5.0-1.0-5.6","2","1","n6ly78yooxf6kf7","","1221.800000011921","","<p>Press the button below when you are ready to continue.</p>","0","","","","","","","","","","","","","","","","","","","","","","","","","","","","","","","","","","","","","","","","","","",""
"audio-keyboard-response","208","557035","0.0-5.0-1.0-0.7","2","1","n6ly78yooxf6kf7","","null","","sounds/sentences/right/14_06_cfSWS.wav","","null","","","","","","","","","","","","","","","","","","","","","","","","","","","","","","","","","","","","","","","","","",""
"sentence-resp","209","567702","0.0-5.0-1.0-1.7","2","1","n6ly78yooxf6kf7","","10665","","","","","","","SWS-SENT-RESPONSE","","","{""Q0"":""where are the dogs on the lawn""}","Bring your problems to the wise chief.","bring,your,problems,wise,chief","WHERE ARE THE DOGS ON THE LAWN","0","0","0","0","0","0","0","","","","","","","","","","","","","","","","","","","","","","","","","",""
"html-keyboard-response","210","568964","0.0-5.0-1.0-2.7","2","1","n6ly78yooxf6kf7","","null","","","","null","","","","","","","","","","","","","","","","","","","","","","","","","","","","","","","","","","","","","","","","","",""
"audio-keyboard-response","211","571205","0.0-5.0-1.0-3.7","2","1","n6ly78yooxf6kf7","","null","","sounds/sentences/right/14_06_cfSWS.wav","","null","","","","","","","","","","","","","","","","","","","","","","","","","","","","","","","","","","","","","","","","","",""
"html-keyboard-response","212","572224","0.0-5.0-1.0-4.7","2","1","n6ly78yooxf6kf7","","null","","","","null","","","","","","","","","","","","","","","","","","","","","","","","","","","","","","","","","","","","","","","","","",""
"html-button-response","213","574270","0.0-5.0-1.0-5.7","2","1","n6ly78yooxf6kf7","","1525.7000000178814","","<p>Press the button below when you are ready to continue.</p>","0","","","","","","","","","","","","","","","","","","","","","","","","","","","","","","","","","","","","","","","","","","",""
"audio-keyboard-response","214","577165","0.0-5.0-1.0-0.8","2","1","n6ly78yooxf6kf7","","null","","sounds/sentences/right/14_07_cfSWS.wav","","null","","","","","","","","","","","","","","","","","","","","","","","","","","","","","","","","","","","","","","","","","",""
"sentence-resp","215","590613","0.0-5.0-1.0-1.8","2","1","n6ly78yooxf6kf7","","13446","","","","","","","SWS-SENT-RESPONSE","","","{""Q0"":""i want to get a burger""}","Write a fond note to the friend you cherish.","write,fond,note,friend,cherish","I WANT TO GET A BURGER","0","0","0","0","0","0","0","","","","","","","","","","","","","","","","","","","","","","","","","",""
"html-keyboard-response","216","591870","0.0-5.0-1.0-2.8","2","1","n6ly78yooxf6kf7","","null","","","","null","","","","","","","","","","","","","","","","","","","","","","","","","","","","","","","","","","","","","","","","","",""
"audio-keyboard-response","217","594255","0.0-5.0-1.0-3.8","2","1","n6ly78yooxf6kf7","","null","","sounds/sentences/right/14_07_cfSWS.wav","","null","","","","","","","","","","","","","","","","","","","","","","","","","","","","","","","","","","","","","","","","","",""
"html-keyboard-response","218","595264","0.0-5.0-1.0-4.8","2","1","n6ly78yooxf6kf7","","null","","","","null","","","","","","","","","","","","","","","","","","","","","","","","","","","","","","","","","","","","","","","","","",""
"html-button-response","219","597009","0.0-5.0-1.0-5.8","2","1","n6ly78yooxf6kf7","","1239.5999999940395","","<p>Press the button below when you are ready to continue.</p>","0","","","","","","","","","","","","","","","","","","","","","","","","","","","","","","","","","","","","","","","","","","",""
"audio-keyboard-response","220","600005","0.0-5.0-1.0-0.9","2","1","n6ly78yooxf6kf7","","null","","sounds/sentences/left/14_05_cfSWS.wav","","null","","","","","","","","","","","","","","","","","","","","","","","","","","","","","","","","","","","","","","","","","",""
"sentence-resp","221","610867","0.0-5.0-1.0-1.9","2","1","n6ly78yooxf6kf7","","10860","","","","","","","SWS-SENT-RESPONSE","","","{""Q0"":""i went golfing with my son""}","The glow deepened in the eyes of the sweet girl.","glow,deepened,eyes,sweet,girl","I WENT GOLFING WITH MY SON","0","0","0","0","0","0","0","","","","","","","","","","","","","","","","","","","","","","","","","",""
"html-keyboard-response","222","612120","0.0-5.0-1.0-2.9","2","1","n6ly78yooxf6kf7","","null","","","","null","","","","","","","","","","","","","","","","","","","","","","","","","","","","","","","","","","","","","","","","","",""
"audio-keyboard-response","223","614605","0.0-5.0-1.0-3.9","2","1","n6ly78yooxf6kf7","","null","","sounds/sentences/left/14_05_cfSWS.wav","","null","","","","","","","","","","","","","","","","","","","","","","","","","","","","","","","","","","","","","","","","","",""
"html-keyboard-response","224","615619","0.0-5.0-1.0-4.9","2","1","n6ly78yooxf6kf7","","null","","","","null","","","","","","","","","","","","","","","","","","","","","","","","","","","","","","","","","","","","","","","","","",""
"html-button-response","225","618377","0.0-5.0-1.0-5.9","2","1","n6ly78yooxf6kf7","","2242.7000000178814","","<p>Press the button below when you are ready to continue.</p>","0","","","","","","","","","","","","","","","","","","","","","","","","","","","","","","","","","","","","","","","","","","",""
"html-keyboard-response","226","623043","0.0-6.0-0.0","2","1","n6ly78yooxf6kf7","","4148.399999976158","","<p>In this part of the study, you will hear sounds similar to those you just heard.</p><p>Please focus on these sounds, as you may be asked questions about them later.</p><p>Occasionally, the sounds will pause for up to two seconds. When this happens, please press SPACEBAR as quickly as you can.</br>This helps ensure that you are paying attention to the sounds.</p><p>This part of the study will take about 12 minutes to complete, and you will be given the opportunity to take a couple of short breaks every few minutes.</p><p><strong>Press SPACEBAR to begin</strong></p>","","32","","","","","","","","","","","","","","","","","","","","","","","","","","","","","","","","","","","","","","","","","",""
"html-keyboard-response","227","624054","0.0-6.0-1.0-0.0","2","1","n6ly78yooxf6kf7","","null","","<p style=""font-size: 40px;"">+</p>","","null","","","","","","","","","","","","","","","","","","","","","","","","","","","","","","","","","","","","","","","","","",""
"html-keyboard-response","228","809058","0.0-6.0-1.0-1.0","2","1","n6ly78yooxf6kf7","","null","","","","null","","","SL-TRAIN","","","","","","","","","","","","","","2","null","null","sounds/B/TRAIN/SEQ__03.mp3","1","","","","","","","","","","","","","","","","","","","","",""
"html-button-response","229","811603","0.0-6.0-1.0-2.0","2","1","n6ly78yooxf6kf7","","2544","","<p>You may take a short break if you wish.</p>","0","","","","","","","","","","","","","","","","","","","","","","","","","","","","","","","","","","","","","","","","","","",""
"html-keyboard-response","230","812604","0.0-6.0-1.0-3.0","2","1","n6ly78yooxf6kf7","","null","","<p style=""font-size: 40px;"">+</p>","","null","","","","","","","","","","","","","","","","","","","","","","","","","","","","","","","","","","","","","","","","","",""
"html-keyboard-response","231","997606","0.0-6.0-1.0-4.0","2","1","n6ly78yooxf6kf7","","null","","","","null","","","SL-TRAIN","","","","","","","","","","","","","","2","null","null","sounds/B/TRAIN/SEQ__06.mp3","0","","","","","","","","","","","","","","","","","","","","",""
"html-button-response","232","1001769","0.0-6.0-1.0-5.0","2","1","n6ly78yooxf6kf7","","4162.0999999940395","","<p>You may take a short break if you wish.</p>","0","","","","","","","","","","","","","","","","","","","","","","","","","","","","","","","","","","","","","","","","","","",""
"html-keyboard-response","233","1002770","0.0-6.0-1.0-6.0","2","1","n6ly78yooxf6kf7","","null","","<p style=""font-size: 40px;"">+</p>","","null","","","","","","","","","","","","","","","","","","","","","","","","","","","","","","","","","","","","","","","","","",""
"html-keyboard-response","234","1187772","0.0-6.0-1.0-7.0","2","1","n6ly78yooxf6kf7","","null","","","","null","","","SL-TRAIN","","","","","","","","","","","","","","2","null","null","sounds/B/TRAIN/SEQ__02.mp3","0","","","","","","","","","","","","","","","","","","","","",""
"html-button-response","235","1192572","0.0-6.0-1.0-8.0","2","1","n6ly78yooxf6kf7","","4799.199999988079","","<p>You may take a short break if you wish.</p>","0","","","","","","","","","","","","","","","","","","","","","","","","","","","","","","","","","","","","","","","","","","",""
"html-keyboard-response","236","1193573","0.0-6.0-1.0-9.0","2","1","n6ly78yooxf6kf7","","null","","<p style=""font-size: 40px;"">+</p>","","null","","","","","","","","","","","","","","","","","","","","","","","","","","","","","","","","","","","","","","","","","",""
"html-keyboard-response","237","1378575","0.0-6.0-1.0-10.0","2","1","n6ly78yooxf6kf7","","null","","","","null","","","SL-TRAIN","","","","","","","","","","","","","","2","null","null","sounds/B/TRAIN/SEQ__07.mp3","8","","","","","","","","","","","","","","","","","","","","",""
"html-button-response","238","1381984","0.0-6.0-1.0-11.0","2","1","n6ly78yooxf6kf7","","3407.9000000059605","","<p>You may take a short break if you wish.</p>","0","","","","","","","","","","","","","","","","","","","","","","","","","","","","","","","","","","","","","","","","","","",""
"html-button-response","239","1394362","0.0-7.0-0.0","2","1","n6ly78yooxf6kf7","","12378.300000011921","","<p>Welcome to the second part of the study. This is a <u>familiarity task</u>.</p><p>You will now hear short sounds and will be asked to rate how familiar they sound to you <b>based on what you heard in the previous part of the study</b>.</p><p>You will rate 12 sounds in total.</p>","0","","","","","","","","","","","","","","","","","","","","","","","","","","","","","","","","","","","","","","","","","","",""
"html-keyboard-response","240","1395364","0.0-7.0-1.0-0.0","2","1","n6ly78yooxf6kf7","","null","","","","null","","","","","","","","","","","","","","","","","","","","","","","","","","","","","","","","","","","","","","","","","",""
"audio-keyboard-response","241","1396455","0.0-7.0-1.0-1.0","2","1","n6ly78yooxf6kf7","","null","","sounds/B/FAM/P002.mp3","","null","","","","","","","","","","","","","","","","","","","","","","","","","","","","","","","","","","","","","","","","","",""
"html-keyboard-response","242","1401920","0.0-7.0-1.0-2.0","2","1","n6ly78yooxf6kf7","","4956.600000023842","","<p>How familiar did this sound to you?</p><p>1&nbsp;&nbsp;&nbsp;&nbsp;&nbsp;&nbsp;&nbsp;&nbsp;&nbsp;&nbsp;&nbsp;&nbsp;&nbsp;&nbsp;&nbsp;&nbsp;&nbsp;&nbsp;&nbsp;2&nbsp;&nbsp;&nbsp;&nbsp;&nbsp;&nbsp;&nbsp;&nbsp;&nbsp;&nbsp;&nbsp;&nbsp;&nbsp;&nbsp;&nbsp;&nbsp;&nbsp;&nbsp;&nbsp;3&nbsp;&nbsp;&nbsp;&nbsp;&nbsp;&nbsp;&nbsp;&nbsp;&nbsp;&nbsp;&nbsp;&nbsp;&nbsp;&nbsp;&nbsp;&nbsp;&nbsp;&nbsp;&nbsp;4</p><p style=""font-size:14px"">Not at all familiar&nbsp;&nbsp;&nbsp;&nbsp;A little familiar&nbsp;&nbsp;&nbsp;Moderately familiar&nbsp;&nbsp;&nbsp;Extremely familiar</p><p>(press the corresponding number on your keyboard)</p>","","51","","","FAM-RESPONSE","","","","","","","","","","","","","","","","","","","sounds/B/FAM/P002.mp3","partword","","","","","","","","","","","","","","","","","","",""
"html-keyboard-response","243","1403926","0.0-7.0-1.0-0.1","2","1","n6ly78yooxf6kf7","","null","","","","null","","","","","","","","","","","","","","","","","","","","","","","","","","","","","","","","","","","","","","","","","",""
"audio-keyboard-response","244","1404875","0.0-7.0-1.0-1.1","2","1","n6ly78yooxf6kf7","","null","","sounds/B/FAM/N003.mp3","","null","","","","","","","","","","","","","","","","","","","","","","","","","","","","","","","","","","","","","","","","","",""
"html-keyboard-response","245","1406830","0.0-7.0-1.0-2.1","2","1","n6ly78yooxf6kf7","","1436.2999999821186","","<p>How familiar did this sound to you?</p><p>1&nbsp;&nbsp;&nbsp;&nbsp;&nbsp;&nbsp;&nbsp;&nbsp;&nbsp;&nbsp;&nbsp;&nbsp;&nbsp;&nbsp;&nbsp;&nbsp;&nbsp;&nbsp;&nbsp;2&nbsp;&nbsp;&nbsp;&nbsp;&nbsp;&nbsp;&nbsp;&nbsp;&nbsp;&nbsp;&nbsp;&nbsp;&nbsp;&nbsp;&nbsp;&nbsp;&nbsp;&nbsp;&nbsp;3&nbsp;&nbsp;&nbsp;&nbsp;&nbsp;&nbsp;&nbsp;&nbsp;&nbsp;&nbsp;&nbsp;&nbsp;&nbsp;&nbsp;&nbsp;&nbsp;&nbsp;&nbsp;&nbsp;4</p><p style=""font-size:14px"">Not at all familiar&nbsp;&nbsp;&nbsp;&nbsp;A little familiar&nbsp;&nbsp;&nbsp;Moderately familiar&nbsp;&nbsp;&nbsp;Extremely familiar</p><p>(press the corresponding number on your keyboard)</p>","","50","","","FAM-RESPONSE","","","","","","","","","","","","","","","","","","","sounds/B/FAM/N003.mp3","nonword","","","","","","","","","","","","","","","","","","",""
"html-keyboard-response","246","1408844","0.0-7.0-1.0-0.2","2","1","n6ly78yooxf6kf7","","null","","","","null","","","","","","","","","","","","","","","","","","","","","","","","","","","","","","","","","","","","","","","","","",""
"audio-keyboard-response","247","1409775","0.0-7.0-1.0-1.2","2","1","n6ly78yooxf6kf7","","null","","sounds/B/FAM/W002.mp3","","null","","","","","","","","","","","","","","","","","","","","","","","","","","","","","","","","","","","","","","","","","",""
"html-keyboard-response","248","1412370","0.0-7.0-1.0-2.2","2","1","n6ly78yooxf6kf7","","2085.9000000059605","","<p>How familiar did this sound to you?</p><p>1&nbsp;&nbsp;&nbsp;&nbsp;&nbsp;&nbsp;&nbsp;&nbsp;&nbsp;&nbsp;&nbsp;&nbsp;&nbsp;&nbsp;&nbsp;&nbsp;&nbsp;&nbsp;&nbsp;2&nbsp;&nbsp;&nbsp;&nbsp;&nbsp;&nbsp;&nbsp;&nbsp;&nbsp;&nbsp;&nbsp;&nbsp;&nbsp;&nbsp;&nbsp;&nbsp;&nbsp;&nbsp;&nbsp;3&nbsp;&nbsp;&nbsp;&nbsp;&nbsp;&nbsp;&nbsp;&nbsp;&nbsp;&nbsp;&nbsp;&nbsp;&nbsp;&nbsp;&nbsp;&nbsp;&nbsp;&nbsp;&nbsp;4</p><p style=""font-size:14px"">Not at all familiar&nbsp;&nbsp;&nbsp;&nbsp;A little familiar&nbsp;&nbsp;&nbsp;Moderately familiar&nbsp;&nbsp;&nbsp;Extremely familiar</p><p>(press the corresponding number on your keyboard)</p>","","51","","","FAM-RESPONSE","","","","","","","","","","","","","","","","","","","sounds/B/FAM/W002.mp3","word","","","","","","","","","","","","","","","","","","",""
"html-keyboard-response","249","1414404","0.0-7.0-1.0-0.3","2","1","n6ly78yooxf6kf7","","null","","","","null","","","","","","","","","","","","","","","","","","","","","","","","","","","","","","","","","","","","","","","","","",""
"audio-keyboard-response","250","1415335","0.0-7.0-1.0-1.3","2","1","n6ly78yooxf6kf7","","null","","sounds/B/FAM/W001.mp3","","null","","","","","","","","","","","","","","","","","","","","","","","","","","","","","","","","","","","","","","","","","",""
"html-keyboard-response","251","1417150","0.0-7.0-1.0-2.3","2","1","n6ly78yooxf6kf7","","1306","","<p>How familiar did this sound to you?</p><p>1&nbsp;&nbsp;&nbsp;&nbsp;&nbsp;&nbsp;&nbsp;&nbsp;&nbsp;&nbsp;&nbsp;&nbsp;&nbsp;&nbsp;&nbsp;&nbsp;&nbsp;&nbsp;&nbsp;2&nbsp;&nbsp;&nbsp;&nbsp;&nbsp;&nbsp;&nbsp;&nbsp;&nbsp;&nbsp;&nbsp;&nbsp;&nbsp;&nbsp;&nbsp;&nbsp;&nbsp;&nbsp;&nbsp;3&nbsp;&nbsp;&nbsp;&nbsp;&nbsp;&nbsp;&nbsp;&nbsp;&nbsp;&nbsp;&nbsp;&nbsp;&nbsp;&nbsp;&nbsp;&nbsp;&nbsp;&nbsp;&nbsp;4</p><p style=""font-size:14px"">Not at all familiar&nbsp;&nbsp;&nbsp;&nbsp;A little familiar&nbsp;&nbsp;&nbsp;Moderately familiar&nbsp;&nbsp;&nbsp;Extremely familiar</p><p>(press the corresponding number on your keyboard)</p>","","52","","","FAM-RESPONSE","","","","","","","","","","","","","","","","","","","sounds/B/FAM/W001.mp3","word","","","","","","","","","","","","","","","","","","",""
"html-keyboard-response","252","1419174","0.0-7.0-1.0-0.4","2","1","n6ly78yooxf6kf7","","null","","","","null","","","","","","","","","","","","","","","","","","","","","","","","","","","","","","","","","","","","","","","","","",""
"audio-keyboard-response","253","1420115","0.0-7.0-1.0-1.4","2","1","n6ly78yooxf6kf7","","null","","sounds/B/FAM/P004.mp3","","null","","","","","","","","","","","","","","","","","","","","","","","","","","","","","","","","","","","","","","","","","",""
"html-keyboard-response","254","1421650","0.0-7.0-1.0-2.4","2","1","n6ly78yooxf6kf7","","1016","","<p>How familiar did this sound to you?</p><p>1&nbsp;&nbsp;&nbsp;&nbsp;&nbsp;&nbsp;&nbsp;&nbsp;&nbsp;&nbsp;&nbsp;&nbsp;&nbsp;&nbsp;&nbsp;&nbsp;&nbsp;&nbsp;&nbsp;2&nbsp;&nbsp;&nbsp;&nbsp;&nbsp;&nbsp;&nbsp;&nbsp;&nbsp;&nbsp;&nbsp;&nbsp;&nbsp;&nbsp;&nbsp;&nbsp;&nbsp;&nbsp;&nbsp;3&nbsp;&nbsp;&nbsp;&nbsp;&nbsp;&nbsp;&nbsp;&nbsp;&nbsp;&nbsp;&nbsp;&nbsp;&nbsp;&nbsp;&nbsp;&nbsp;&nbsp;&nbsp;&nbsp;4</p><p style=""font-size:14px"">Not at all familiar&nbsp;&nbsp;&nbsp;&nbsp;A little familiar&nbsp;&nbsp;&nbsp;Moderately familiar&nbsp;&nbsp;&nbsp;Extremely familiar</p><p>(press the corresponding number on your keyboard)</p>","","50","","","FAM-RESPONSE","","","","","","","","","","","","","","","","","","","sounds/B/FAM/P004.mp3","partword","","","","","","","","","","","","","","","","","","",""
"html-keyboard-response","255","1423674","0.0-7.0-1.0-0.5","2","1","n6ly78yooxf6kf7","","null","","","","null","","","","","","","","","","","","","","","","","","","","","","","","","","","","","","","","","","","","","","","","","",""
"audio-keyboard-response","256","1424605","0.0-7.0-1.0-1.5","2","1","n6ly78yooxf6kf7","","null","","sounds/B/FAM/P003.mp3","","null","","","","","","","","","","","","","","","","","","","","","","","","","","","","","","","","","","","","","","","","","",""
"html-keyboard-response","257","1426180","0.0-7.0-1.0-2.5","2","1","n6ly78yooxf6kf7","","1055.800000011921","","<p>How familiar did this sound to you?</p><p>1&nbsp;&nbsp;&nbsp;&nbsp;&nbsp;&nbsp;&nbsp;&nbsp;&nbsp;&nbsp;&nbsp;&nbsp;&nbsp;&nbsp;&nbsp;&nbsp;&nbsp;&nbsp;&nbsp;2&nbsp;&nbsp;&nbsp;&nbsp;&nbsp;&nbsp;&nbsp;&nbsp;&nbsp;&nbsp;&nbsp;&nbsp;&nbsp;&nbsp;&nbsp;&nbsp;&nbsp;&nbsp;&nbsp;3&nbsp;&nbsp;&nbsp;&nbsp;&nbsp;&nbsp;&nbsp;&nbsp;&nbsp;&nbsp;&nbsp;&nbsp;&nbsp;&nbsp;&nbsp;&nbsp;&nbsp;&nbsp;&nbsp;4</p><p style=""font-size:14px"">Not at all familiar&nbsp;&nbsp;&nbsp;&nbsp;A little familiar&nbsp;&nbsp;&nbsp;Moderately familiar&nbsp;&nbsp;&nbsp;Extremely familiar</p><p>(press the corresponding number on your keyboard)</p>","","50","","","FAM-RESPONSE","","","","","","","","","","","","","","","","","","","sounds/B/FAM/P003.mp3","partword","","","","","","","","","","","","","","","","","","",""
"html-keyboard-response","258","1428203","0.0-7.0-1.0-0.6","2","1","n6ly78yooxf6kf7","","null","","","","null","","","","","","","","","","","","","","","","","","","","","","","","","","","","","","","","","","","","","","","","","",""
"audio-keyboard-response","259","1429135","0.0-7.0-1.0-1.6","2","1","n6ly78yooxf6kf7","","null","","sounds/B/FAM/N002.mp3","","null","","","","","","","","","","","","","","","","","","","","","","","","","","","","","","","","","","","","","","","","","",""
"html-keyboard-response","260","1433140","0.0-7.0-1.0-2.6","2","1","n6ly78yooxf6kf7","","3486","","<p>How familiar did this sound to you?</p><p>1&nbsp;&nbsp;&nbsp;&nbsp;&nbsp;&nbsp;&nbsp;&nbsp;&nbsp;&nbsp;&nbsp;&nbsp;&nbsp;&nbsp;&nbsp;&nbsp;&nbsp;&nbsp;&nbsp;2&nbsp;&nbsp;&nbsp;&nbsp;&nbsp;&nbsp;&nbsp;&nbsp;&nbsp;&nbsp;&nbsp;&nbsp;&nbsp;&nbsp;&nbsp;&nbsp;&nbsp;&nbsp;&nbsp;3&nbsp;&nbsp;&nbsp;&nbsp;&nbsp;&nbsp;&nbsp;&nbsp;&nbsp;&nbsp;&nbsp;&nbsp;&nbsp;&nbsp;&nbsp;&nbsp;&nbsp;&nbsp;&nbsp;4</p><p style=""font-size:14px"">Not at all familiar&nbsp;&nbsp;&nbsp;&nbsp;A little familiar&nbsp;&nbsp;&nbsp;Moderately familiar&nbsp;&nbsp;&nbsp;Extremely familiar</p><p>(press the corresponding number on your keyboard)</p>","","50","","","FAM-RESPONSE","","","","","","","","","","","","","","","","","","","sounds/B/FAM/N002.mp3","nonword","","","","","","","","","","","","","","","","","","",""
"html-keyboard-response","261","1435164","0.0-7.0-1.0-0.7","2","1","n6ly78yooxf6kf7","","null","","","","null","","","","","","","","","","","","","","","","","","","","","","","","","","","","","","","","","","","","","","","","","",""
"audio-keyboard-response","262","1436095","0.0-7.0-1.0-1.7","2","1","n6ly78yooxf6kf7","","null","","sounds/B/FAM/P001.mp3","","null","","","","","","","","","","","","","","","","","","","","","","","","","","","","","","","","","","","","","","","","","",""
"html-keyboard-response","263","1437710","0.0-7.0-1.0-2.7","2","1","n6ly78yooxf6kf7","","1105.7999999821186","","<p>How familiar did this sound to you?</p><p>1&nbsp;&nbsp;&nbsp;&nbsp;&nbsp;&nbsp;&nbsp;&nbsp;&nbsp;&nbsp;&nbsp;&nbsp;&nbsp;&nbsp;&nbsp;&nbsp;&nbsp;&nbsp;&nbsp;2&nbsp;&nbsp;&nbsp;&nbsp;&nbsp;&nbsp;&nbsp;&nbsp;&nbsp;&nbsp;&nbsp;&nbsp;&nbsp;&nbsp;&nbsp;&nbsp;&nbsp;&nbsp;&nbsp;3&nbsp;&nbsp;&nbsp;&nbsp;&nbsp;&nbsp;&nbsp;&nbsp;&nbsp;&nbsp;&nbsp;&nbsp;&nbsp;&nbsp;&nbsp;&nbsp;&nbsp;&nbsp;&nbsp;4</p><p style=""font-size:14px"">Not at all familiar&nbsp;&nbsp;&nbsp;&nbsp;A little familiar&nbsp;&nbsp;&nbsp;Moderately familiar&nbsp;&nbsp;&nbsp;Extremely familiar</p><p>(press the corresponding number on your keyboard)</p>","","51","","","FAM-RESPONSE","","","","","","","","","","","","","","","","","","","sounds/B/FAM/P001.mp3","partword","","","","","","","","","","","","","","","","","","",""
"html-keyboard-response","264","1439734","0.0-7.0-1.0-0.8","2","1","n6ly78yooxf6kf7","","null","","","","null","","","","","","","","","","","","","","","","","","","","","","","","","","","","","","","","","","","","","","","","","",""
"audio-keyboard-response","265","1440675","0.0-7.0-1.0-1.8","2","1","n6ly78yooxf6kf7","","null","","sounds/B/FAM/W004.mp3","","null","","","","","","","","","","","","","","","","","","","","","","","","","","","","","","","","","","","","","","","","","",""
"html-keyboard-response","266","1442010","0.0-7.0-1.0-2.8","2","1","n6ly78yooxf6kf7","","825.8999999761581","","<p>How familiar did this sound to you?</p><p>1&nbsp;&nbsp;&nbsp;&nbsp;&nbsp;&nbsp;&nbsp;&nbsp;&nbsp;&nbsp;&nbsp;&nbsp;&nbsp;&nbsp;&nbsp;&nbsp;&nbsp;&nbsp;&nbsp;2&nbsp;&nbsp;&nbsp;&nbsp;&nbsp;&nbsp;&nbsp;&nbsp;&nbsp;&nbsp;&nbsp;&nbsp;&nbsp;&nbsp;&nbsp;&nbsp;&nbsp;&nbsp;&nbsp;3&nbsp;&nbsp;&nbsp;&nbsp;&nbsp;&nbsp;&nbsp;&nbsp;&nbsp;&nbsp;&nbsp;&nbsp;&nbsp;&nbsp;&nbsp;&nbsp;&nbsp;&nbsp;&nbsp;4</p><p style=""font-size:14px"">Not at all familiar&nbsp;&nbsp;&nbsp;&nbsp;A little familiar&nbsp;&nbsp;&nbsp;Moderately familiar&nbsp;&nbsp;&nbsp;Extremely familiar</p><p>(press the corresponding number on your keyboard)</p>","","50","","","FAM-RESPONSE","","","","","","","","","","","","","","","","","","","sounds/B/FAM/W004.mp3","word","","","","","","","","","","","","","","","","","","",""
"html-keyboard-response","267","1444039","0.0-7.0-1.0-0.9","2","1","n6ly78yooxf6kf7","","null","","","","null","","","","","","","","","","","","","","","","","","","","","","","","","","","","","","","","","","","","","","","","","",""
"audio-keyboard-response","268","1444975","0.0-7.0-1.0-1.9","2","1","n6ly78yooxf6kf7","","null","","sounds/B/FAM/W003.mp3","","null","","","","","","","","","","","","","","","","","","","","","","","","","","","","","","","","","","","","","","","","","",""
"html-keyboard-response","269","1446070","0.0-7.0-1.0-2.9","2","1","n6ly78yooxf6kf7","","586","","<p>How familiar did this sound to you?</p><p>1&nbsp;&nbsp;&nbsp;&nbsp;&nbsp;&nbsp;&nbsp;&nbsp;&nbsp;&nbsp;&nbsp;&nbsp;&nbsp;&nbsp;&nbsp;&nbsp;&nbsp;&nbsp;&nbsp;2&nbsp;&nbsp;&nbsp;&nbsp;&nbsp;&nbsp;&nbsp;&nbsp;&nbsp;&nbsp;&nbsp;&nbsp;&nbsp;&nbsp;&nbsp;&nbsp;&nbsp;&nbsp;&nbsp;3&nbsp;&nbsp;&nbsp;&nbsp;&nbsp;&nbsp;&nbsp;&nbsp;&nbsp;&nbsp;&nbsp;&nbsp;&nbsp;&nbsp;&nbsp;&nbsp;&nbsp;&nbsp;&nbsp;4</p><p style=""font-size:14px"">Not at all familiar&nbsp;&nbsp;&nbsp;&nbsp;A little familiar&nbsp;&nbsp;&nbsp;Moderately familiar&nbsp;&nbsp;&nbsp;Extremely familiar</p><p>(press the corresponding number on your keyboard)</p>","","51","","","FAM-RESPONSE","","","","","","","","","","","","","","","","","","","sounds/B/FAM/W003.mp3","word","","","","","","","","","","","","","","","","","","",""
"html-keyboard-response","270","1448080","0.0-7.0-1.0-0.10","2","1","n6ly78yooxf6kf7","","null","","","","null","","","","","","","","","","","","","","","","","","","","","","","","","","","","","","","","","","","","","","","","","",""
"audio-keyboard-response","271","1449015","0.0-7.0-1.0-1.10","2","1","n6ly78yooxf6kf7","","null","","sounds/B/FAM/N004.mp3","","null","","","","","","","","","","","","","","","","","","","","","","","","","","","","","","","","","","","","","","","","","",""
"html-keyboard-response","272","1450090","0.0-7.0-1.0-2.10","2","1","n6ly78yooxf6kf7","","568.0999999940395","","<p>How familiar did this sound to you?</p><p>1&nbsp;&nbsp;&nbsp;&nbsp;&nbsp;&nbsp;&nbsp;&nbsp;&nbsp;&nbsp;&nbsp;&nbsp;&nbsp;&nbsp;&nbsp;&nbsp;&nbsp;&nbsp;&nbsp;2&nbsp;&nbsp;&nbsp;&nbsp;&nbsp;&nbsp;&nbsp;&nbsp;&nbsp;&nbsp;&nbsp;&nbsp;&nbsp;&nbsp;&nbsp;&nbsp;&nbsp;&nbsp;&nbsp;3&nbsp;&nbsp;&nbsp;&nbsp;&nbsp;&nbsp;&nbsp;&nbsp;&nbsp;&nbsp;&nbsp;&nbsp;&nbsp;&nbsp;&nbsp;&nbsp;&nbsp;&nbsp;&nbsp;4</p><p style=""font-size:14px"">Not at all familiar&nbsp;&nbsp;&nbsp;&nbsp;A little familiar&nbsp;&nbsp;&nbsp;Moderately familiar&nbsp;&nbsp;&nbsp;Extremely familiar</p><p>(press the corresponding number on your keyboard)</p>","","52","","","FAM-RESPONSE","","","","","","","","","","","","","","","","","","","sounds/B/FAM/N004.mp3","nonword","","","","","","","","","","","","","","","","","","",""
"html-keyboard-response","273","1452109","0.0-7.0-1.0-0.11","2","1","n6ly78yooxf6kf7","","null","","","","null","","","","","","","","","","","","","","","","","","","","","","","","","","","","","","","","","","","","","","","","","",""
"audio-keyboard-response","274","1453045","0.0-7.0-1.0-1.11","2","1","n6ly78yooxf6kf7","","null","","sounds/B/FAM/N001.mp3","","null","","","","","","","","","","","","","","","","","","","","","","","","","","","","","","","","","","","","","","","","","",""
"html-keyboard-response","275","1453860","0.0-7.0-1.0-2.11","2","1","n6ly78yooxf6kf7","","306","","<p>How familiar did this sound to you?</p><p>1&nbsp;&nbsp;&nbsp;&nbsp;&nbsp;&nbsp;&nbsp;&nbsp;&nbsp;&nbsp;&nbsp;&nbsp;&nbsp;&nbsp;&nbsp;&nbsp;&nbsp;&nbsp;&nbsp;2&nbsp;&nbsp;&nbsp;&nbsp;&nbsp;&nbsp;&nbsp;&nbsp;&nbsp;&nbsp;&nbsp;&nbsp;&nbsp;&nbsp;&nbsp;&nbsp;&nbsp;&nbsp;&nbsp;3&nbsp;&nbsp;&nbsp;&nbsp;&nbsp;&nbsp;&nbsp;&nbsp;&nbsp;&nbsp;&nbsp;&nbsp;&nbsp;&nbsp;&nbsp;&nbsp;&nbsp;&nbsp;&nbsp;4</p><p style=""font-size:14px"">Not at all familiar&nbsp;&nbsp;&nbsp;&nbsp;A little familiar&nbsp;&nbsp;&nbsp;Moderately familiar&nbsp;&nbsp;&nbsp;Extremely familiar</p><p>(press the corresponding number on your keyboard)</p>","","51","","","FAM-RESPONSE","","","","","","","","","","","","","","","","","","","sounds/B/FAM/N001.mp3","nonword","","","","","","","","","","","","","","","","","","",""
"html-button-response","276","1469052","0.0-8.0-0.0","2","1","n6ly78yooxf6kf7","","14177.800000011921","","<p>You will now listen to longer sound sequences.</p><p>Each sound sequence will last about 16 seconds.</p><p>On each trial, you will be given a <u>TARGET SOUND</u>. Your task is to listen very carefully for this sound.</p><p>Every time you hear the <u>TARGET SOUND</u>, you will press the <b>SPACEBAR</b> as quickly and accurately as you can.</p>","0","","","","","","","","","","","","","","","","","","","","","","","","","","","","","","","","","","","","","","","","","","",""
"html-button-response","277","1481382","0.0-8.0-1.0","2","1","n6ly78yooxf6kf7","","12067.5","","<p>It is very important that you make your responses as quickly and accurately as possible.</p><p>To help you make your responses, you will be able to listen to the <u>TARGET SOUND</u> at the beginning of each trial.</p><p>There will be 36 total trials.</p><p><b>Note: This is meant to be a difficult task. We simply want you to try your best.</p>","0","","","","","","","","","","","","","","","","","","","","","","","","","","","","","","","","","","","","","","","","","","",""
"html-button-response","278","1483499","0.0-8.0-2.0-0.0","2","1","n6ly78yooxf6kf7","","1848.800000011921","","<p>Trial 1 of 36</p>","0","","","","","","","","","","","","","","","","","","","","","","","","","FU","sounds/syllables/fu_SWS.wav","4500,7200,9900,12600","1","","","","","","","","","","","","","","",""
"html-keyboard-response","279","1486160","0.0-8.0-2.0-1.0","2","1","n6ly78yooxf6kf7","","2660.800000011921","","","","80","","","","","","","","","","","","","","","","","","","","","","","","FU","","4500,7200,9900,12600","1","","","","","","","","","","","","","","",""
"audio-keyboard-response","280","1486457","0.0-8.0-2.0-2.0-0.0","2","1","n6ly78yooxf6kf7","","null","","sounds/syllables/fu_SWS.wav","","null","","","","","","","","","","","","","","","","","","","","","","","","","","","","","","","","","","","","","","","","","",""
"html-keyboard-response","281","1489081","0.0-8.0-2.0-2.0-1.0","2","1","n6ly78yooxf6kf7","","2623.800000011921","","<p>To replay the <u>TARGET SOUND</u>, press P.</p> When you are ready to begin, press SPACEBAR.","","32","","","","","","","","","","","","","","","","","","","","","","","","","","","","","","","","","","","","","","","","","",""
"audio-keyboard-response","282","1504038","0.0-8.0-2.0-3.0","2","1","n6ly78yooxf6kf7","","699","","sounds/B/TD/FU_05_TD.mp3","","32","","","TD_SUMMARY","","","","","","","","","","","","","","","","","","","","","FU","","4500,7200,9900,12600","1","4500","7200","9900","12600","null","null","null","null","703.3000000119209_3383_3902.800000011921_6713.4000000059605_14043","1","","","","",""
"html-button-response","283","1505942","0.0-8.0-2.0-0.1","2","1","n6ly78yooxf6kf7","","1903.300000011921","","<p>Trial 2 of 36</p>","0","","","","","","","","","","","","","","","","","","","","","","","","","TI","sounds/syllables/ti_SWS.wav","900,7200,9000,11700","1","","","","","","","","","","","","","","",""
"html-keyboard-response","284","1507891","0.0-8.0-2.0-1.1","2","1","n6ly78yooxf6kf7","","1947.8999999761581","","","","80","","","","","","","","","","","","","","","","","","","","","","","","TI","","900,7200,9000,11700","1","","","","","","","","","","","","","","",""
"audio-keyboard-response","285","1508188","0.0-8.0-2.0-2.1-0.1","2","1","n6ly78yooxf6kf7","","null","","sounds/syllables/ti_SWS.wav","","null","","","","","","","","","","","","","","","","","","","","","","","","","","","","","","","","","","","","","","","","","",""
"html-keyboard-response","286","1509541","0.0-8.0-2.0-2.1-1.1","2","1","n6ly78yooxf6kf7","","1352.8999999761581","","<p>To replay the <u>TARGET SOUND</u>, press P.</p> When you are ready to begin, press SPACEBAR.","","32","","","","","","","","","","","","","","","","","","","","","","","","","","","","","","","","","","","","","","","","","",""
"audio-keyboard-response","287","1524498","0.0-8.0-2.0-3.1","2","1","n6ly78yooxf6kf7","","1432","","sounds/B/TD/TI_04_TD.mp3","","32","","","TD_SUMMARY","","","","","","","","","","","","","","","","","","","","","TI","","900,7200,9000,11700","1","900","7200","9000","11700","1143.8999999761581","null","1063.7999999821186","723.8999999761581","_____1424.0999999940395_2043.8999999761581_4583.799999982119_5024_5463.799999982119_6124.5999999940395_10063.799999982119_12423.899999976158","1","","","","",""
"html-button-response","288","1525889","0.0-8.0-2.0-0.2","2","1","n6ly78yooxf6kf7","","1390.0999999940395","","<p>Trial 3 of 36</p>","0","","","","","","","","","","","","","","","","","","","","","","","","","SU","sounds/syllables/su_SWS.wav","1200,3000,7500,10200","2","","","","","","","","","","","","","","",""
"html-keyboard-response","289","1528332","0.0-8.0-2.0-1.2","2","1","n6ly78yooxf6kf7","","2441.5","","","","80","","","","","","","","","","","","","","","","","","","","","","","","SU","","1200,3000,7500,10200","2","","","","","","","","","","","","","","",""
"audio-keyboard-response","290","1528628","0.0-8.0-2.0-2.2-0.2","2","1","n6ly78yooxf6kf7","","null","","sounds/syllables/su_SWS.wav","","null","","","","","","","","","","","","","","","","","","","","","","","","","","","","","","","","","","","","","","","","","",""
"html-keyboard-response","291","1530262","0.0-8.0-2.0-2.2-1.2","2","1","n6ly78yooxf6kf7","","1633.800000011921","","<p>To replay the <u>TARGET SOUND</u>, press P.</p> When you are ready to begin, press SPACEBAR.","","32","","","","","","","","","","","","","","","","","","","","","","","","","","","","","","","","","","","","","","","","","",""
"audio-keyboard-response","292","1545208","0.0-8.0-2.0-3.2","2","1","n6ly78yooxf6kf7","","1640","","sounds/B/TD/SU_07_TD.mp3","","32","","","TD_SUMMARY","","","","","","","","","","","","","","","","","","","","","SU","","1200,3000,7500,10200","2","1200","3000","7500","10200","434.60000002384186","444.80000001192093","774.7000000178814","774.8000000119209","_____________1634.6000000238419_3444.800000011921_5014.9000000059605_8274.700000017881_10974.800000011921_13304.5","1","","","","",""
"html-button-response","293","1547858","0.0-8.0-2.0-0.3","2","1","n6ly78yooxf6kf7","","2649.199999988079","","<p>Trial 4 of 36</p>","0","","","","","","","","","","","","","","","","","","","","","","","","","NI","sounds/syllables/ni_SWS.wav","2100,5700,9300,11100","2","","","","","","","","","","","","","","",""
"html-keyboard-response","294","1549562","0.0-8.0-2.0-1.3","2","1","n6ly78yooxf6kf7","","1703.199999988079","","","","80","","","","","","","","","","","","","","","","","","","","","","","","NI","","2100,5700,9300,11100","2","","","","","","","","","","","","","","",""
"audio-keyboard-response","295","1549868","0.0-8.0-2.0-2.3-0.3","2","1","n6ly78yooxf6kf7","","null","","sounds/syllables/ni_SWS.wav","","null","","","","","","","","","","","","","","","","","","","","","","","","","","","","","","","","","","","","","","","","","",""
"html-keyboard-response","296","1551152","0.0-8.0-2.0-2.3-1.3","2","1","n6ly78yooxf6kf7","","1284","","<p>To replay the <u>TARGET SOUND</u>, press P.</p> When you are ready to begin, press SPACEBAR.","","32","","","","","","","","","","","","","","","","","","","","","","","","","","","","","","","","","","","","","","","","","",""
"audio-keyboard-response","297","1566097","0.0-8.0-2.0-3.3","2","1","n6ly78yooxf6kf7","","1400","","sounds/B/TD/NI_08_TD.mp3","","32","","","TD_SUMMARY","","","","","","","","","","","","","","","","","","","","","NI","","2100,5700,9300,11100","2","2100","5700","9300","11100","null","335.30000001192093","504.90000000596046","584.9000000059605","___________________1394.9000000059605_4885.199999988079_6035.300000011921_7955.199999988079_9804.90000000596_11684.90000000596","1","","","","",""
"html-button-response","298","1567049","0.0-8.0-2.0-0.4","2","1","n6ly78yooxf6kf7","","950.8999999761581","","<p>Trial 5 of 36</p>","0","","","","","","","","","","","","","","","","","","","","","","","","","RE","sounds/syllables/re_SWS.wav","1500,3300,7800,13200","3","","","","","","","","","","","","","","",""
"html-keyboard-response","299","1568011","0.0-8.0-2.0-1.4","2","1","n6ly78yooxf6kf7","","962","","","","80","","","","","","","","","","","","","","","","","","","","","","","","RE","","1500,3300,7800,13200","3","","","","","","","","","","","","","","",""
"audio-keyboard-response","300","1568307","0.0-8.0-2.0-2.4-0.4","2","1","n6ly78yooxf6kf7","","null","","sounds/syllables/re_SWS.wav","","null","","","","","","","","","","","","","","","","","","","","","","","","","","","","","","","","","","","","","","","","","",""
"html-keyboard-response","301","1569452","0.0-8.0-2.0-2.4-1.4","2","1","n6ly78yooxf6kf7","","1144.199999988079","","<p>To replay the <u>TARGET SOUND</u>, press P.</p> When you are ready to begin, press SPACEBAR.","","32","","","","","","","","","","","","","","","","","","","","","","","","","","","","","","","","","","","","","","","","","",""
"audio-keyboard-response","302","1584397","0.0-8.0-2.0-3.4","2","1","n6ly78yooxf6kf7","","1331","","sounds/B/TD/RE_08_TD.mp3","","32","","","TD_SUMMARY","","","","","","","","","","","","","","","","","","","","","RE","","1500,3300,7800,13200","3","1500","3300","7800","13200","null","null","244.90000000596046","null","_________________________1324.9000000059605_3204.9000000059605_8044.9000000059605_10095.200000017881_11945.09999999404_13265","1","","","","",""
"html-button-response","303","1585145","0.0-8.0-2.0-0.5","2","1","n6ly78yooxf6kf7","","746.9000000059605","","<p>Trial 6 of 36</p>","0","","","","","","","","","","","","","","","","","","","","","","","","","SU","sounds/syllables/su_SWS.wav","3900,8400,10200,12000","2","","","","","","","","","","","","","","",""
"html-keyboard-response","304","1586701","0.0-8.0-2.0-1.5","2","1","n6ly78yooxf6kf7","","1555.4000000059605","","","","80","","","","","","","","","","","","","","","","","","","","","","","","SU","","3900,8400,10200,12000","2","","","","","","","","","","","","","","",""
"audio-keyboard-response","305","1586997","0.0-8.0-2.0-2.5-0.5","2","1","n6ly78yooxf6kf7","","null","","sounds/syllables/su_SWS.wav","","null","","","","","","","","","","","","","","","","","","","","","","","","","","","","","","","","","","","","","","","","","",""
"html-keyboard-response","306","1587782","0.0-8.0-2.0-2.5-1.5","2","1","n6ly78yooxf6kf7","","784.0999999940395","","<p>To replay the <u>TARGET SOUND</u>, press P.</p> When you are ready to begin, press SPACEBAR.","","32","","","","","","","","","","","","","","","","","","","","","","","","","","","","","","","","","","","","","","","","","",""
"audio-keyboard-response","307","1602727","0.0-8.0-2.0-3.5","2","1","n6ly78yooxf6kf7","","4720","","sounds/B/TD/SU_06_TD.mp3","","32","","","TD_SUMMARY","","","","","","","","","","","","","","","","","","","","","SU","","3900,8400,10200,12000","2","3900","8400","10200","12000","815.5999999940395","595","675.4000000059605","715.2000000178814","_______________________________4715.5999999940395_6775.300000011921_8995_10875.40000000596_12715.200000017881","1","","","","",""
"html-button-response","308","1603628","0.0-8.0-2.0-0.6","2","1","n6ly78yooxf6kf7","","899.4000000059605","","<p>Trial 7 of 36</p>","0","","","","","","","","","","","","","","","","","","","","","","","","","TI","sounds/syllables/ti_SWS.wav","900,3600,5400,9000","1","","","","","","","","","","","","","","",""
"html-keyboard-response","309","1604591","0.0-8.0-2.0-1.6","2","1","n6ly78yooxf6kf7","","963.0999999940395","","","","80","","","","","","","","","","","","","","","","","","","","","","","","TI","","900,3600,5400,9000","1","","","","","","","","","","","","","","",""
"audio-keyboard-response","310","1604897","0.0-8.0-2.0-2.6-0.6","2","1","n6ly78yooxf6kf7","","null","","sounds/syllables/ti_SWS.wav","","null","","","","","","","","","","","","","","","","","","","","","","","","","","","","","","","","","","","","","","","","","",""
"html-keyboard-response","311","1605612","0.0-8.0-2.0-2.6-1.6","2","1","n6ly78yooxf6kf7","","714","","<p>To replay the <u>TARGET SOUND</u>, press P.</p> When you are ready to begin, press SPACEBAR.","","32","","","","","","","","","","","","","","","","","","","","","","","","","","","","","","","","","","","","","","","","","",""
"audio-keyboard-response","312","1620567","0.0-8.0-2.0-3.6","2","1","n6ly78yooxf6kf7","","648","","sounds/B/TD/TI_03_TD.mp3","","32","","","TD_SUMMARY","","","","","","","","","","","","","","","","","","","","","TI","","900,3600,5400,9000","1","900","3600","5400","9000","null","524.8000000119209","944.8000000119209","null","____________________________________645_3124.5999999940395_4124.800000011921_5325.0999999940395_6344.800000011921_7124.9000000059605_8615_11464.800000011921_12775.90000000596_13485.09999999404","1","","","","",""
"html-button-response","313","1621697","0.0-8.0-2.0-0.7","2","1","n6ly78yooxf6kf7","","1128.5","","<p>Trial 8 of 36</p>","0","","","","","","","","","","","","","","","","","","","","","","","","","TA","sounds/syllables/ta_SWS.wav","1500,6900,11400,13200","3","","","","","","","","","","","","","","",""
