"trial_type","trial_index","time_elapsed","internal_node_id","counterbalance","lang_instruct","ParticipantID","view_history","rt","url","stimulus","button_pressed","key_press","correctRESP","correct","designation","location","correctanswer","responses","sentence","keywords","typed_resp","keyword1_acc","keyword2_acc","keyword3_acc","keyword4_acc","keyword5_acc","total_acc","prop_acc","timeouts","pause_rt01","pause_rt02","train_file","numKeyPress","sound","fam_type","SYLLABLE","EXEMPLAR","TD_LOCS","TD_TYPE","TDLOC_01","TDLOC_02","TDLOC_03","TDLOC_04","TD_RT_01","TD_RT_02","TD_RT_03","TD_RT_04","TD_SUBJ_RTs","number_of_plays","slider_start","response","question_order","syllable","syllable_type"
"pavlovia","0","1","0.0-0.0","3","1","4slmgu4qjdxhwl9","","","","","","","","","","","","","","","","","","","","","","","","","","","","","","","","","","","","","","","","","","","","","","","",""
"instructions","1","7441","0.0-1.0","3","1","4slmgu4qjdxhwl9","[{""page_index"":0,""viewing_time"":5189},{""page_index"":1,""viewing_time"":2247}]","7440","","","","","","","","","","","","","","","","","","","","","","","","","","","","","","","","","","","","","","","","","","","","","",""
"external-html","2","9974","0.0-2.0","3","1","4slmgu4qjdxhwl9","","2530.0000000000073","consent/consent.html","","","","","","","","","","","","","","","","","","","","","","","","","","","","","","","","","","","","","","","","","","","","",""
"html-button-response","3","11541","0.0-3.0-0.0-0.0","3","1","4slmgu4qjdxhwl9","","1566","","<p>Welcome to the study. You will first complete a short volume calibration and headphone check.</p><p>Please make sure you are in a quiet listening environment, that you are wearing headphones, and that your computer's volume is turned on.<p></p>","0","","","","","","","","","","","","","","","","","","","","","","","","","","","","","","","","","","","","","","","","","","",""
"html-button-response","4","13148","0.0-3.0-0.0-1.0","3","1","4slmgu4qjdxhwl9","","1355","","<p>The volume calibration will be first.</p><p>You will hear a thirty-second noise. Please adjust your computer's volume so that this noise is being presented at a comfortable level.<p></p>","0","","","","","","","","","","","","","","","","","","","","","","","","","","","","","","","","","","","","","","","","","","",""
"audio-button-response","5","17596","0.0-3.0-0.0-2.0","3","1","4slmgu4qjdxhwl9","","3744","","audCalib/volumetest.mp3","0","","","","","","","","","","","","","","","","","","","","","","","","","","","","","","","","","","","","","","","","","","",""
"html-button-response","6","18854","0.0-3.0-1.0-0.0","3","1","4slmgu4qjdxhwl9","","1255.0000000000073","","<p>You will now complete a short headphone check.</p><p>On each trial, you will hear three tones. One of these tones will be quieter than the others. Your task is to identify whether the quiet tone occured first, second, or third.</p><p>There are six trials in total.<p></p>","0","","","","","","","","","","","","","","","","","","","","","","","","","","","","","","","","","","","","","","","","","","",""
"html-keyboard-response","7","19607","0.0-3.0-1.0-1.0-0.0","3","1","4slmgu4qjdxhwl9","","null","","<div style=""font-size:60px;"">+</div>","","null","","","","","","","","","","","","","","","","","","","","","","","","","","","","","","","","","","","","","","","","","",""
"audio-button-response","8","26282","0.0-3.0-1.0-1.0-1.0","3","1","4slmgu4qjdxhwl9","","6677","","audCalib/t1_1.mp3","0","","0","1","headphone-test","","","","","","","","","","","","","","","","","","","","","","","","","","","","","","","","","","","","","","",""
"html-keyboard-response","9","27036","0.0-3.0-1.0-1.0-0.1","3","1","4slmgu4qjdxhwl9","","null","","<div style=""font-size:60px;"">+</div>","","null","","","","","","","","","","","","","","","","","","","","","","","","","","","","","","","","","","","","","","","","","",""
"audio-button-response","10","33636","0.0-3.0-1.0-1.0-1.1","3","1","4slmgu4qjdxhwl9","","6592","","audCalib/t1_2.mp3","0","","0","1","headphone-test","","","","","","","","","","","","","","","","","","","","","","","","","","","","","","","","","","","","","","",""
"html-keyboard-response","11","34389","0.0-3.0-1.0-1.0-0.2","3","1","4slmgu4qjdxhwl9","","null","","<div style=""font-size:60px;"">+</div>","","null","","","","","","","","","","","","","","","","","","","","","","","","","","","","","","","","","","","","","","","","","",""
"audio-button-response","12","42043","0.0-3.0-1.0-1.0-1.2","3","1","4slmgu4qjdxhwl9","","7648","","audCalib/t3_1.mp3","2","","2","1","headphone-test","","","","","","","","","","","","","","","","","","","","","","","","","","","","","","","","","","","","","","",""
"html-keyboard-response","13","42796","0.0-3.0-1.0-1.0-0.3","3","1","4slmgu4qjdxhwl9","","null","","<div style=""font-size:60px;"">+</div>","","null","","","","","","","","","","","","","","","","","","","","","","","","","","","","","","","","","","","","","","","","","",""
"audio-button-response","14","47434","0.0-3.0-1.0-1.0-1.3","3","1","4slmgu4qjdxhwl9","","4640","","audCalib/t2_1.mp3","1","","1","1","headphone-test","","","","","","","","","","","","","","","","","","","","","","","","","","","","","","","","","","","","","","",""
"html-keyboard-response","15","48187","0.0-3.0-1.0-1.0-0.4","3","1","4slmgu4qjdxhwl9","","null","","<div style=""font-size:60px;"">+</div>","","null","","","","","","","","","","","","","","","","","","","","","","","","","","","","","","","","","","","","","","","","","",""
"audio-button-response","16","52761","0.0-3.0-1.0-1.0-1.4","3","1","4slmgu4qjdxhwl9","","4565","","audCalib/t2_2.mp3","1","","1","1","headphone-test","","","","","","","","","","","","","","","","","","","","","","","","","","","","","","","","","","","","","","",""
"html-keyboard-response","17","53515","0.0-3.0-1.0-1.0-0.5","3","1","4slmgu4qjdxhwl9","","null","","<div style=""font-size:60px;"">+</div>","","null","","","","","","","","","","","","","","","","","","","","","","","","","","","","","","","","","","","","","","","","","",""
"audio-button-response","18","58267","0.0-3.0-1.0-1.0-1.5","3","1","4slmgu4qjdxhwl9","","4747","","audCalib/t3_2.mp3","2","","2","1","headphone-test","","","","","","","","","","","","","","","","","","","","","","","","","","","","","","","","","","","","","","",""
"html-button-response","19","59673","0.0-3.0-2.0","3","1","4slmgu4qjdxhwl9","","1153","","<p>The volume calibration and headphone check are now complete.</p>","0","","","","","","","","","","","","","","","","","","","","","","","","","","","","","","","","","","","","","","","","","","",""
"instructions","20","65109","0.0-4.0-0.0","3","1","4slmgu4qjdxhwl9","[{""page_index"":0,""viewing_time"":1403.0000000000146},{""page_index"":1,""viewing_time"":2610},{""page_index"":2,""viewing_time"":1421.9999999999854}]","5435","","","","","","","","","","","","","","","","","","","","","","","","","","","","","","","","","","","","","","","","","","","","","",""
"audio-keyboard-response","21","65414","0.0-4.0-1.0-0.0","3","1","4slmgu4qjdxhwl9","","null","","sounds/induction/right/su_SWS.wav","","null","","","","","","","","","","","","","","","","","","","","","","","","","","","","","","","","","","","","","","","","","",""
"html-button-response","22","67364","0.0-4.0-1.0-1.0","3","1","4slmgu4qjdxhwl9","","1948.0000000000146","","What sound did you hear?","1","","","1","INDUCTION-JUDGMENT","right","1","","","","","","","","","","","","","","","","","","","","","","","","","","","","","","","","","","","","",""
"html-keyboard-response","23","68367","0.0-4.0-1.0-2.0","3","1","4slmgu4qjdxhwl9","","null","","<p style=""color:green;""><b>Correct!</b></p>","","null","","","","","","","","","","","","","","","","","","","","","","","","","","","","","","","","","","","","","","","","","",""
"audio-keyboard-response","24","69168","0.0-4.0-1.0-0.1","3","1","4slmgu4qjdxhwl9","","null","","sounds/induction/left/ni_SWS.wav","","null","","","","","","","","","","","","","","","","","","","","","","","","","","","","","","","","","","","","","","","","","",""
"html-button-response","25","70417","0.0-4.0-1.0-1.1","3","1","4slmgu4qjdxhwl9","","1246","","What sound did you hear?","1","","","1","INDUCTION-JUDGMENT","left","1","","","","","","","","","","","","","","","","","","","","","","","","","","","","","","","","","","","","",""
"html-keyboard-response","26","71420","0.0-4.0-1.0-2.1","3","1","4slmgu4qjdxhwl9","","null","","<p style=""color:green;""><b>Correct!</b></p>","","null","","","","","","","","","","","","","","","","","","","","","","","","","","","","","","","","","","","","","","","","","",""
"audio-keyboard-response","27","72230","0.0-4.0-1.0-0.2","3","1","4slmgu4qjdxhwl9","","null","","sounds/induction/left/re_SWS.wav","","null","","","","","","","","","","","","","","","","","","","","","","","","","","","","","","","","","","","","","","","","","",""
"html-button-response","28","74263","0.0-4.0-1.0-1.2","3","1","4slmgu4qjdxhwl9","","2032","","What sound did you hear?","0","","","1","INDUCTION-JUDGMENT","left","0","","","","","","","","","","","","","","","","","","","","","","","","","","","","","","","","","","","","",""
"html-keyboard-response","29","75266","0.0-4.0-1.0-2.2","3","1","4slmgu4qjdxhwl9","","null","","<p style=""color:green;""><b>Correct!</b></p>","","null","","","","","","","","","","","","","","","","","","","","","","","","","","","","","","","","","","","","","","","","","",""
"audio-keyboard-response","30","76069","0.0-4.0-1.0-0.3","3","1","4slmgu4qjdxhwl9","","null","","sounds/induction/left/me_SWS.wav","","null","","","","","","","","","","","","","","","","","","","","","","","","","","","","","","","","","","","","","","","","","",""
"html-button-response","31","78277","0.0-4.0-1.0-1.3","3","1","4slmgu4qjdxhwl9","","2205.9999999999854","","What sound did you hear?","0","","","0","INDUCTION-JUDGMENT","left","1","","","","","","","","","","","","","","","","","","","","","","","","","","","","","","","","","","","","",""
"html-keyboard-response","32","79280","0.0-4.0-1.0-2.3","3","1","4slmgu4qjdxhwl9","","null","","<p style=""color:red;""><b>Incorrect!</b></p>","","null","","","","","","","","","","","","","","","","","","","","","","","","","","","","","","","","","","","","","","","","","",""
"audio-keyboard-response","33","80091","0.0-4.0-1.0-0.4","3","1","4slmgu4qjdxhwl9","","null","","sounds/induction/right/me_SWS.wav","","null","","","","","","","","","","","","","","","","","","","","","","","","","","","","","","","","","","","","","","","","","",""
"html-button-response","34","81155","0.0-4.0-1.0-1.4","3","1","4slmgu4qjdxhwl9","","1062.9999999999854","","What sound did you hear?","0","","","1","INDUCTION-JUDGMENT","right","0","","","","","","","","","","","","","","","","","","","","","","","","","","","","","","","","","","","","",""
"html-keyboard-response","35","82158","0.0-4.0-1.0-2.4","3","1","4slmgu4qjdxhwl9","","null","","<p style=""color:green;""><b>Correct!</b></p>","","null","","","","","","","","","","","","","","","","","","","","","","","","","","","","","","","","","","","","","","","","","",""
"audio-keyboard-response","36","82960","0.0-4.0-1.0-0.5","3","1","4slmgu4qjdxhwl9","","null","","sounds/induction/left/ge_SWS.wav","","null","","","","","","","","","","","","","","","","","","","","","","","","","","","","","","","","","","","","","","","","","",""
"html-button-response","37","83998","0.0-4.0-1.0-1.5","3","1","4slmgu4qjdxhwl9","","1036","","What sound did you hear?","0","","","0","INDUCTION-JUDGMENT","left","1","","","","","","","","","","","","","","","","","","","","","","","","","","","","","","","","","","","","",""
"html-keyboard-response","38","85001","0.0-4.0-1.0-2.5","3","1","4slmgu4qjdxhwl9","","null","","<p style=""color:red;""><b>Incorrect!</b></p>","","null","","","","","","","","","","","","","","","","","","","","","","","","","","","","","","","","","","","","","","","","","",""
"audio-keyboard-response","39","85808","0.0-4.0-1.0-0.6","3","1","4slmgu4qjdxhwl9","","null","","sounds/induction/right/ni_SWS.wav","","null","","","","","","","","","","","","","","","","","","","","","","","","","","","","","","","","","","","","","","","","","",""
"html-button-response","40","86633","0.0-4.0-1.0-1.6","3","1","4slmgu4qjdxhwl9","","822.9999999999854","","What sound did you hear?","0","","","1","INDUCTION-JUDGMENT","right","0","","","","","","","","","","","","","","","","","","","","","","","","","","","","","","","","","","","","",""
"html-keyboard-response","41","87635","0.0-4.0-1.0-2.6","3","1","4slmgu4qjdxhwl9","","null","","<p style=""color:green;""><b>Correct!</b></p>","","null","","","","","","","","","","","","","","","","","","","","","","","","","","","","","","","","","","","","","","","","","",""
"audio-keyboard-response","42","88442","0.0-4.0-1.0-0.7","3","1","4slmgu4qjdxhwl9","","null","","sounds/induction/left/ko_SWS.wav","","null","","","","","","","","","","","","","","","","","","","","","","","","","","","","","","","","","","","","","","","","","",""
"html-button-response","43","89644","0.0-4.0-1.0-1.7","3","1","4slmgu4qjdxhwl9","","1200.000000000029","","What sound did you hear?","1","","","1","INDUCTION-JUDGMENT","left","1","","","","","","","","","","","","","","","","","","","","","","","","","","","","","","","","","","","","",""
"html-keyboard-response","44","90646","0.0-4.0-1.0-2.7","3","1","4slmgu4qjdxhwl9","","null","","<p style=""color:green;""><b>Correct!</b></p>","","null","","","","","","","","","","","","","","","","","","","","","","","","","","","","","","","","","","","","","","","","","",""
"audio-keyboard-response","45","91450","0.0-4.0-1.0-0.8","3","1","4slmgu4qjdxhwl9","","null","","sounds/induction/left/su_SWS.wav","","null","","","","","","","","","","","","","","","","","","","","","","","","","","","","","","","","","","","","","","","","","",""
"html-button-response","46","92804","0.0-4.0-1.0-1.8","3","1","4slmgu4qjdxhwl9","","1353.000000000029","","What sound did you hear?","0","","","1","INDUCTION-JUDGMENT","left","0","","","","","","","","","","","","","","","","","","","","","","","","","","","","","","","","","","","","",""
"html-keyboard-response","47","93807","0.0-4.0-1.0-2.8","3","1","4slmgu4qjdxhwl9","","null","","<p style=""color:green;""><b>Correct!</b></p>","","null","","","","","","","","","","","","","","","","","","","","","","","","","","","","","","","","","","","","","","","","","",""
"audio-keyboard-response","48","94618","0.0-4.0-1.0-0.9","3","1","4slmgu4qjdxhwl9","","null","","sounds/induction/right/fe_SWS.wav","","null","","","","","","","","","","","","","","","","","","","","","","","","","","","","","","","","","","","","","","","","","",""
"html-button-response","49","96527","0.0-4.0-1.0-1.9","3","1","4slmgu4qjdxhwl9","","1908","","What sound did you hear?","0","","","1","INDUCTION-JUDGMENT","right","0","","","","","","","","","","","","","","","","","","","","","","","","","","","","","","","","","","","","",""
"html-keyboard-response","50","97530","0.0-4.0-1.0-2.9","3","1","4slmgu4qjdxhwl9","","null","","<p style=""color:green;""><b>Correct!</b></p>","","null","","","","","","","","","","","","","","","","","","","","","","","","","","","","","","","","","","","","","","","","","",""
"audio-keyboard-response","51","98340","0.0-4.0-1.0-0.10","3","1","4slmgu4qjdxhwl9","","null","","sounds/induction/right/ta_SWS.wav","","null","","","","","","","","","","","","","","","","","","","","","","","","","","","","","","","","","","","","","","","","","",""
"html-button-response","52","99613","0.0-4.0-1.0-1.10","3","1","4slmgu4qjdxhwl9","","1271","","What sound did you hear?","1","","","1","INDUCTION-JUDGMENT","right","1","","","","","","","","","","","","","","","","","","","","","","","","","","","","","","","","","","","","",""
"html-keyboard-response","53","100616","0.0-4.0-1.0-2.10","3","1","4slmgu4qjdxhwl9","","null","","<p style=""color:green;""><b>Correct!</b></p>","","null","","","","","","","","","","","","","","","","","","","","","","","","","","","","","","","","","","","","","","","","","",""
"audio-keyboard-response","54","101423","0.0-4.0-1.0-0.11","3","1","4slmgu4qjdxhwl9","","null","","sounds/induction/right/ko_SWS.wav","","null","","","","","","","","","","","","","","","","","","","","","","","","","","","","","","","","","","","","","","","","","",""
"html-button-response","55","102465","0.0-4.0-1.0-1.11","3","1","4slmgu4qjdxhwl9","","1042","","What sound did you hear?","0","","","1","INDUCTION-JUDGMENT","right","0","","","","","","","","","","","","","","","","","","","","","","","","","","","","","","","","","","","","",""
"html-keyboard-response","56","103468","0.0-4.0-1.0-2.11","3","1","4slmgu4qjdxhwl9","","null","","<p style=""color:green;""><b>Correct!</b></p>","","null","","","","","","","","","","","","","","","","","","","","","","","","","","","","","","","","","","","","","","","","","",""
"audio-keyboard-response","57","104270","0.0-4.0-1.0-0.12","3","1","4slmgu4qjdxhwl9","","null","","sounds/induction/right/re_SWS.wav","","null","","","","","","","","","","","","","","","","","","","","","","","","","","","","","","","","","","","","","","","","","",""
"html-button-response","58","105510","0.0-4.0-1.0-1.12","3","1","4slmgu4qjdxhwl9","","1239","","What sound did you hear?","1","","","1","INDUCTION-JUDGMENT","right","1","","","","","","","","","","","","","","","","","","","","","","","","","","","","","","","","","","","","",""
"html-keyboard-response","59","106513","0.0-4.0-1.0-2.12","3","1","4slmgu4qjdxhwl9","","null","","<p style=""color:green;""><b>Correct!</b></p>","","null","","","","","","","","","","","","","","","","","","","","","","","","","","","","","","","","","","","","","","","","","",""
"audio-keyboard-response","60","107321","0.0-4.0-1.0-0.13","3","1","4slmgu4qjdxhwl9","","null","","sounds/induction/left/re_SWS.wav","","null","","","","","","","","","","","","","","","","","","","","","","","","","","","","","","","","","","","","","","","","","",""
"html-button-response","61","108556","0.0-4.0-1.0-1.13","3","1","4slmgu4qjdxhwl9","","1232","","What sound did you hear?","0","","","1","INDUCTION-JUDGMENT","left","0","","","","","","","","","","","","","","","","","","","","","","","","","","","","","","","","","","","","",""
"html-keyboard-response","62","109558","0.0-4.0-1.0-2.13","3","1","4slmgu4qjdxhwl9","","null","","<p style=""color:green;""><b>Correct!</b></p>","","null","","","","","","","","","","","","","","","","","","","","","","","","","","","","","","","","","","","","","","","","","",""
"audio-keyboard-response","63","110361","0.0-4.0-1.0-0.14","3","1","4slmgu4qjdxhwl9","","null","","sounds/induction/left/su_SWS.wav","","null","","","","","","","","","","","","","","","","","","","","","","","","","","","","","","","","","","","","","","","","","",""
"html-button-response","64","111659","0.0-4.0-1.0-1.14","3","1","4slmgu4qjdxhwl9","","1297","","What sound did you hear?","0","","","1","INDUCTION-JUDGMENT","left","0","","","","","","","","","","","","","","","","","","","","","","","","","","","","","","","","","","","","",""
"html-keyboard-response","65","112662","0.0-4.0-1.0-2.14","3","1","4slmgu4qjdxhwl9","","null","","<p style=""color:green;""><b>Correct!</b></p>","","null","","","","","","","","","","","","","","","","","","","","","","","","","","","","","","","","","","","","","","","","","",""
"audio-keyboard-response","66","113465","0.0-4.0-1.0-0.15","3","1","4slmgu4qjdxhwl9","","null","","sounds/induction/left/me_SWS.wav","","null","","","","","","","","","","","","","","","","","","","","","","","","","","","","","","","","","","","","","","","","","",""
"html-button-response","67","115003","0.0-4.0-1.0-1.15","3","1","4slmgu4qjdxhwl9","","1537","","What sound did you hear?","1","","","1","INDUCTION-JUDGMENT","left","1","","","","","","","","","","","","","","","","","","","","","","","","","","","","","","","","","","","","",""
"html-keyboard-response","68","116006","0.0-4.0-1.0-2.15","3","1","4slmgu4qjdxhwl9","","null","","<p style=""color:green;""><b>Correct!</b></p>","","null","","","","","","","","","","","","","","","","","","","","","","","","","","","","","","","","","","","","","","","","","",""
"audio-keyboard-response","69","116814","0.0-4.0-1.0-0.16","3","1","4slmgu4qjdxhwl9","","null","","sounds/induction/right/su_SWS.wav","","null","","","","","","","","","","","","","","","","","","","","","","","","","","","","","","","","","","","","","","","","","",""
"html-button-response","70","118121","0.0-4.0-1.0-1.16","3","1","4slmgu4qjdxhwl9","","1306","","What sound did you hear?","1","","","1","INDUCTION-JUDGMENT","right","1","","","","","","","","","","","","","","","","","","","","","","","","","","","","","","","","","","","","",""
"html-keyboard-response","71","119124","0.0-4.0-1.0-2.16","3","1","4slmgu4qjdxhwl9","","null","","<p style=""color:green;""><b>Correct!</b></p>","","null","","","","","","","","","","","","","","","","","","","","","","","","","","","","","","","","","","","","","","","","","",""
"audio-keyboard-response","72","119928","0.0-4.0-1.0-0.17","3","1","4slmgu4qjdxhwl9","","null","","sounds/induction/left/ni_SWS.wav","","null","","","","","","","","","","","","","","","","","","","","","","","","","","","","","","","","","","","","","","","","","",""
"html-button-response","73","121079","0.0-4.0-1.0-1.17","3","1","4slmgu4qjdxhwl9","","1149","","What sound did you hear?","1","","","1","INDUCTION-JUDGMENT","left","1","","","","","","","","","","","","","","","","","","","","","","","","","","","","","","","","","","","","",""
"html-keyboard-response","74","122081","0.0-4.0-1.0-2.17","3","1","4slmgu4qjdxhwl9","","null","","<p style=""color:green;""><b>Correct!</b></p>","","null","","","","","","","","","","","","","","","","","","","","","","","","","","","","","","","","","","","","","","","","","",""
"audio-keyboard-response","75","122883","0.0-4.0-1.0-0.18","3","1","4slmgu4qjdxhwl9","","null","","sounds/induction/left/fu_SWS.wav","","null","","","","","","","","","","","","","","","","","","","","","","","","","","","","","","","","","","","","","","","","","",""
"html-button-response","76","123978","0.0-4.0-1.0-1.18","3","1","4slmgu4qjdxhwl9","","1094","","What sound did you hear?","0","","","0","INDUCTION-JUDGMENT","left","1","","","","","","","","","","","","","","","","","","","","","","","","","","","","","","","","","","","","",""
"html-keyboard-response","77","124981","0.0-4.0-1.0-2.18","3","1","4slmgu4qjdxhwl9","","null","","<p style=""color:red;""><b>Incorrect!</b></p>","","null","","","","","","","","","","","","","","","","","","","","","","","","","","","","","","","","","","","","","","","","","",""
"audio-keyboard-response","78","125784","0.0-4.0-1.0-0.19","3","1","4slmgu4qjdxhwl9","","null","","sounds/induction/right/ni_SWS.wav","","null","","","","","","","","","","","","","","","","","","","","","","","","","","","","","","","","","","","","","","","","","",""
"html-button-response","79","126691","0.0-4.0-1.0-1.19","3","1","4slmgu4qjdxhwl9","","906","","What sound did you hear?","0","","","1","INDUCTION-JUDGMENT","right","0","","","","","","","","","","","","","","","","","","","","","","","","","","","","","","","","","","","","",""
"html-keyboard-response","80","127693","0.0-4.0-1.0-2.19","3","1","4slmgu4qjdxhwl9","","null","","<p style=""color:green;""><b>Correct!</b></p>","","null","","","","","","","","","","","","","","","","","","","","","","","","","","","","","","","","","","","","","","","","","",""
"audio-keyboard-response","81","128504","0.0-4.0-1.0-0.20","3","1","4slmgu4qjdxhwl9","","null","","sounds/induction/right/fe_SWS.wav","","null","","","","","","","","","","","","","","","","","","","","","","","","","","","","","","","","","","","","","","","","","",""
"html-button-response","82","129598","0.0-4.0-1.0-1.20","3","1","4slmgu4qjdxhwl9","","1094","","What sound did you hear?","1","","","0","INDUCTION-JUDGMENT","right","0","","","","","","","","","","","","","","","","","","","","","","","","","","","","","","","","","","","","",""
"html-keyboard-response","83","130601","0.0-4.0-1.0-2.20","3","1","4slmgu4qjdxhwl9","","null","","<p style=""color:red;""><b>Incorrect!</b></p>","","null","","","","","","","","","","","","","","","","","","","","","","","","","","","","","","","","","","","","","","","","","",""
"audio-keyboard-response","84","131405","0.0-4.0-1.0-0.21","3","1","4slmgu4qjdxhwl9","","null","","sounds/induction/left/ta_SWS.wav","","null","","","","","","","","","","","","","","","","","","","","","","","","","","","","","","","","","","","","","","","","","",""
"html-button-response","85","132304","0.0-4.0-1.0-1.21","3","1","4slmgu4qjdxhwl9","","897","","What sound did you hear?","0","","","1","INDUCTION-JUDGMENT","left","0","","","","","","","","","","","","","","","","","","","","","","","","","","","","","","","","","","","","",""
"html-keyboard-response","86","133307","0.0-4.0-1.0-2.21","3","1","4slmgu4qjdxhwl9","","null","","<p style=""color:green;""><b>Correct!</b></p>","","null","","","","","","","","","","","","","","","","","","","","","","","","","","","","","","","","","","","","","","","","","",""
"audio-keyboard-response","87","134114","0.0-4.0-1.0-0.22","3","1","4slmgu4qjdxhwl9","","null","","sounds/induction/right/ru_SWS.wav","","null","","","","","","","","","","","","","","","","","","","","","","","","","","","","","","","","","","","","","","","","","",""
"html-button-response","88","135985","0.0-4.0-1.0-1.22","3","1","4slmgu4qjdxhwl9","","1869","","What sound did you hear?","1","","","1","INDUCTION-JUDGMENT","right","1","","","","","","","","","","","","","","","","","","","","","","","","","","","","","","","","","","","","",""
"html-keyboard-response","89","136988","0.0-4.0-1.0-2.22","3","1","4slmgu4qjdxhwl9","","null","","<p style=""color:green;""><b>Correct!</b></p>","","null","","","","","","","","","","","","","","","","","","","","","","","","","","","","","","","","","","","","","","","","","",""
"audio-keyboard-response","90","137794","0.0-4.0-1.0-0.23","3","1","4slmgu4qjdxhwl9","","null","","sounds/induction/left/ge_SWS.wav","","null","","","","","","","","","","","","","","","","","","","","","","","","","","","","","","","","","","","","","","","","","",""
"html-button-response","91","139119","0.0-4.0-1.0-1.23","3","1","4slmgu4qjdxhwl9","","1322.999999999971","","What sound did you hear?","0","","","0","INDUCTION-JUDGMENT","left","1","","","","","","","","","","","","","","","","","","","","","","","","","","","","","","","","","","","","",""
"html-keyboard-response","92","140121","0.0-4.0-1.0-2.23","3","1","4slmgu4qjdxhwl9","","null","","<p style=""color:red;""><b>Incorrect!</b></p>","","null","","","","","","","","","","","","","","","","","","","","","","","","","","","","","","","","","","","","","","","","","",""
"audio-keyboard-response","93","140930","0.0-4.0-1.0-0.24","3","1","4slmgu4qjdxhwl9","","null","","sounds/induction/right/re_SWS.wav","","null","","","","","","","","","","","","","","","","","","","","","","","","","","","","","","","","","","","","","","","","","",""
"html-button-response","94","142158","0.0-4.0-1.0-1.24","3","1","4slmgu4qjdxhwl9","","1227.000000000029","","What sound did you hear?","1","","","1","INDUCTION-JUDGMENT","right","1","","","","","","","","","","","","","","","","","","","","","","","","","","","","","","","","","","","","",""
"html-keyboard-response","95","143161","0.0-4.0-1.0-2.24","3","1","4slmgu4qjdxhwl9","","null","","<p style=""color:green;""><b>Correct!</b></p>","","null","","","","","","","","","","","","","","","","","","","","","","","","","","","","","","","","","","","","","","","","","",""
"audio-keyboard-response","96","143969","0.0-4.0-1.0-0.25","3","1","4slmgu4qjdxhwl9","","null","","sounds/induction/right/pu_SWS.wav","","null","","","","","","","","","","","","","","","","","","","","","","","","","","","","","","","","","","","","","","","","","",""
"html-button-response","97","144911","0.0-4.0-1.0-1.25","3","1","4slmgu4qjdxhwl9","","940","","What sound did you hear?","0","","","0","INDUCTION-JUDGMENT","right","1","","","","","","","","","","","","","","","","","","","","","","","","","","","","","","","","","","","","",""
"html-keyboard-response","98","145914","0.0-4.0-1.0-2.25","3","1","4slmgu4qjdxhwl9","","null","","<p style=""color:red;""><b>Incorrect!</b></p>","","null","","","","","","","","","","","","","","","","","","","","","","","","","","","","","","","","","","","","","","","","","",""
"audio-keyboard-response","99","146721","0.0-4.0-1.0-0.26","3","1","4slmgu4qjdxhwl9","","null","","sounds/induction/left/ta_SWS.wav","","null","","","","","","","","","","","","","","","","","","","","","","","","","","","","","","","","","","","","","","","","","",""
"html-button-response","100","147956","0.0-4.0-1.0-1.26","3","1","4slmgu4qjdxhwl9","","1233.000000000029","","What sound did you hear?","0","","","1","INDUCTION-JUDGMENT","left","0","","","","","","","","","","","","","","","","","","","","","","","","","","","","","","","","","","","","",""
"html-keyboard-response","101","148958","0.0-4.0-1.0-2.26","3","1","4slmgu4qjdxhwl9","","null","","<p style=""color:green;""><b>Correct!</b></p>","","null","","","","","","","","","","","","","","","","","","","","","","","","","","","","","","","","","","","","","","","","","",""
"audio-keyboard-response","102","149761","0.0-4.0-1.0-0.27","3","1","4slmgu4qjdxhwl9","","null","","sounds/induction/right/ti_SWS.wav","","null","","","","","","","","","","","","","","","","","","","","","","","","","","","","","","","","","","","","","","","","","",""
"html-button-response","103","150775","0.0-4.0-1.0-1.27","3","1","4slmgu4qjdxhwl9","","1012","","What sound did you hear?","1","","","1","INDUCTION-JUDGMENT","right","1","","","","","","","","","","","","","","","","","","","","","","","","","","","","","","","","","","","","",""
"html-keyboard-response","104","151777","0.0-4.0-1.0-2.27","3","1","4slmgu4qjdxhwl9","","null","","<p style=""color:green;""><b>Correct!</b></p>","","null","","","","","","","","","","","","","","","","","","","","","","","","","","","","","","","","","","","","","","","","","",""
"audio-keyboard-response","105","152588","0.0-4.0-1.0-0.28","3","1","4slmgu4qjdxhwl9","","null","","sounds/induction/left/ti_SWS.wav","","null","","","","","","","","","","","","","","","","","","","","","","","","","","","","","","","","","","","","","","","","","",""
"html-button-response","106","153982","0.0-4.0-1.0-1.28","3","1","4slmgu4qjdxhwl9","","1393","","What sound did you hear?","0","","","1","INDUCTION-JUDGMENT","left","0","","","","","","","","","","","","","","","","","","","","","","","","","","","","","","","","","","","","",""
"html-keyboard-response","107","154984","0.0-4.0-1.0-2.28","3","1","4slmgu4qjdxhwl9","","null","","<p style=""color:green;""><b>Correct!</b></p>","","null","","","","","","","","","","","","","","","","","","","","","","","","","","","","","","","","","","","","","","","","","",""
"audio-keyboard-response","108","155787","0.0-4.0-1.0-0.29","3","1","4slmgu4qjdxhwl9","","null","","sounds/induction/right/fu_SWS.wav","","null","","","","","","","","","","","","","","","","","","","","","","","","","","","","","","","","","","","","","","","","","",""
"html-button-response","109","157067","0.0-4.0-1.0-1.29","3","1","4slmgu4qjdxhwl9","","1278.999999999971","","What sound did you hear?","0","","","1","INDUCTION-JUDGMENT","right","0","","","","","","","","","","","","","","","","","","","","","","","","","","","","","","","","","","","","",""
"html-keyboard-response","110","158070","0.0-4.0-1.0-2.29","3","1","4slmgu4qjdxhwl9","","null","","<p style=""color:green;""><b>Correct!</b></p>","","null","","","","","","","","","","","","","","","","","","","","","","","","","","","","","","","","","","","","","","","","","",""
"audio-keyboard-response","111","158881","0.0-4.0-1.0-0.30","3","1","4slmgu4qjdxhwl9","","null","","sounds/induction/left/fu_SWS.wav","","null","","","","","","","","","","","","","","","","","","","","","","","","","","","","","","","","","","","","","","","","","",""
"html-button-response","112","160614","0.0-4.0-1.0-1.30","3","1","4slmgu4qjdxhwl9","","1732","","What sound did you hear?","0","","","0","INDUCTION-JUDGMENT","left","1","","","","","","","","","","","","","","","","","","","","","","","","","","","","","","","","","","","","",""
"html-keyboard-response","113","161616","0.0-4.0-1.0-2.30","3","1","4slmgu4qjdxhwl9","","null","","<p style=""color:red;""><b>Incorrect!</b></p>","","null","","","","","","","","","","","","","","","","","","","","","","","","","","","","","","","","","","","","","","","","","",""
"audio-keyboard-response","114","162422","0.0-4.0-1.0-0.31","3","1","4slmgu4qjdxhwl9","","null","","sounds/induction/left/ti_SWS.wav","","null","","","","","","","","","","","","","","","","","","","","","","","","","","","","","","","","","","","","","","","","","",""
"html-button-response","115","164237","0.0-4.0-1.0-1.31","3","1","4slmgu4qjdxhwl9","","1815","","What sound did you hear?","0","","","1","INDUCTION-JUDGMENT","left","0","","","","","","","","","","","","","","","","","","","","","","","","","","","","","","","","","","","","",""
"html-keyboard-response","116","165239","0.0-4.0-1.0-2.31","3","1","4slmgu4qjdxhwl9","","null","","<p style=""color:green;""><b>Correct!</b></p>","","null","","","","","","","","","","","","","","","","","","","","","","","","","","","","","","","","","","","","","","","","","",""
"audio-keyboard-response","117","166048","0.0-4.0-1.0-0.32","3","1","4slmgu4qjdxhwl9","","null","","sounds/induction/left/pu_SWS.wav","","null","","","","","","","","","","","","","","","","","","","","","","","","","","","","","","","","","","","","","","","","","",""
"html-button-response","118","167315","0.0-4.0-1.0-1.32","3","1","4slmgu4qjdxhwl9","","1265.999999999971","","What sound did you hear?","0","","","1","INDUCTION-JUDGMENT","left","0","","","","","","","","","","","","","","","","","","","","","","","","","","","","","","","","","","","","",""
"html-keyboard-response","119","168317","0.0-4.0-1.0-2.32","3","1","4slmgu4qjdxhwl9","","null","","<p style=""color:green;""><b>Correct!</b></p>","","null","","","","","","","","","","","","","","","","","","","","","","","","","","","","","","","","","","","","","","","","","",""
"audio-keyboard-response","120","169120","0.0-4.0-1.0-0.33","3","1","4slmgu4qjdxhwl9","","null","","sounds/induction/right/ti_SWS.wav","","null","","","","","","","","","","","","","","","","","","","","","","","","","","","","","","","","","","","","","","","","","",""
"html-button-response","121","170368","0.0-4.0-1.0-1.33","3","1","4slmgu4qjdxhwl9","","1248","","What sound did you hear?","1","","","1","INDUCTION-JUDGMENT","right","1","","","","","","","","","","","","","","","","","","","","","","","","","","","","","","","","","","","","",""
"html-keyboard-response","122","171370","0.0-4.0-1.0-2.33","3","1","4slmgu4qjdxhwl9","","null","","<p style=""color:green;""><b>Correct!</b></p>","","null","","","","","","","","","","","","","","","","","","","","","","","","","","","","","","","","","","","","","","","","","",""
"audio-keyboard-response","123","172171","0.0-4.0-1.0-0.34","3","1","4slmgu4qjdxhwl9","","null","","sounds/induction/right/ge_SWS.wav","","null","","","","","","","","","","","","","","","","","","","","","","","","","","","","","","","","","","","","","","","","","",""
"html-button-response","124","173475","0.0-4.0-1.0-1.34","3","1","4slmgu4qjdxhwl9","","1304","","What sound did you hear?","0","","","1","INDUCTION-JUDGMENT","right","0","","","","","","","","","","","","","","","","","","","","","","","","","","","","","","","","","","","","",""
"html-keyboard-response","125","174477","0.0-4.0-1.0-2.34","3","1","4slmgu4qjdxhwl9","","null","","<p style=""color:green;""><b>Correct!</b></p>","","null","","","","","","","","","","","","","","","","","","","","","","","","","","","","","","","","","","","","","","","","","",""
"audio-keyboard-response","126","175285","0.0-4.0-1.0-0.35","3","1","4slmgu4qjdxhwl9","","null","","sounds/induction/left/ru_SWS.wav","","null","","","","","","","","","","","","","","","","","","","","","","","","","","","","","","","","","","","","","","","","","",""
"html-button-response","127","177199","0.0-4.0-1.0-1.35","3","1","4slmgu4qjdxhwl9","","1913","","What sound did you hear?","0","","","1","INDUCTION-JUDGMENT","left","0","","","","","","","","","","","","","","","","","","","","","","","","","","","","","","","","","","","","",""
"html-keyboard-response","128","178201","0.0-4.0-1.0-2.35","3","1","4slmgu4qjdxhwl9","","null","","<p style=""color:green;""><b>Correct!</b></p>","","null","","","","","","","","","","","","","","","","","","","","","","","","","","","","","","","","","","","","","","","","","",""
"audio-keyboard-response","129","179007","0.0-4.0-1.0-0.36","3","1","4slmgu4qjdxhwl9","","null","","sounds/induction/right/ko_SWS.wav","","null","","","","","","","","","","","","","","","","","","","","","","","","","","","","","","","","","","","","","","","","","",""
"html-button-response","130","180312","0.0-4.0-1.0-1.36","3","1","4slmgu4qjdxhwl9","","1304","","What sound did you hear?","0","","","1","INDUCTION-JUDGMENT","right","0","","","","","","","","","","","","","","","","","","","","","","","","","","","","","","","","","","","","",""
"html-keyboard-response","131","181313","0.0-4.0-1.0-2.36","3","1","4slmgu4qjdxhwl9","","null","","<p style=""color:green;""><b>Correct!</b></p>","","null","","","","","","","","","","","","","","","","","","","","","","","","","","","","","","","","","","","","","","","","","",""
"audio-keyboard-response","132","182122","0.0-4.0-1.0-0.37","3","1","4slmgu4qjdxhwl9","","null","","sounds/induction/left/fe_SWS.wav","","null","","","","","","","","","","","","","","","","","","","","","","","","","","","","","","","","","","","","","","","","","",""
"html-button-response","133","183415","0.0-4.0-1.0-1.37","3","1","4slmgu4qjdxhwl9","","1293","","What sound did you hear?","1","","","1","INDUCTION-JUDGMENT","left","1","","","","","","","","","","","","","","","","","","","","","","","","","","","","","","","","","","","","",""
"html-keyboard-response","134","184417","0.0-4.0-1.0-2.37","3","1","4slmgu4qjdxhwl9","","null","","<p style=""color:green;""><b>Correct!</b></p>","","null","","","","","","","","","","","","","","","","","","","","","","","","","","","","","","","","","","","","","","","","","",""
"audio-keyboard-response","135","185226","0.0-4.0-1.0-0.38","3","1","4slmgu4qjdxhwl9","","null","","sounds/induction/right/pu_SWS.wav","","null","","","","","","","","","","","","","","","","","","","","","","","","","","","","","","","","","","","","","","","","","",""
"html-button-response","136","186130","0.0-4.0-1.0-1.38","3","1","4slmgu4qjdxhwl9","","904","","What sound did you hear?","0","","","0","INDUCTION-JUDGMENT","right","1","","","","","","","","","","","","","","","","","","","","","","","","","","","","","","","","","","","","",""
"html-keyboard-response","137","187133","0.0-4.0-1.0-2.38","3","1","4slmgu4qjdxhwl9","","null","","<p style=""color:red;""><b>Incorrect!</b></p>","","null","","","","","","","","","","","","","","","","","","","","","","","","","","","","","","","","","","","","","","","","","",""
"audio-keyboard-response","138","187935","0.0-4.0-1.0-0.39","3","1","4slmgu4qjdxhwl9","","null","","sounds/induction/left/pu_SWS.wav","","null","","","","","","","","","","","","","","","","","","","","","","","","","","","","","","","","","","","","","","","","","",""
"html-button-response","139","189112","0.0-4.0-1.0-1.39","3","1","4slmgu4qjdxhwl9","","1175","","What sound did you hear?","0","","","1","INDUCTION-JUDGMENT","left","0","","","","","","","","","","","","","","","","","","","","","","","","","","","","","","","","","","","","",""
"html-keyboard-response","140","190113","0.0-4.0-1.0-2.39","3","1","4slmgu4qjdxhwl9","","null","","<p style=""color:green;""><b>Correct!</b></p>","","null","","","","","","","","","","","","","","","","","","","","","","","","","","","","","","","","","","","","","","","","","",""
"audio-keyboard-response","141","190921","0.0-4.0-1.0-0.40","3","1","4slmgu4qjdxhwl9","","null","","sounds/induction/right/fu_SWS.wav","","null","","","","","","","","","","","","","","","","","","","","","","","","","","","","","","","","","","","","","","","","","",""
"html-button-response","142","192322","0.0-4.0-1.0-1.40","3","1","4slmgu4qjdxhwl9","","1400.000000000029","","What sound did you hear?","0","","","1","INDUCTION-JUDGMENT","right","0","","","","","","","","","","","","","","","","","","","","","","","","","","","","","","","","","","","","",""
"html-keyboard-response","143","193324","0.0-4.0-1.0-2.40","3","1","4slmgu4qjdxhwl9","","null","","<p style=""color:green;""><b>Correct!</b></p>","","null","","","","","","","","","","","","","","","","","","","","","","","","","","","","","","","","","","","","","","","","","",""
"audio-keyboard-response","144","194132","0.0-4.0-1.0-0.41","3","1","4slmgu4qjdxhwl9","","null","","sounds/induction/right/ge_SWS.wav","","null","","","","","","","","","","","","","","","","","","","","","","","","","","","","","","","","","","","","","","","","","",""
"html-button-response","145","195689","0.0-4.0-1.0-1.41","3","1","4slmgu4qjdxhwl9","","1556","","What sound did you hear?","0","","","1","INDUCTION-JUDGMENT","right","0","","","","","","","","","","","","","","","","","","","","","","","","","","","","","","","","","","","","",""
"html-keyboard-response","146","196691","0.0-4.0-1.0-2.41","3","1","4slmgu4qjdxhwl9","","null","","<p style=""color:green;""><b>Correct!</b></p>","","null","","","","","","","","","","","","","","","","","","","","","","","","","","","","","","","","","","","","","","","","","",""
"audio-keyboard-response","147","197492","0.0-4.0-1.0-0.42","3","1","4slmgu4qjdxhwl9","","null","","sounds/induction/left/fe_SWS.wav","","null","","","","","","","","","","","","","","","","","","","","","","","","","","","","","","","","","","","","","","","","","",""
"html-button-response","148","198995","0.0-4.0-1.0-1.42","3","1","4slmgu4qjdxhwl9","","1502","","What sound did you hear?","1","","","1","INDUCTION-JUDGMENT","left","1","","","","","","","","","","","","","","","","","","","","","","","","","","","","","","","","","","","","",""
"html-keyboard-response","149","199997","0.0-4.0-1.0-2.42","3","1","4slmgu4qjdxhwl9","","null","","<p style=""color:green;""><b>Correct!</b></p>","","null","","","","","","","","","","","","","","","","","","","","","","","","","","","","","","","","","","","","","","","","","",""
"audio-keyboard-response","150","200798","0.0-4.0-1.0-0.43","3","1","4slmgu4qjdxhwl9","","null","","sounds/induction/right/me_SWS.wav","","null","","","","","","","","","","","","","","","","","","","","","","","","","","","","","","","","","","","","","","","","","",""
"html-button-response","151","201960","0.0-4.0-1.0-1.43","3","1","4slmgu4qjdxhwl9","","1161","","What sound did you hear?","0","","","1","INDUCTION-JUDGMENT","right","0","","","","","","","","","","","","","","","","","","","","","","","","","","","","","","","","","","","","",""
"html-keyboard-response","152","202962","0.0-4.0-1.0-2.43","3","1","4slmgu4qjdxhwl9","","null","","<p style=""color:green;""><b>Correct!</b></p>","","null","","","","","","","","","","","","","","","","","","","","","","","","","","","","","","","","","","","","","","","","","",""
"audio-keyboard-response","153","203763","0.0-4.0-1.0-0.44","3","1","4slmgu4qjdxhwl9","","null","","sounds/induction/right/ru_SWS.wav","","null","","","","","","","","","","","","","","","","","","","","","","","","","","","","","","","","","","","","","","","","","",""
"html-button-response","154","204768","0.0-4.0-1.0-1.44","3","1","4slmgu4qjdxhwl9","","1004","","What sound did you hear?","1","","","1","INDUCTION-JUDGMENT","right","1","","","","","","","","","","","","","","","","","","","","","","","","","","","","","","","","","","","","",""
"html-keyboard-response","155","205770","0.0-4.0-1.0-2.44","3","1","4slmgu4qjdxhwl9","","null","","<p style=""color:green;""><b>Correct!</b></p>","","null","","","","","","","","","","","","","","","","","","","","","","","","","","","","","","","","","","","","","","","","","",""
"audio-keyboard-response","156","206579","0.0-4.0-1.0-0.45","3","1","4slmgu4qjdxhwl9","","null","","sounds/induction/left/ru_SWS.wav","","null","","","","","","","","","","","","","","","","","","","","","","","","","","","","","","","","","","","","","","","","","",""
"html-button-response","157","207354","0.0-4.0-1.0-1.45","3","1","4slmgu4qjdxhwl9","","774","","What sound did you hear?","0","","","1","INDUCTION-JUDGMENT","left","0","","","","","","","","","","","","","","","","","","","","","","","","","","","","","","","","","","","","",""
"html-keyboard-response","158","208356","0.0-4.0-1.0-2.45","3","1","4slmgu4qjdxhwl9","","null","","<p style=""color:green;""><b>Correct!</b></p>","","null","","","","","","","","","","","","","","","","","","","","","","","","","","","","","","","","","","","","","","","","","",""
"audio-keyboard-response","159","209160","0.0-4.0-1.0-0.46","3","1","4slmgu4qjdxhwl9","","null","","sounds/induction/left/ko_SWS.wav","","null","","","","","","","","","","","","","","","","","","","","","","","","","","","","","","","","","","","","","","","","","",""
"html-button-response","160","210779","0.0-4.0-1.0-1.46","3","1","4slmgu4qjdxhwl9","","1618.000000000029","","What sound did you hear?","1","","","1","INDUCTION-JUDGMENT","left","1","","","","","","","","","","","","","","","","","","","","","","","","","","","","","","","","","","","","",""
"html-keyboard-response","161","211782","0.0-4.0-1.0-2.46","3","1","4slmgu4qjdxhwl9","","null","","<p style=""color:green;""><b>Correct!</b></p>","","null","","","","","","","","","","","","","","","","","","","","","","","","","","","","","","","","","","","","","","","","","",""
"audio-keyboard-response","162","212584","0.0-4.0-1.0-0.47","3","1","4slmgu4qjdxhwl9","","null","","sounds/induction/right/ta_SWS.wav","","null","","","","","","","","","","","","","","","","","","","","","","","","","","","","","","","","","","","","","","","","","",""
"html-button-response","163","213535","0.0-4.0-1.0-1.47","3","1","4slmgu4qjdxhwl9","","950","","What sound did you hear?","1","","","1","INDUCTION-JUDGMENT","right","1","","","","","","","","","","","","","","","","","","","","","","","","","","","","","","","","","","","","",""
"html-keyboard-response","164","214537","0.0-4.0-1.0-2.47","3","1","4slmgu4qjdxhwl9","","null","","<p style=""color:green;""><b>Correct!</b></p>","","null","","","","","","","","","","","","","","","","","","","","","","","","","","","","","","","","","","","","","","","","","",""
"html-button-response","165","216783","0.0-5.0-0.0","3","1","4slmgu4qjdxhwl9","","1743","","<p>Thank you for your answers.</p><p>You will now listen to similar sounds. The main difference is that the sounds will be longer and will make up complete sentences.</p><p>Please listen carefully to each sentence. After each sentence, you will be asked to type back what you heard to the best of your ability. After you provide your response, you will be given feedback about the correct answer.</p><p>There are 10 sentences in total.","0","","","","","","","","","","","","","","","","","","","","","","","","","","","","","","","","","","","","","","","","","","",""
"audio-keyboard-response","166","219336","0.0-5.0-1.0-0.0","3","1","4slmgu4qjdxhwl9","","null","","sounds/sentences/left/14_04_cfSWS.wav","","null","","","","","","","","","","","","","","","","","","","","","","","","","","","","","","","","","","","","","","","","","",""
"sentence-resp","167","235439","0.0-5.0-1.0-1.0","3","1","4slmgu4qjdxhwl9","","16102","","","","","","","SWS-SENT-RESPONSE","","","{""Q0"":""two plus seven is less than ten""}","Two plus seven is less than ten.","two,plus,seven,less,ten","TWO PLUS SEVEN IS LESS THAN TEN","1","1","1","1","1","5","1","","","","","","","","","","","","","","","","","","","","","","","","","",""
"html-keyboard-response","168","236693","0.0-5.0-1.0-2.0","3","1","4slmgu4qjdxhwl9","","null","","","","null","","","","","","","","","","","","","","","","","","","","","","","","","","","","","","","","","","","","","","","","","",""
"audio-keyboard-response","169","238748","0.0-5.0-1.0-3.0","3","1","4slmgu4qjdxhwl9","","null","","sounds/sentences/left/14_04_cfSWS.wav","","null","","","","","","","","","","","","","","","","","","","","","","","","","","","","","","","","","","","","","","","","","",""
"html-keyboard-response","170","239751","0.0-5.0-1.0-4.0","3","1","4slmgu4qjdxhwl9","","null","","","","null","","","","","","","","","","","","","","","","","","","","","","","","","","","","","","","","","","","","","","","","","",""
"html-button-response","171","241613","0.0-5.0-1.0-5.0","3","1","4slmgu4qjdxhwl9","","1360","","<p>Press the button below when you are ready to continue.</p>","0","","","","","","","","","","","","","","","","","","","","","","","","","","","","","","","","","","","","","","","","","","",""
"audio-keyboard-response","172","244497","0.0-5.0-1.0-0.1","3","1","4slmgu4qjdxhwl9","","null","","sounds/sentences/right/14_07_cfSWS.wav","","null","","","","","","","","","","","","","","","","","","","","","","","","","","","","","","","","","","","","","","","","","",""
"sentence-resp","173","266526","0.0-5.0-1.0-1.1","3","1","4slmgu4qjdxhwl9","","22027","","","","","","","SWS-SENT-RESPONSE","","","{""Q0"":""Hold on to the friends you cherish.\n""}","Write a fond note to the friend you cherish.","write,fond,note,friend,cherish","HOLD ON TO THE FRIENDS YOU CHERISH ","0","0","0","0","1","1","0.2","","","","","","","","","","","","","","","","","","","","","","","","","",""
"html-keyboard-response","174","267779","0.0-5.0-1.0-2.1","3","1","4slmgu4qjdxhwl9","","null","","","","null","","","","","","","","","","","","","","","","","","","","","","","","","","","","","","","","","","","","","","","","","",""
"audio-keyboard-response","175","270159","0.0-5.0-1.0-3.1","3","1","4slmgu4qjdxhwl9","","null","","sounds/sentences/right/14_07_cfSWS.wav","","null","","","","","","","","","","","","","","","","","","","","","","","","","","","","","","","","","","","","","","","","","",""
"html-keyboard-response","176","271161","0.0-5.0-1.0-4.1","3","1","4slmgu4qjdxhwl9","","null","","","","null","","","","","","","","","","","","","","","","","","","","","","","","","","","","","","","","","","","","","","","","","",""
"html-button-response","177","272820","0.0-5.0-1.0-5.1","3","1","4slmgu4qjdxhwl9","","1156","","<p>Press the button below when you are ready to continue.</p>","0","","","","","","","","","","","","","","","","","","","","","","","","","","","","","","","","","","","","","","","","","","",""
"audio-keyboard-response","178","275407","0.0-5.0-1.0-0.2","3","1","4slmgu4qjdxhwl9","","null","","sounds/sentences/left/14_03_cfSWS.wav","","null","","","","","","","","","","","","","","","","","","","","","","","","","","","","","","","","","","","","","","","","","",""
"sentence-resp","179","296282","0.0-5.0-1.0-1.2","3","1","4slmgu4qjdxhwl9","","20874","","","","","","","SWS-SENT-RESPONSE","","","{""Q0"":""Lots of fries without me.""}","Pluck the bright rose without leaves.","pluck,bright,rose,without,leaves","LOTS OF FRIES WITHOUT ME","0","0","0","1","0","1","0.2","","","","","","","","","","","","","","","","","","","","","","","","","",""
"html-keyboard-response","180","297536","0.0-5.0-1.0-2.2","3","1","4slmgu4qjdxhwl9","","null","","","","null","","","","","","","","","","","","","","","","","","","","","","","","","","","","","","","","","","","","","","","","","",""
"audio-keyboard-response","181","299619","0.0-5.0-1.0-3.2","3","1","4slmgu4qjdxhwl9","","null","","sounds/sentences/left/14_03_cfSWS.wav","","null","","","","","","","","","","","","","","","","","","","","","","","","","","","","","","","","","","","","","","","","","",""
"html-keyboard-response","182","300622","0.0-5.0-1.0-4.2","3","1","4slmgu4qjdxhwl9","","null","","","","null","","","","","","","","","","","","","","","","","","","","","","","","","","","","","","","","","","","","","","","","","",""
"html-button-response","183","302077","0.0-5.0-1.0-5.2","3","1","4slmgu4qjdxhwl9","","953","","<p>Press the button below when you are ready to continue.</p>","0","","","","","","","","","","","","","","","","","","","","","","","","","","","","","","","","","","","","","","","","","","",""
"audio-keyboard-response","184","304835","0.0-5.0-1.0-0.3","3","1","4slmgu4qjdxhwl9","","null","","sounds/sentences/right/14_08_cfSWS.wav","","null","","","","","","","","","","","","","","","","","","","","","","","","","","","","","","","","","","","","","","","","","",""
"sentence-resp","185","336717","0.0-5.0-1.0-1.3","3","1","4slmgu4qjdxhwl9","","31880","","","","","","","SWS-SENT-RESPONSE","","","{""Q0"":""Clothes and washing are free to new men.""}","Clothes and lodging are free to new men.","clothes,lodging,free,new,men","CLOTHES AND WASHING ARE FREE TO NEW MEN","1","0","1","1","1","4","0.8","","","","","","","","","","","","","","","","","","","","","","","","","",""
"html-keyboard-response","186","337970","0.0-5.0-1.0-2.3","3","1","4slmgu4qjdxhwl9","","null","","","","null","","","","","","","","","","","","","","","","","","","","","","","","","","","","","","","","","","","","","","","","","",""
"audio-keyboard-response","187","340225","0.0-5.0-1.0-3.3","3","1","4slmgu4qjdxhwl9","","null","","sounds/sentences/right/14_08_cfSWS.wav","","null","","","","","","","","","","","","","","","","","","","","","","","","","","","","","","","","","","","","","","","","","",""
"html-keyboard-response","188","341227","0.0-5.0-1.0-4.3","3","1","4slmgu4qjdxhwl9","","null","","","","null","","","","","","","","","","","","","","","","","","","","","","","","","","","","","","","","","","","","","","","","","",""
"html-button-response","189","343131","0.0-5.0-1.0-5.3","3","1","4slmgu4qjdxhwl9","","1401","","<p>Press the button below when you are ready to continue.</p>","0","","","","","","","","","","","","","","","","","","","","","","","","","","","","","","","","","","","","","","","","","","",""
"audio-keyboard-response","190","346144","0.0-5.0-1.0-0.4","3","1","4slmgu4qjdxhwl9","","null","","sounds/sentences/right/14_10_cfSWS.wav","","null","","","","","","","","","","","","","","","","","","","","","","","","","","","","","","","","","","","","","","","","","",""
"sentence-resp","191","360088","0.0-5.0-1.0-1.4","3","1","4slmgu4qjdxhwl9","","13941","","","","","","","SWS-SENT-RESPONSE","","","{""Q0"":""yours is a string mind with a smoky taste.""}","Port is a strong wine with a smoky taste.","port,strong,wine,smoky,taste","YOURS IS A STRING MIND WITH A SMOKY TASTE","0","0","0","1","1","2","0.4","","","","","","","","","","","","","","","","","","","","","","","","","",""
"html-keyboard-response","192","361341","0.0-5.0-1.0-2.4","3","1","4slmgu4qjdxhwl9","","null","","","","null","","","","","","","","","","","","","","","","","","","","","","","","","","","","","","","","","","","","","","","","","",""
"audio-keyboard-response","193","363850","0.0-5.0-1.0-3.4","3","1","4slmgu4qjdxhwl9","","null","","sounds/sentences/right/14_10_cfSWS.wav","","null","","","","","","","","","","","","","","","","","","","","","","","","","","","","","","","","","","","","","","","","","",""
"html-keyboard-response","194","364853","0.0-5.0-1.0-4.4","3","1","4slmgu4qjdxhwl9","","null","","","","null","","","","","","","","","","","","","","","","","","","","","","","","","","","","","","","","","","","","","","","","","",""
"html-button-response","195","366745","0.0-5.0-1.0-5.4","3","1","4slmgu4qjdxhwl9","","1390","","<p>Press the button below when you are ready to continue.</p>","0","","","","","","","","","","","","","","","","","","","","","","","","","","","","","","","","","","","","","","","","","","",""
"audio-keyboard-response","196","369471","0.0-5.0-1.0-0.5","3","1","4slmgu4qjdxhwl9","","null","","sounds/sentences/right/14_09_cfSWS.wav","","null","","","","","","","","","","","","","","","","","","","","","","","","","","","","","","","","","","","","","","","","","",""
"sentence-resp","197","384759","0.0-5.0-1.0-1.5","3","1","4slmgu4qjdxhwl9","","15287","","","","","","","SWS-SENT-RESPONSE","","","{""Q0"":""we found when events take a bad turn""}","We frown when events take a bad turn.","frown,events,take,bad,turn","WE FOUND WHEN EVENTS TAKE A BAD TURN","0","1","1","1","1","4","0.8","","","","","","","","","","","","","","","","","","","","","","","","","",""
"html-keyboard-response","198","386012","0.0-5.0-1.0-2.5","3","1","4slmgu4qjdxhwl9","","null","","","","null","","","","","","","","","","","","","","","","","","","","","","","","","","","","","","","","","","","","","","","","","",""
"audio-keyboard-response","199","388233","0.0-5.0-1.0-3.5","3","1","4slmgu4qjdxhwl9","","null","","sounds/sentences/right/14_09_cfSWS.wav","","null","","","","","","","","","","","","","","","","","","","","","","","","","","","","","","","","","","","","","","","","","",""
"html-keyboard-response","200","389236","0.0-5.0-1.0-4.5","3","1","4slmgu4qjdxhwl9","","null","","","","null","","","","","","","","","","","","","","","","","","","","","","","","","","","","","","","","","","","","","","","","","",""
"html-button-response","201","390886","0.0-5.0-1.0-5.5","3","1","4slmgu4qjdxhwl9","","1147.0000000000582","","<p>Press the button below when you are ready to continue.</p>","0","","","","","","","","","","","","","","","","","","","","","","","","","","","","","","","","","","","","","","","","","","",""
"audio-keyboard-response","202","393875","0.0-5.0-1.0-0.6","3","1","4slmgu4qjdxhwl9","","null","","sounds/sentences/left/14_05_cfSWS.wav","","null","","","","","","","","","","","","","","","","","","","","","","","","","","","","","","","","","","","","","","","","","",""
"sentence-resp","203","410918","0.0-5.0-1.0-1.6","3","1","4slmgu4qjdxhwl9","","17042","","","","","","","SWS-SENT-RESPONSE","","","{""Q0"":""A glow deep inside the eyes of a sweet girl""}","The glow deepened in the eyes of the sweet girl.","glow,deepened,eyes,sweet,girl","A GLOW DEEP INSIDE THE EYES OF A SWEET GIRL","1","0","1","1","1","4","0.8","","","","","","","","","","","","","","","","","","","","","","","","","",""
"html-keyboard-response","204","412172","0.0-5.0-1.0-2.6","3","1","4slmgu4qjdxhwl9","","null","","","","null","","","","","","","","","","","","","","","","","","","","","","","","","","","","","","","","","","","","","","","","","",""
"audio-keyboard-response","205","414663","0.0-5.0-1.0-3.6","3","1","4slmgu4qjdxhwl9","","null","","sounds/sentences/left/14_05_cfSWS.wav","","null","","","","","","","","","","","","","","","","","","","","","","","","","","","","","","","","","","","","","","","","","",""
"html-keyboard-response","206","415665","0.0-5.0-1.0-4.6","3","1","4slmgu4qjdxhwl9","","null","","","","null","","","","","","","","","","","","","","","","","","","","","","","","","","","","","","","","","","","","","","","","","",""
"html-button-response","207","417276","0.0-5.0-1.0-5.6","3","1","4slmgu4qjdxhwl9","","1108.0000000000582","","<p>Press the button below when you are ready to continue.</p>","0","","","","","","","","","","","","","","","","","","","","","","","","","","","","","","","","","","","","","","","","","","",""
"audio-keyboard-response","208","420028","0.0-5.0-1.0-0.7","3","1","4slmgu4qjdxhwl9","","null","","sounds/sentences/right/14_06_cfSWS.wav","","null","","","","","","","","","","","","","","","","","","","","","","","","","","","","","","","","","","","","","","","","","",""
"sentence-resp","209","435106","0.0-5.0-1.0-1.7","3","1","4slmgu4qjdxhwl9","","15076","","","","","","","SWS-SENT-RESPONSE","","","{""Q0"":""bring your problems to the wives please""}","Bring your problems to the wise chief.","bring,your,problems,wise,chief","BRING YOUR PROBLEMS TO THE WIVES PLEASE","1","1","1","0","0","3","0.6","","","","","","","","","","","","","","","","","","","","","","","","","",""
"html-keyboard-response","210","436360","0.0-5.0-1.0-2.7","3","1","4slmgu4qjdxhwl9","","null","","","","null","","","","","","","","","","","","","","","","","","","","","","","","","","","","","","","","","","","","","","","","","",""
"audio-keyboard-response","211","438609","0.0-5.0-1.0-3.7","3","1","4slmgu4qjdxhwl9","","null","","sounds/sentences/right/14_06_cfSWS.wav","","null","","","","","","","","","","","","","","","","","","","","","","","","","","","","","","","","","","","","","","","","","",""
"html-keyboard-response","212","439611","0.0-5.0-1.0-4.7","3","1","4slmgu4qjdxhwl9","","null","","","","null","","","","","","","","","","","","","","","","","","","","","","","","","","","","","","","","","","","","","","","","","",""
"html-button-response","213","441707","0.0-5.0-1.0-5.7","3","1","4slmgu4qjdxhwl9","","1594","","<p>Press the button below when you are ready to continue.</p>","0","","","","","","","","","","","","","","","","","","","","","","","","","","","","","","","","","","","","","","","","","","",""
"audio-keyboard-response","214","444528","0.0-5.0-1.0-0.8","3","1","4slmgu4qjdxhwl9","","null","","sounds/sentences/left/14_02_cfSWS.wav","","null","","","","","","","","","","","","","","","","","","","","","","","","","","","","","","","","","","","","","","","","","",""
"sentence-resp","215","457637","0.0-5.0-1.0-1.8","3","1","4slmgu4qjdxhwl9","","13107","","","","","","","SWS-SENT-RESPONSE","","","{""Q0"":""He said the same phrase thirty times""}","He said the same phrase thirty times.","said,same,phrase,thirty,times","HE SAID THE SAME PHRASE THIRTY TIMES","1","1","1","1","1","5","1","","","","","","","","","","","","","","","","","","","","","","","","","",""
"html-keyboard-response","216","458890","0.0-5.0-1.0-2.8","3","1","4slmgu4qjdxhwl9","","null","","","","null","","","","","","","","","","","","","","","","","","","","","","","","","","","","","","","","","","","","","","","","","",""
"audio-keyboard-response","217","461210","0.0-5.0-1.0-3.8","3","1","4slmgu4qjdxhwl9","","null","","sounds/sentences/left/14_02_cfSWS.wav","","null","","","","","","","","","","","","","","","","","","","","","","","","","","","","","","","","","","","","","","","","","",""
"html-keyboard-response","218","462212","0.0-5.0-1.0-4.8","3","1","4slmgu4qjdxhwl9","","null","","","","null","","","","","","","","","","","","","","","","","","","","","","","","","","","","","","","","","","","","","","","","","",""
"html-button-response","219","464116","0.0-5.0-1.0-5.8","3","1","4slmgu4qjdxhwl9","","1401","","<p>Press the button below when you are ready to continue.</p>","0","","","","","","","","","","","","","","","","","","","","","","","","","","","","","","","","","","","","","","","","","","",""
"audio-keyboard-response","220","467236","0.0-5.0-1.0-0.9","3","1","4slmgu4qjdxhwl9","","null","","sounds/sentences/left/14_01_cfSWS.wav","","null","","","","","","","","","","","","","","","","","","","","","","","","","","","","","","","","","","","","","","","","","",""
"sentence-resp","221","482495","0.0-5.0-1.0-1.9","3","1","4slmgu4qjdxhwl9","","15259","","","","","","","SWS-SENT-RESPONSE","","","{""Q0"":""the crabs look small when they swim""}","A cramp is no small danger on a swim.","cramp,no,small,danger,swim","THE CRABS LOOK SMALL WHEN THEY SWIM","0","0","1","0","1","2","0.4","","","","","","","","","","","","","","","","","","","","","","","","","",""
"html-keyboard-response","222","483748","0.0-5.0-1.0-2.9","3","1","4slmgu4qjdxhwl9","","null","","","","null","","","","","","","","","","","","","","","","","","","","","","","","","","","","","","","","","","","","","","","","","",""
"audio-keyboard-response","223","486370","0.0-5.0-1.0-3.9","3","1","4slmgu4qjdxhwl9","","null","","sounds/sentences/left/14_01_cfSWS.wav","","null","","","","","","","","","","","","","","","","","","","","","","","","","","","","","","","","","","","","","","","","","",""
"html-keyboard-response","224","487373","0.0-5.0-1.0-4.9","3","1","4slmgu4qjdxhwl9","","null","","","","null","","","","","","","","","","","","","","","","","","","","","","","","","","","","","","","","","","","","","","","","","",""
"html-button-response","225","488714","0.0-5.0-1.0-5.9","3","1","4slmgu4qjdxhwl9","","839","","<p>Press the button below when you are ready to continue.</p>","0","","","","","","","","","","","","","","","","","","","","","","","","","","","","","","","","","","","","","","","","","","",""
"html-keyboard-response","226","502306","0.0-6.0-0.0","3","1","4slmgu4qjdxhwl9","","13092","","<p>In this part of the study, you will hear sounds similar to those you just heard.</p><p>Please focus on these sounds, as you may be asked questions about them later.</p><p>Occasionally, the sounds will pause for up to two seconds. When this happens, please press SPACEBAR as quickly as you can.</br>This helps ensure that you are paying attention to the sounds.</p><p>This part of the study will take about 12 minutes to complete, and you will be given the opportunity to take a couple of short breaks every few minutes.</p><p><strong>Press SPACEBAR to begin</strong></p>","","32","","","","","","","","","","","","","","","","","","","","","","","","","","","","","","","","","","","","","","","","","",""
"html-keyboard-response","227","503308","0.0-6.0-1.0-0.0","3","1","4slmgu4qjdxhwl9","","null","","<p style=""font-size: 40px;"">+</p>","","null","","","","","","","","","","","","","","","","","","","","","","","","","","","","","","","","","","","","","","","","","",""
"html-keyboard-response","228","688300","0.0-6.0-1.0-1.0","3","1","4slmgu4qjdxhwl9","","null","","","","null","","","SL-TRAIN","","","","","","","","","","","","","","2","null","null","sounds/C/TRAIN/SEQ__03.mp3","6","","","","","","","","","","","","","","","","","","","","",""
"html-button-response","229","743029","0.0-6.0-1.0-2.0","3","1","4slmgu4qjdxhwl9","","54730","","<p>You may take a short break if you wish.</p>","0","","","","","","","","","","","","","","","","","","","","","","","","","","","","","","","","","","","","","","","","","","",""
"html-keyboard-response","230","744031","0.0-6.0-1.0-3.0","3","1","4slmgu4qjdxhwl9","","null","","<p style=""font-size: 40px;"">+</p>","","null","","","","","","","","","","","","","","","","","","","","","","","","","","","","","","","","","","","","","","","","","",""
"html-keyboard-response","231","929024","0.0-6.0-1.0-4.0","3","1","4slmgu4qjdxhwl9","","null","","","","null","","","SL-TRAIN","","","","","","","","","","","","","","2","null","null","sounds/C/TRAIN/SEQ__07.mp3","2","","","","","","","","","","","","","","","","","","","","",""
"html-button-response","232","959626","0.0-6.0-1.0-5.0","3","1","4slmgu4qjdxhwl9","","30602","","<p>You may take a short break if you wish.</p>","0","","","","","","","","","","","","","","","","","","","","","","","","","","","","","","","","","","","","","","","","","","",""
"html-keyboard-response","233","960628","0.0-6.0-1.0-6.0","3","1","4slmgu4qjdxhwl9","","null","","<p style=""font-size: 40px;"">+</p>","","null","","","","","","","","","","","","","","","","","","","","","","","","","","","","","","","","","","","","","","","","","",""
"html-keyboard-response","234","1145687","0.0-6.0-1.0-7.0","3","1","4slmgu4qjdxhwl9","","null","","","","null","","","SL-TRAIN","","","","","","","","","","","","","","2","null","null","sounds/C/TRAIN/SEQ__02.mp3","6","","","","","","","","","","","","","","","","","","","","",""
"html-button-response","235","1149027","0.0-6.0-1.0-8.0","3","1","4slmgu4qjdxhwl9","","3338","","<p>You may take a short break if you wish.</p>","0","","","","","","","","","","","","","","","","","","","","","","","","","","","","","","","","","","","","","","","","","","",""
"html-keyboard-response","236","1150029","0.0-6.0-1.0-9.0","3","1","4slmgu4qjdxhwl9","","null","","<p style=""font-size: 40px;"">+</p>","","null","","","","","","","","","","","","","","","","","","","","","","","","","","","","","","","","","","","","","","","","","",""
"html-keyboard-response","237","1335025","0.0-6.0-1.0-10.0","3","1","4slmgu4qjdxhwl9","","null","","","","null","","","SL-TRAIN","","","","","","","","","","","","","","2","null","null","sounds/C/TRAIN/SEQ__06.mp3","3","","","","","","","","","","","","","","","","","","","","",""
"html-button-response","238","1339847","0.0-6.0-1.0-11.0","3","1","4slmgu4qjdxhwl9","","4820.999999999767","","<p>You may take a short break if you wish.</p>","0","","","","","","","","","","","","","","","","","","","","","","","","","","","","","","","","","","","","","","","","","","",""
"html-button-response","239","1346994","0.0-7.0-0.0","3","1","4slmgu4qjdxhwl9","","7145","","<p>Welcome to the second part of the study. This is a <u>familiarity task</u>.</p><p>You will now hear short sounds and will be asked to rate how familiar they sound to you <b>based on what you heard in the previous part of the study</b>.</p><p>You will rate 12 sounds in total.</p>","0","","","","","","","","","","","","","","","","","","","","","","","","","","","","","","","","","","","","","","","","","","",""
"html-keyboard-response","240","1347996","0.0-7.0-1.0-0.0","3","1","4slmgu4qjdxhwl9","","null","","","","null","","","","","","","","","","","","","","","","","","","","","","","","","","","","","","","","","","","","","","","","","",""
"audio-keyboard-response","241","1348939","0.0-7.0-1.0-1.0","3","1","4slmgu4qjdxhwl9","","null","","sounds/C/FAM/W001.mp3","","null","","","","","","","","","","","","","","","","","","","","","","","","","","","","","","","","","","","","","","","","","",""
"html-keyboard-response","242","1354498","0.0-7.0-1.0-2.0","3","1","4slmgu4qjdxhwl9","","5056","","<p>How familiar did this sound to you?</p><p>1&nbsp;&nbsp;&nbsp;&nbsp;&nbsp;&nbsp;&nbsp;&nbsp;&nbsp;&nbsp;&nbsp;&nbsp;&nbsp;&nbsp;&nbsp;&nbsp;&nbsp;&nbsp;&nbsp;2&nbsp;&nbsp;&nbsp;&nbsp;&nbsp;&nbsp;&nbsp;&nbsp;&nbsp;&nbsp;&nbsp;&nbsp;&nbsp;&nbsp;&nbsp;&nbsp;&nbsp;&nbsp;&nbsp;3&nbsp;&nbsp;&nbsp;&nbsp;&nbsp;&nbsp;&nbsp;&nbsp;&nbsp;&nbsp;&nbsp;&nbsp;&nbsp;&nbsp;&nbsp;&nbsp;&nbsp;&nbsp;&nbsp;4</p><p style=""font-size:14px"">Not at all familiar&nbsp;&nbsp;&nbsp;&nbsp;A little familiar&nbsp;&nbsp;&nbsp;Moderately familiar&nbsp;&nbsp;&nbsp;Extremely familiar</p><p>(press the corresponding number on your keyboard)</p>","","49","","","FAM-RESPONSE","","","","","","","","","","","","","","","","","","","sounds/C/FAM/W001.mp3","word","","","","","","","","","","","","","","","","","","",""
"html-keyboard-response","243","1356500","0.0-7.0-1.0-0.1","3","1","4slmgu4qjdxhwl9","","null","","","","null","","","","","","","","","","","","","","","","","","","","","","","","","","","","","","","","","","","","","","","","","",""
"audio-keyboard-response","244","1357451","0.0-7.0-1.0-1.1","3","1","4slmgu4qjdxhwl9","","null","","sounds/C/FAM/P001.mp3","","null","","","","","","","","","","","","","","","","","","","","","","","","","","","","","","","","","","","","","","","","","",""
"html-keyboard-response","245","1363798","0.0-7.0-1.0-2.1","3","1","4slmgu4qjdxhwl9","","5845","","<p>How familiar did this sound to you?</p><p>1&nbsp;&nbsp;&nbsp;&nbsp;&nbsp;&nbsp;&nbsp;&nbsp;&nbsp;&nbsp;&nbsp;&nbsp;&nbsp;&nbsp;&nbsp;&nbsp;&nbsp;&nbsp;&nbsp;2&nbsp;&nbsp;&nbsp;&nbsp;&nbsp;&nbsp;&nbsp;&nbsp;&nbsp;&nbsp;&nbsp;&nbsp;&nbsp;&nbsp;&nbsp;&nbsp;&nbsp;&nbsp;&nbsp;3&nbsp;&nbsp;&nbsp;&nbsp;&nbsp;&nbsp;&nbsp;&nbsp;&nbsp;&nbsp;&nbsp;&nbsp;&nbsp;&nbsp;&nbsp;&nbsp;&nbsp;&nbsp;&nbsp;4</p><p style=""font-size:14px"">Not at all familiar&nbsp;&nbsp;&nbsp;&nbsp;A little familiar&nbsp;&nbsp;&nbsp;Moderately familiar&nbsp;&nbsp;&nbsp;Extremely familiar</p><p>(press the corresponding number on your keyboard)</p>","","49","","","FAM-RESPONSE","","","","","","","","","","","","","","","","","","","sounds/C/FAM/P001.mp3","partword","","","","","","","","","","","","","","","","","","",""
"html-keyboard-response","246","1365802","0.0-7.0-1.0-0.2","3","1","4slmgu4qjdxhwl9","","null","","","","null","","","","","","","","","","","","","","","","","","","","","","","","","","","","","","","","","","","","","","","","","",""
"audio-keyboard-response","247","1366752","0.0-7.0-1.0-1.2","3","1","4slmgu4qjdxhwl9","","null","","sounds/C/FAM/W002.mp3","","null","","","","","","","","","","","","","","","","","","","","","","","","","","","","","","","","","","","","","","","","","",""
"html-keyboard-response","248","1376792","0.0-7.0-1.0-2.2","3","1","4slmgu4qjdxhwl9","","9537.999999999767","","<p>How familiar did this sound to you?</p><p>1&nbsp;&nbsp;&nbsp;&nbsp;&nbsp;&nbsp;&nbsp;&nbsp;&nbsp;&nbsp;&nbsp;&nbsp;&nbsp;&nbsp;&nbsp;&nbsp;&nbsp;&nbsp;&nbsp;2&nbsp;&nbsp;&nbsp;&nbsp;&nbsp;&nbsp;&nbsp;&nbsp;&nbsp;&nbsp;&nbsp;&nbsp;&nbsp;&nbsp;&nbsp;&nbsp;&nbsp;&nbsp;&nbsp;3&nbsp;&nbsp;&nbsp;&nbsp;&nbsp;&nbsp;&nbsp;&nbsp;&nbsp;&nbsp;&nbsp;&nbsp;&nbsp;&nbsp;&nbsp;&nbsp;&nbsp;&nbsp;&nbsp;4</p><p style=""font-size:14px"">Not at all familiar&nbsp;&nbsp;&nbsp;&nbsp;A little familiar&nbsp;&nbsp;&nbsp;Moderately familiar&nbsp;&nbsp;&nbsp;Extremely familiar</p><p>(press the corresponding number on your keyboard)</p>","","50","","","FAM-RESPONSE","","","","","","","","","","","","","","","","","","","sounds/C/FAM/W002.mp3","word","","","","","","","","","","","","","","","","","","",""
"html-keyboard-response","249","1377840","0.0-7.0-1.0-0.3","3","1","4slmgu4qjdxhwl9","","45","","","","50","","","","","","","","","","","","","","","","","","","","","","","","","","","","","","","","","","","","","","","","","",""
"audio-keyboard-response","250","1378783","0.0-7.0-1.0-1.3","3","1","4slmgu4qjdxhwl9","","null","","sounds/C/FAM/P003.mp3","","null","","","","","","","","","","","","","","","","","","","","","","","","","","","","","","","","","","","","","","","","","",""
"html-keyboard-response","251","1381197","0.0-7.0-1.0-2.3","3","1","4slmgu4qjdxhwl9","","1911.0000000002328","","<p>How familiar did this sound to you?</p><p>1&nbsp;&nbsp;&nbsp;&nbsp;&nbsp;&nbsp;&nbsp;&nbsp;&nbsp;&nbsp;&nbsp;&nbsp;&nbsp;&nbsp;&nbsp;&nbsp;&nbsp;&nbsp;&nbsp;2&nbsp;&nbsp;&nbsp;&nbsp;&nbsp;&nbsp;&nbsp;&nbsp;&nbsp;&nbsp;&nbsp;&nbsp;&nbsp;&nbsp;&nbsp;&nbsp;&nbsp;&nbsp;&nbsp;3&nbsp;&nbsp;&nbsp;&nbsp;&nbsp;&nbsp;&nbsp;&nbsp;&nbsp;&nbsp;&nbsp;&nbsp;&nbsp;&nbsp;&nbsp;&nbsp;&nbsp;&nbsp;&nbsp;4</p><p style=""font-size:14px"">Not at all familiar&nbsp;&nbsp;&nbsp;&nbsp;A little familiar&nbsp;&nbsp;&nbsp;Moderately familiar&nbsp;&nbsp;&nbsp;Extremely familiar</p><p>(press the corresponding number on your keyboard)</p>","","51","","","FAM-RESPONSE","","","","","","","","","","","","","","","","","","","sounds/C/FAM/P003.mp3","partword","","","","","","","","","","","","","","","","","","",""
"html-keyboard-response","252","1383201","0.0-7.0-1.0-0.4","3","1","4slmgu4qjdxhwl9","","null","","","","null","","","","","","","","","","","","","","","","","","","","","","","","","","","","","","","","","","","","","","","","","",""
"audio-keyboard-response","253","1384148","0.0-7.0-1.0-1.4","3","1","4slmgu4qjdxhwl9","","null","","sounds/C/FAM/N004.mp3","","null","","","","","","","","","","","","","","","","","","","","","","","","","","","","","","","","","","","","","","","","","",""
"html-keyboard-response","254","1385204","0.0-7.0-1.0-2.4","3","1","4slmgu4qjdxhwl9","","554","","<p>How familiar did this sound to you?</p><p>1&nbsp;&nbsp;&nbsp;&nbsp;&nbsp;&nbsp;&nbsp;&nbsp;&nbsp;&nbsp;&nbsp;&nbsp;&nbsp;&nbsp;&nbsp;&nbsp;&nbsp;&nbsp;&nbsp;2&nbsp;&nbsp;&nbsp;&nbsp;&nbsp;&nbsp;&nbsp;&nbsp;&nbsp;&nbsp;&nbsp;&nbsp;&nbsp;&nbsp;&nbsp;&nbsp;&nbsp;&nbsp;&nbsp;3&nbsp;&nbsp;&nbsp;&nbsp;&nbsp;&nbsp;&nbsp;&nbsp;&nbsp;&nbsp;&nbsp;&nbsp;&nbsp;&nbsp;&nbsp;&nbsp;&nbsp;&nbsp;&nbsp;4</p><p style=""font-size:14px"">Not at all familiar&nbsp;&nbsp;&nbsp;&nbsp;A little familiar&nbsp;&nbsp;&nbsp;Moderately familiar&nbsp;&nbsp;&nbsp;Extremely familiar</p><p>(press the corresponding number on your keyboard)</p>","","52","","","FAM-RESPONSE","","","","","","","","","","","","","","","","","","","sounds/C/FAM/N004.mp3","nonword","","","","","","","","","","","","","","","","","","",""
"html-keyboard-response","255","1387208","0.0-7.0-1.0-0.5","3","1","4slmgu4qjdxhwl9","","null","","","","null","","","","","","","","","","","","","","","","","","","","","","","","","","","","","","","","","","","","","","","","","",""
"audio-keyboard-response","256","1388159","0.0-7.0-1.0-1.5","3","1","4slmgu4qjdxhwl9","","null","","sounds/C/FAM/P002.mp3","","null","","","","","","","","","","","","","","","","","","","","","","","","","","","","","","","","","","","","","","","","","",""
"html-keyboard-response","257","1391248","0.0-7.0-1.0-2.5","3","1","4slmgu4qjdxhwl9","","2587","","<p>How familiar did this sound to you?</p><p>1&nbsp;&nbsp;&nbsp;&nbsp;&nbsp;&nbsp;&nbsp;&nbsp;&nbsp;&nbsp;&nbsp;&nbsp;&nbsp;&nbsp;&nbsp;&nbsp;&nbsp;&nbsp;&nbsp;2&nbsp;&nbsp;&nbsp;&nbsp;&nbsp;&nbsp;&nbsp;&nbsp;&nbsp;&nbsp;&nbsp;&nbsp;&nbsp;&nbsp;&nbsp;&nbsp;&nbsp;&nbsp;&nbsp;3&nbsp;&nbsp;&nbsp;&nbsp;&nbsp;&nbsp;&nbsp;&nbsp;&nbsp;&nbsp;&nbsp;&nbsp;&nbsp;&nbsp;&nbsp;&nbsp;&nbsp;&nbsp;&nbsp;4</p><p style=""font-size:14px"">Not at all familiar&nbsp;&nbsp;&nbsp;&nbsp;A little familiar&nbsp;&nbsp;&nbsp;Moderately familiar&nbsp;&nbsp;&nbsp;Extremely familiar</p><p>(press the corresponding number on your keyboard)</p>","","52","","","FAM-RESPONSE","","","","","","","","","","","","","","","","","","","sounds/C/FAM/P002.mp3","partword","","","","","","","","","","","","","","","","","","",""
"html-keyboard-response","258","1393251","0.0-7.0-1.0-0.6","3","1","4slmgu4qjdxhwl9","","null","","","","null","","","","","","","","","","","","","","","","","","","","","","","","","","","","","","","","","","","","","","","","","",""
"audio-keyboard-response","259","1394196","0.0-7.0-1.0-1.6","3","1","4slmgu4qjdxhwl9","","null","","sounds/C/FAM/N001.mp3","","null","","","","","","","","","","","","","","","","","","","","","","","","","","","","","","","","","","","","","","","","","",""
"html-keyboard-response","260","1395712","0.0-7.0-1.0-2.6","3","1","4slmgu4qjdxhwl9","","1013","","<p>How familiar did this sound to you?</p><p>1&nbsp;&nbsp;&nbsp;&nbsp;&nbsp;&nbsp;&nbsp;&nbsp;&nbsp;&nbsp;&nbsp;&nbsp;&nbsp;&nbsp;&nbsp;&nbsp;&nbsp;&nbsp;&nbsp;2&nbsp;&nbsp;&nbsp;&nbsp;&nbsp;&nbsp;&nbsp;&nbsp;&nbsp;&nbsp;&nbsp;&nbsp;&nbsp;&nbsp;&nbsp;&nbsp;&nbsp;&nbsp;&nbsp;3&nbsp;&nbsp;&nbsp;&nbsp;&nbsp;&nbsp;&nbsp;&nbsp;&nbsp;&nbsp;&nbsp;&nbsp;&nbsp;&nbsp;&nbsp;&nbsp;&nbsp;&nbsp;&nbsp;4</p><p style=""font-size:14px"">Not at all familiar&nbsp;&nbsp;&nbsp;&nbsp;A little familiar&nbsp;&nbsp;&nbsp;Moderately familiar&nbsp;&nbsp;&nbsp;Extremely familiar</p><p>(press the corresponding number on your keyboard)</p>","","52","","","FAM-RESPONSE","","","","","","","","","","","","","","","","","","","sounds/C/FAM/N001.mp3","nonword","","","","","","","","","","","","","","","","","","",""
"html-keyboard-response","261","1397715","0.0-7.0-1.0-0.7","3","1","4slmgu4qjdxhwl9","","null","","","","null","","","","","","","","","","","","","","","","","","","","","","","","","","","","","","","","","","","","","","","","","",""
"audio-keyboard-response","262","1398665","0.0-7.0-1.0-1.7","3","1","4slmgu4qjdxhwl9","","null","","sounds/C/FAM/W003.mp3","","null","","","","","","","","","","","","","","","","","","","","","","","","","","","","","","","","","","","","","","","","","",""
"html-keyboard-response","263","1399937","0.0-7.0-1.0-2.7","3","1","4slmgu4qjdxhwl9","","769","","<p>How familiar did this sound to you?</p><p>1&nbsp;&nbsp;&nbsp;&nbsp;&nbsp;&nbsp;&nbsp;&nbsp;&nbsp;&nbsp;&nbsp;&nbsp;&nbsp;&nbsp;&nbsp;&nbsp;&nbsp;&nbsp;&nbsp;2&nbsp;&nbsp;&nbsp;&nbsp;&nbsp;&nbsp;&nbsp;&nbsp;&nbsp;&nbsp;&nbsp;&nbsp;&nbsp;&nbsp;&nbsp;&nbsp;&nbsp;&nbsp;&nbsp;3&nbsp;&nbsp;&nbsp;&nbsp;&nbsp;&nbsp;&nbsp;&nbsp;&nbsp;&nbsp;&nbsp;&nbsp;&nbsp;&nbsp;&nbsp;&nbsp;&nbsp;&nbsp;&nbsp;4</p><p style=""font-size:14px"">Not at all familiar&nbsp;&nbsp;&nbsp;&nbsp;A little familiar&nbsp;&nbsp;&nbsp;Moderately familiar&nbsp;&nbsp;&nbsp;Extremely familiar</p><p>(press the corresponding number on your keyboard)</p>","","52","","","FAM-RESPONSE","","","","","","","","","","","","","","","","","","","sounds/C/FAM/W003.mp3","word","","","","","","","","","","","","","","","","","","",""
"html-keyboard-response","264","1401940","0.0-7.0-1.0-0.8","3","1","4slmgu4qjdxhwl9","","null","","","","null","","","","","","","","","","","","","","","","","","","","","","","","","","","","","","","","","","","","","","","","","",""
"audio-keyboard-response","265","1402889","0.0-7.0-1.0-1.8","3","1","4slmgu4qjdxhwl9","","null","","sounds/C/FAM/W004.mp3","","null","","","","","","","","","","","","","","","","","","","","","","","","","","","","","","","","","","","","","","","","","",""
"html-keyboard-response","266","1404457","0.0-7.0-1.0-2.8","3","1","4slmgu4qjdxhwl9","","1065","","<p>How familiar did this sound to you?</p><p>1&nbsp;&nbsp;&nbsp;&nbsp;&nbsp;&nbsp;&nbsp;&nbsp;&nbsp;&nbsp;&nbsp;&nbsp;&nbsp;&nbsp;&nbsp;&nbsp;&nbsp;&nbsp;&nbsp;2&nbsp;&nbsp;&nbsp;&nbsp;&nbsp;&nbsp;&nbsp;&nbsp;&nbsp;&nbsp;&nbsp;&nbsp;&nbsp;&nbsp;&nbsp;&nbsp;&nbsp;&nbsp;&nbsp;3&nbsp;&nbsp;&nbsp;&nbsp;&nbsp;&nbsp;&nbsp;&nbsp;&nbsp;&nbsp;&nbsp;&nbsp;&nbsp;&nbsp;&nbsp;&nbsp;&nbsp;&nbsp;&nbsp;4</p><p style=""font-size:14px"">Not at all familiar&nbsp;&nbsp;&nbsp;&nbsp;A little familiar&nbsp;&nbsp;&nbsp;Moderately familiar&nbsp;&nbsp;&nbsp;Extremely familiar</p><p>(press the corresponding number on your keyboard)</p>","","50","","","FAM-RESPONSE","","","","","","","","","","","","","","","","","","","sounds/C/FAM/W004.mp3","word","","","","","","","","","","","","","","","","","","",""
"html-keyboard-response","267","1406460","0.0-7.0-1.0-0.9","3","1","4slmgu4qjdxhwl9","","null","","","","null","","","","","","","","","","","","","","","","","","","","","","","","","","","","","","","","","","","","","","","","","",""
"audio-keyboard-response","268","1407401","0.0-7.0-1.0-1.9","3","1","4slmgu4qjdxhwl9","","null","","sounds/C/FAM/P004.mp3","","null","","","","","","","","","","","","","","","","","","","","","","","","","","","","","","","","","","","","","","","","","",""
"html-keyboard-response","269","1409227","0.0-7.0-1.0-2.9","3","1","4slmgu4qjdxhwl9","","1324","","<p>How familiar did this sound to you?</p><p>1&nbsp;&nbsp;&nbsp;&nbsp;&nbsp;&nbsp;&nbsp;&nbsp;&nbsp;&nbsp;&nbsp;&nbsp;&nbsp;&nbsp;&nbsp;&nbsp;&nbsp;&nbsp;&nbsp;2&nbsp;&nbsp;&nbsp;&nbsp;&nbsp;&nbsp;&nbsp;&nbsp;&nbsp;&nbsp;&nbsp;&nbsp;&nbsp;&nbsp;&nbsp;&nbsp;&nbsp;&nbsp;&nbsp;3&nbsp;&nbsp;&nbsp;&nbsp;&nbsp;&nbsp;&nbsp;&nbsp;&nbsp;&nbsp;&nbsp;&nbsp;&nbsp;&nbsp;&nbsp;&nbsp;&nbsp;&nbsp;&nbsp;4</p><p style=""font-size:14px"">Not at all familiar&nbsp;&nbsp;&nbsp;&nbsp;A little familiar&nbsp;&nbsp;&nbsp;Moderately familiar&nbsp;&nbsp;&nbsp;Extremely familiar</p><p>(press the corresponding number on your keyboard)</p>","","50","","","FAM-RESPONSE","","","","","","","","","","","","","","","","","","","sounds/C/FAM/P004.mp3","partword","","","","","","","","","","","","","","","","","","",""
"html-keyboard-response","270","1411231","0.0-7.0-1.0-0.10","3","1","4slmgu4qjdxhwl9","","null","","","","null","","","","","","","","","","","","","","","","","","","","","","","","","","","","","","","","","","","","","","","","","",""
"audio-keyboard-response","271","1412179","0.0-7.0-1.0-1.10","3","1","4slmgu4qjdxhwl9","","null","","sounds/C/FAM/N002.mp3","","null","","","","","","","","","","","","","","","","","","","","","","","","","","","","","","","","","","","","","","","","","",""
"html-keyboard-response","272","1413101","0.0-7.0-1.0-2.10","3","1","4slmgu4qjdxhwl9","","420","","<p>How familiar did this sound to you?</p><p>1&nbsp;&nbsp;&nbsp;&nbsp;&nbsp;&nbsp;&nbsp;&nbsp;&nbsp;&nbsp;&nbsp;&nbsp;&nbsp;&nbsp;&nbsp;&nbsp;&nbsp;&nbsp;&nbsp;2&nbsp;&nbsp;&nbsp;&nbsp;&nbsp;&nbsp;&nbsp;&nbsp;&nbsp;&nbsp;&nbsp;&nbsp;&nbsp;&nbsp;&nbsp;&nbsp;&nbsp;&nbsp;&nbsp;3&nbsp;&nbsp;&nbsp;&nbsp;&nbsp;&nbsp;&nbsp;&nbsp;&nbsp;&nbsp;&nbsp;&nbsp;&nbsp;&nbsp;&nbsp;&nbsp;&nbsp;&nbsp;&nbsp;4</p><p style=""font-size:14px"">Not at all familiar&nbsp;&nbsp;&nbsp;&nbsp;A little familiar&nbsp;&nbsp;&nbsp;Moderately familiar&nbsp;&nbsp;&nbsp;Extremely familiar</p><p>(press the corresponding number on your keyboard)</p>","","51","","","FAM-RESPONSE","","","","","","","","","","","","","","","","","","","sounds/C/FAM/N002.mp3","nonword","","","","","","","","","","","","","","","","","","",""
"html-keyboard-response","273","1415104","0.0-7.0-1.0-0.11","3","1","4slmgu4qjdxhwl9","","null","","","","null","","","","","","","","","","","","","","","","","","","","","","","","","","","","","","","","","","","","","","","","","",""
"audio-keyboard-response","274","1416051","0.0-7.0-1.0-1.11","3","1","4slmgu4qjdxhwl9","","null","","sounds/C/FAM/N003.mp3","","null","","","","","","","","","","","","","","","","","","","","","","","","","","","","","","","","","","","","","","","","","",""
"html-keyboard-response","275","1420089","0.0-7.0-1.0-2.11","3","1","4slmgu4qjdxhwl9","","3535.000000000233","","<p>How familiar did this sound to you?</p><p>1&nbsp;&nbsp;&nbsp;&nbsp;&nbsp;&nbsp;&nbsp;&nbsp;&nbsp;&nbsp;&nbsp;&nbsp;&nbsp;&nbsp;&nbsp;&nbsp;&nbsp;&nbsp;&nbsp;2&nbsp;&nbsp;&nbsp;&nbsp;&nbsp;&nbsp;&nbsp;&nbsp;&nbsp;&nbsp;&nbsp;&nbsp;&nbsp;&nbsp;&nbsp;&nbsp;&nbsp;&nbsp;&nbsp;3&nbsp;&nbsp;&nbsp;&nbsp;&nbsp;&nbsp;&nbsp;&nbsp;&nbsp;&nbsp;&nbsp;&nbsp;&nbsp;&nbsp;&nbsp;&nbsp;&nbsp;&nbsp;&nbsp;4</p><p style=""font-size:14px"">Not at all familiar&nbsp;&nbsp;&nbsp;&nbsp;A little familiar&nbsp;&nbsp;&nbsp;Moderately familiar&nbsp;&nbsp;&nbsp;Extremely familiar</p><p>(press the corresponding number on your keyboard)</p>","","49","","","FAM-RESPONSE","","","","","","","","","","","","","","","","","","","sounds/C/FAM/N003.mp3","nonword","","","","","","","","","","","","","","","","","","",""
"html-button-response","276","1431712","0.0-8.0-0.0","3","1","4slmgu4qjdxhwl9","","10621","","<p>You will now listen to longer sound sequences.</p><p>Each sound sequence will last about 16 seconds.</p><p>On each trial, you will be given a <u>TARGET SOUND</u>. Your task is to listen very carefully for this sound.</p><p>Every time you hear the <u>TARGET SOUND</u>, you will press the <b>SPACEBAR</b> as quickly and accurately as you can.</p>","0","","","","","","","","","","","","","","","","","","","","","","","","","","","","","","","","","","","","","","","","","","",""
"html-button-response","277","1439644","0.0-8.0-1.0","3","1","4slmgu4qjdxhwl9","","7680","","<p>It is very important that you make your responses as quickly and accurately as possible.</p><p>To help you make your responses, you will be able to listen to the <u>TARGET SOUND</u> at the beginning of each trial.</p><p>There will be 36 total trials.</p><p><b>Note: This is meant to be a difficult task. We simply want you to try your best.</p>","0","","","","","","","","","","","","","","","","","","","","","","","","","","","","","","","","","","","","","","","","","","",""
"html-button-response","278","1441818","0.0-8.0-2.0-0.0","3","1","4slmgu4qjdxhwl9","","1921","","<p>Trial 1 of 36</p>","0","","","","","","","","","","","","","","","","","","","","","","","","","TA","sounds/syllables/ta_SWS.wav","2100,5700,9300,11100","2","","","","","","","","","","","","","","",""
"html-keyboard-response","279","1444117","0.0-8.0-2.0-1.0","3","1","4slmgu4qjdxhwl9","","2297.000000000233","","","","80","","","","","","","","","","","","","","","","","","","","","","","","TA","","2100,5700,9300,11100","2","","","","","","","","","","","","","","",""
"audio-keyboard-response","280","1444423","0.0-8.0-2.0-2.0-0.0","3","1","4slmgu4qjdxhwl9","","null","","sounds/syllables/ta_SWS.wav","","null","","","","","","","","","","","","","","","","","","","","","","","","","","","","","","","","","","","","","","","","","",""
"html-keyboard-response","281","1446152","0.0-8.0-2.0-2.0-1.0","3","1","4slmgu4qjdxhwl9","","1727.9999999997672","","<p>To replay the <u>TARGET SOUND</u>, press P.</p> When you are ready to begin, press SPACEBAR.","","80","","","","","","","","","","","","","","","","","","","","","","","","","","","","","","","","","","","","","","","","","",""
"audio-keyboard-response","282","1446962","0.0-8.0-2.0-2.1-0.1","3","1","4slmgu4qjdxhwl9","","null","","sounds/syllables/ta_SWS.wav","","null","","","","","","","","","","","","","","","","","","","","","","","","","","","","","","","","","","","","","","","","","",""
"html-keyboard-response","283","1448431","0.0-8.0-2.0-2.1-1.1","3","1","4slmgu4qjdxhwl9","","1467.9999999997672","","<p>To replay the <u>TARGET SOUND</u>, press P.</p> When you are ready to begin, press SPACEBAR.","","32","","","","","","","","","","","","","","","","","","","","","","","","","","","","","","","","","","","","","","","","","",""
"audio-keyboard-response","284","1463388","0.0-8.0-2.0-3.0","3","1","4slmgu4qjdxhwl9","","2965","","sounds/C/TD/TA_09_TD.mp3","","32","","","TD_SUMMARY","","","","","","","","","","","","","","","","","","","","","TA","","2100,5700,9300,11100","2","2100","5700","9300","11100","861","616","739","833","2961_6316_10039_11933","2","","","","",""
"html-button-response","285","1465351","0.0-8.0-2.0-0.1","3","1","4slmgu4qjdxhwl9","","1960","","<p>Trial 2 of 36</p>","0","","","","","","","","","","","","","","","","","","","","","","","","","GE","sounds/syllables/ge_SWS.wav","4200,8700,10500,12300","3","","","","","","","","","","","","","","",""
"html-keyboard-response","286","1467509","0.0-8.0-2.0-1.1","3","1","4slmgu4qjdxhwl9","","2156","","","","80","","","","","","","","","","","","","","","","","","","","","","","","GE","","4200,8700,10500,12300","3","","","","","","","","","","","","","","",""
"audio-keyboard-response","287","1467814","0.0-8.0-2.0-2.2-0.2","3","1","4slmgu4qjdxhwl9","","null","","sounds/syllables/ge_SWS.wav","","null","","","","","","","","","","","","","","","","","","","","","","","","","","","","","","","","","","","","","","","","","",""
"html-keyboard-response","288","1468991","0.0-8.0-2.0-2.2-1.2","3","1","4slmgu4qjdxhwl9","","1176.0000000002328","","<p>To replay the <u>TARGET SOUND</u>, press P.</p> When you are ready to begin, press SPACEBAR.","","80","","","","","","","","","","","","","","","","","","","","","","","","","","","","","","","","","","","","","","","","","",""
"audio-keyboard-response","289","1469798","0.0-8.0-2.0-2.3-0.3","3","1","4slmgu4qjdxhwl9","","null","","sounds/syllables/ge_SWS.wav","","null","","","","","","","","","","","","","","","","","","","","","","","","","","","","","","","","","","","","","","","","","",""
"html-keyboard-response","290","1473372","0.0-8.0-2.0-2.3-1.3","3","1","4slmgu4qjdxhwl9","","3573","","<p>To replay the <u>TARGET SOUND</u>, press P.</p> When you are ready to begin, press SPACEBAR.","","32","","","","","","","","","","","","","","","","","","","","","","","","","","","","","","","","","","","","","","","","","",""
"audio-keyboard-response","291","1488325","0.0-8.0-2.0-3.1","3","1","4slmgu4qjdxhwl9","","1845","","sounds/C/TD/GE_01_TD.mp3","","32","","","TD_SUMMARY","","","","","","","","","","","","","","","","","","","","","GE","","4200,8700,10500,12300","3","4200","8700","10500","12300","null","646","467.99999999976717","763.9999999997672","____1848.9999999997672_4154.999999999767_6419.999999999767_9346_10967.999999999767_13063.999999999767","2","","","","",""
"html-button-response","292","1504722","0.0-8.0-2.0-0.2","3","1","4slmgu4qjdxhwl9","","16394","","<p>Trial 3 of 36</p>","0","","","","","","","","","","","","","","","","","","","","","","","","","PU","sounds/syllables/pu_SWS.wav","1500,8700,11400,13200","3","","","","","","","","","","","","","","",""
"html-keyboard-response","293","1505587","0.0-8.0-2.0-1.2","3","1","4slmgu4qjdxhwl9","","864","","","","80","","","","","","","","","","","","","","","","","","","","","","","","PU","","1500,8700,11400,13200","3","","","","","","","","","","","","","","",""
"audio-keyboard-response","294","1505892","0.0-8.0-2.0-2.4-0.4","3","1","4slmgu4qjdxhwl9","","null","","sounds/syllables/pu_SWS.wav","","null","","","","","","","","","","","","","","","","","","","","","","","","","","","","","","","","","","","","","","","","","",""
"html-keyboard-response","295","1506859","0.0-8.0-2.0-2.4-1.4","3","1","4slmgu4qjdxhwl9","","965.9999999997672","","<p>To replay the <u>TARGET SOUND</u>, press P.</p> When you are ready to begin, press SPACEBAR.","","80","","","","","","","","","","","","","","","","","","","","","","","","","","","","","","","","","","","","","","","","","",""
"audio-keyboard-response","296","1507663","0.0-8.0-2.0-2.5-0.5","3","1","4slmgu4qjdxhwl9","","null","","sounds/syllables/pu_SWS.wav","","null","","","","","","","","","","","","","","","","","","","","","","","","","","","","","","","","","","","","","","","","","",""
"html-keyboard-response","297","1509504","0.0-8.0-2.0-2.5-1.5","3","1","4slmgu4qjdxhwl9","","1840","","<p>To replay the <u>TARGET SOUND</u>, press P.</p> When you are ready to begin, press SPACEBAR.","","32","","","","","","","","","","","","","","","","","","","","","","","","","","","","","","","","","","","","","","","","","",""
"audio-keyboard-response","298","1524452","0.0-8.0-2.0-3.2","3","1","4slmgu4qjdxhwl9","","1792","","sounds/C/TD/PU_05_TD.mp3","","32","","","TD_SUMMARY","","","","","","","","","","","","","","","","","","","","","PU","","1500,8700,11400,13200","3","1500","8700","11400","13200","857.0000000002328","836","902","798","__________1784_2357.000000000233_4154_5473_6331_8020.000000000233_9261.000000000233_9536_11180_12080_12302_13767_13998","2","","","","",""
"html-button-response","299","1528576","0.0-8.0-2.0-0.3","3","1","4slmgu4qjdxhwl9","","4122","","<p>Trial 4 of 36</p>","0","","","","","","","","","","","","","","","","","","","","","","","","","SU","sounds/syllables/su_SWS.wav","5400,8100,10800,12600","1","","","","","","","","","","","","","","",""
"html-keyboard-response","300","1530550","0.0-8.0-2.0-1.3","3","1","4slmgu4qjdxhwl9","","1971","","","","80","","","","","","","","","","","","","","","","","","","","","","","","SU","","5400,8100,10800,12600","1","","","","","","","","","","","","","","",""
"audio-keyboard-response","301","1530851","0.0-8.0-2.0-2.6-0.6","3","1","4slmgu4qjdxhwl9","","null","","sounds/syllables/su_SWS.wav","","null","","","","","","","","","","","","","","","","","","","","","","","","","","","","","","","","","","","","","","","","","",""
"html-keyboard-response","302","1532122","0.0-8.0-2.0-2.6-1.6","3","1","4slmgu4qjdxhwl9","","1270.0000000002328","","<p>To replay the <u>TARGET SOUND</u>, press P.</p> When you are ready to begin, press SPACEBAR.","","80","","","","","","","","","","","","","","","","","","","","","","","","","","","","","","","","","","","","","","","","","",""
"audio-keyboard-response","303","1532931","0.0-8.0-2.0-2.7-0.7","3","1","4slmgu4qjdxhwl9","","null","","sounds/syllables/su_SWS.wav","","null","","","","","","","","","","","","","","","","","","","","","","","","","","","","","","","","","","","","","","","","","",""
"html-keyboard-response","304","1534991","0.0-8.0-2.0-2.7-1.7","3","1","4slmgu4qjdxhwl9","","2059","","<p>To replay the <u>TARGET SOUND</u>, press P.</p> When you are ready to begin, press SPACEBAR.","","32","","","","","","","","","","","","","","","","","","","","","","","","","","","","","","","","","","","","","","","","","",""
"audio-keyboard-response","305","1549944","0.0-8.0-2.0-3.3","3","1","4slmgu4qjdxhwl9","","1333","","sounds/C/TD/SU_09_TD.mp3","","32","","","TD_SUMMARY","","","","","","","","","","","","","","","","","","","","","SU","","5400,8100,10800,12600","1","5400","8100","10800","12600","762","634","407","882","_______________________1338_4039_6162_7797_8734_11207_13482","2","","","","",""
"html-button-response","306","1551568","0.0-8.0-2.0-0.4","3","1","4slmgu4qjdxhwl9","","1622","","<p>Trial 5 of 36</p>","0","","","","","","","","","","","","","","","","","","","","","","","","","FE","sounds/syllables/fe_SWS.wav","4800,6600,8400,10200","2","","","","","","","","","","","","","","",""
"html-keyboard-response","307","1552854","0.0-8.0-2.0-1.4","3","1","4slmgu4qjdxhwl9","","1285","","","","80","","","","","","","","","","","","","","","","","","","","","","","","FE","","4800,6600,8400,10200","2","","","","","","","","","","","","","","",""
"audio-keyboard-response","308","1553165","0.0-8.0-2.0-2.8-0.8","3","1","4slmgu4qjdxhwl9","","null","","sounds/syllables/fe_SWS.wav","","null","","","","","","","","","","","","","","","","","","","","","","","","","","","","","","","","","","","","","","","","","",""
"html-keyboard-response","309","1554770","0.0-8.0-2.0-2.8-1.8","3","1","4slmgu4qjdxhwl9","","1603","","<p>To replay the <u>TARGET SOUND</u>, press P.</p> When you are ready to begin, press SPACEBAR.","","80","","","","","","","","","","","","","","","","","","","","","","","","","","","","","","","","","","","","","","","","","",""
"audio-keyboard-response","310","1555575","0.0-8.0-2.0-2.9-0.9","3","1","4slmgu4qjdxhwl9","","null","","sounds/syllables/fe_SWS.wav","","null","","","","","","","","","","","","","","","","","","","","","","","","","","","","","","","","","","","","","","","","","",""
"html-keyboard-response","311","1556622","0.0-8.0-2.0-2.9-1.9","3","1","4slmgu4qjdxhwl9","","1046","","<p>To replay the <u>TARGET SOUND</u>, press P.</p> When you are ready to begin, press SPACEBAR.","","32","","","","","","","","","","","","","","","","","","","","","","","","","","","","","","","","","","","","","","","","","",""
"audio-keyboard-response","312","1571575","0.0-8.0-2.0-3.4","3","1","4slmgu4qjdxhwl9","","2293","","sounds/C/TD/FE_10_TD.mp3","","32","","","TD_SUMMARY","","","","","","","","","","","","","","","","","","","","","FE","","4800,6600,8400,10200","2","4800","6600","8400","10200","null","277","null","null","______________________________2291_6047_6619_6877_12425_12659_12888_13392","2","","","","",""
"html-button-response","313","1573321","0.0-8.0-2.0-0.5","3","1","4slmgu4qjdxhwl9","","1744","","<p>Trial 6 of 36</p>","0","","","","","","","","","","","","","","","","","","","","","","","","","NI","sounds/syllables/ni_SWS.wav","2700,5400,7200,12600","1","","","","","","","","","","","","","","",""
"html-keyboard-response","314","1574536","0.0-8.0-2.0-1.5","3","1","4slmgu4qjdxhwl9","","1213","","","","80","","","","","","","","","","","","","","","","","","","","","","","","NI","","2700,5400,7200,12600","1","","","","","","","","","","","","","","",""
"audio-keyboard-response","315","1574838","0.0-8.0-2.0-2.10-0.10","3","1","4slmgu4qjdxhwl9","","null","","sounds/syllables/ni_SWS.wav","","null","","","","","","","","","","","","","","","","","","","","","","","","","","","","","","","","","","","","","","","","","",""
"html-keyboard-response","316","1575723","0.0-8.0-2.0-2.10-1.10","3","1","4slmgu4qjdxhwl9","","883","","<p>To replay the <u>TARGET SOUND</u>, press P.</p> When you are ready to begin, press SPACEBAR.","","80","","","","","","","","","","","","","","","","","","","","","","","","","","","","","","","","","","","","","","","","","",""
"audio-keyboard-response","317","1576534","0.0-8.0-2.0-2.11-0.11","3","1","4slmgu4qjdxhwl9","","null","","sounds/syllables/ni_SWS.wav","","null","","","","","","","","","","","","","","","","","","","","","","","","","","","","","","","","","","","","","","","","","",""
