"trial_type","trial_index","time_elapsed","internal_node_id","counterbalance","lang_instruct","ParticipantID","view_history","rt","url","stimulus","button_pressed","key_press","correctRESP","correct","designation","location","correctanswer","responses","sentence","keywords","typed_resp","keyword1_acc","keyword2_acc","keyword3_acc","keyword4_acc","keyword5_acc","total_acc","prop_acc","timeouts","pause_rt01","pause_rt02","train_file","numKeyPress"
"pavlovia","0","3","0.0-0.0","2","1","q4qs86cjwweeet5","","","","","","","","","","","","","","","","","","","","","","","","","","",""
"instructions","1","7130","0.0-1.0","2","1","q4qs86cjwweeet5","[{""page_index"":0,""viewing_time"":3507.300000011921},{""page_index"":1,""viewing_time"":3612.199999988079}]","7126.800000011921","","","","","","","","","","","","","","","","","","","","","","","","",""
"external-html","2","924296","0.0-2.0","2","1","q4qs86cjwweeet5","","807639.900000006","consent/consent.html","","","","","","","","","","","","","","","","","","","","","","","",""
"html-button-response","3","2295361","0.0-3.0-0.0-0.0","2","1","q4qs86cjwweeet5","","1226460.199999988","","<p>Welcome to the study. You will first complete a short volume calibration and headphone check.</p><p>Please make sure you are in a quiet listening environment, that you are wearing headphones, and that your computer's volume is turned on.<p></p>","0","","","","","","","","","","","","","","","","","","","","","",""
"html-button-response","4","2300714","0.0-3.0-0.0-1.0","2","1","q4qs86cjwweeet5","","5092.4000000059605","","<p>The volume calibration will be first.</p><p>You will hear a thirty-second noise. Please adjust your computer's volume so that this noise is being presented at a comfortable level.<p></p>","0","","","","","","","","","","","","","","","","","","","","","",""
"audio-button-response","5","2313620","0.0-3.0-0.0-2.0","2","1","q4qs86cjwweeet5","","12597","","audCalib/volumetest.mp3","0","","","","","","","","","","","","","","","","","","","","","",""
"html-button-response","6","2373804","0.0-3.0-1.0-0.0","2","1","q4qs86cjwweeet5","","60177.19999998808","","<p>You will now complete a short headphone check.</p><p>On each trial, you will hear three tones. One of these tones will be quieter than the others. Your task is to identify whether the quiet tone occured first, second, or third.</p><p>There are six trials in total.<p></p>","0","","","","","","","","","","","","","","","","","","","","","",""
"html-keyboard-response","7","2374566","0.0-3.0-1.0-1.0-0.0","2","1","q4qs86cjwweeet5","","null","","<div style=""font-size:60px;"">+</div>","","null","","","","","","","","","","","","","","","","","","","","",""
"audio-button-response","8","2379273","0.0-3.0-1.0-1.0-1.0","2","1","q4qs86cjwweeet5","","4651","","audCalib/t1_1.mp3","0","","0","1","headphone-test","","","","","","","","","","","","","","","","","",""
"html-keyboard-response","9","2380030","0.0-3.0-1.0-1.0-0.1","2","1","q4qs86cjwweeet5","","null","","<div style=""font-size:60px;"">+</div>","","null","","","","","","","","","","","","","","","","","","","","",""
"audio-button-response","10","2384451","0.0-3.0-1.0-1.0-1.1","2","1","q4qs86cjwweeet5","","4416","","audCalib/t1_2.mp3","0","","0","1","headphone-test","","","","","","","","","","","","","","","","","",""
"html-keyboard-response","11","2385207","0.0-3.0-1.0-1.0-0.2","2","1","q4qs86cjwweeet5","","null","","<div style=""font-size:60px;"">+</div>","","null","","","","","","","","","","","","","","","","","","","","",""
"audio-button-response","12","2389576","0.0-3.0-1.0-1.0-1.2","2","1","q4qs86cjwweeet5","","4368","","audCalib/t2_2.mp3","1","","1","1","headphone-test","","","","","","","","","","","","","","","","","",""
"html-keyboard-response","13","2390334","0.0-3.0-1.0-1.0-0.3","2","1","q4qs86cjwweeet5","","null","","<div style=""font-size:60px;"">+</div>","","null","","","","","","","","","","","","","","","","","","","","",""
"audio-button-response","14","2394919","0.0-3.0-1.0-1.0-1.3","2","1","q4qs86cjwweeet5","","4581","","audCalib/t3_1.mp3","2","","2","1","headphone-test","","","","","","","","","","","","","","","","","",""
"html-keyboard-response","15","2395681","0.0-3.0-1.0-1.0-0.4","2","1","q4qs86cjwweeet5","","null","","<div style=""font-size:60px;"">+</div>","","null","","","","","","","","","","","","","","","","","","","","",""
"audio-button-response","16","2399983","0.0-3.0-1.0-1.0-1.4","2","1","q4qs86cjwweeet5","","4299","","audCalib/t3_2.mp3","2","","2","1","headphone-test","","","","","","","","","","","","","","","","","",""
"html-keyboard-response","17","2400743","0.0-3.0-1.0-1.0-0.5","2","1","q4qs86cjwweeet5","","null","","<div style=""font-size:60px;"">+</div>","","null","","","","","","","","","","","","","","","","","","","","",""
"audio-button-response","18","2405074","0.0-3.0-1.0-1.0-1.5","2","1","q4qs86cjwweeet5","","4325","","audCalib/t2_1.mp3","1","","1","1","headphone-test","","","","","","","","","","","","","","","","","",""
"html-button-response","19","2406885","0.0-3.0-2.0","2","1","q4qs86cjwweeet5","","1555.9000000059605","","<p>The volume calibration and headphone check are now complete.</p>","0","","","","","","","","","","","","","","","","","","","","","",""
"instructions","20","2419778","0.0-4.0-0.0","2","1","q4qs86cjwweeet5","[{""page_index"":0,""viewing_time"":1368.7000000178814},{""page_index"":1,""viewing_time"":9293.40000000596},{""page_index"":2,""viewing_time"":2227.5999999940395}]","12891.5","","","","","","","","","","","","","","","","","","","","","","","","",""
"audio-keyboard-response","21","2420079","0.0-4.0-1.0-0.0","2","1","q4qs86cjwweeet5","","null","","sounds/induction/right/ko_SWS.wav","","null","","","","","","","","","","","","","","","","","","","","",""
"html-button-response","22","2423048","0.0-4.0-1.0-1.0","2","1","q4qs86cjwweeet5","","2966.800000011921","","What sound did you hear?","0","","","1","INDUCTION-JUDGMENT","right","0","","","","","","","","","","","","","","","",""
"html-keyboard-response","23","2424051","0.0-4.0-1.0-2.0","2","1","q4qs86cjwweeet5","","null","","<p style=""color:green;""><b>Correct!</b></p>","","null","","","","","","","","","","","","","","","","","","","","",""
"audio-keyboard-response","24","2424858","0.0-4.0-1.0-0.1","2","1","q4qs86cjwweeet5","","null","","sounds/induction/right/me_SWS.wav","","null","","","","","","","","","","","","","","","","","","","","",""
"html-button-response","25","2426671","0.0-4.0-1.0-1.1","2","1","q4qs86cjwweeet5","","1811.300000011921","","What sound did you hear?","0","","","1","INDUCTION-JUDGMENT","right","0","","","","","","","","","","","","","","","",""
"html-keyboard-response","26","2427675","0.0-4.0-1.0-2.1","2","1","q4qs86cjwweeet5","","null","","<p style=""color:green;""><b>Correct!</b></p>","","null","","","","","","","","","","","","","","","","","","","","",""
"audio-keyboard-response","27","2428484","0.0-4.0-1.0-0.2","2","1","q4qs86cjwweeet5","","null","","sounds/induction/right/fe_SWS.wav","","null","","","","","","","","","","","","","","","","","","","","",""
"html-button-response","28","2430865","0.0-4.0-1.0-1.2","2","1","q4qs86cjwweeet5","","2378.9000000059605","","What sound did you hear?","0","","","1","INDUCTION-JUDGMENT","right","0","","","","","","","","","","","","","","","",""
"html-keyboard-response","29","2431867","0.0-4.0-1.0-2.2","2","1","q4qs86cjwweeet5","","null","","<p style=""color:green;""><b>Correct!</b></p>","","null","","","","","","","","","","","","","","","","","","","","",""
"audio-keyboard-response","30","2432676","0.0-4.0-1.0-0.3","2","1","q4qs86cjwweeet5","","null","","sounds/induction/right/ru_SWS.wav","","null","","","","","","","","","","","","","","","","","","","","",""
"html-button-response","31","2433811","0.0-4.0-1.0-1.3","2","1","q4qs86cjwweeet5","","1132.800000011921","","What sound did you hear?","1","","","1","INDUCTION-JUDGMENT","right","1","","","","","","","","","","","","","","","",""
"html-keyboard-response","32","2434818","0.0-4.0-1.0-2.3","2","1","q4qs86cjwweeet5","","null","","<p style=""color:green;""><b>Correct!</b></p>","","null","","","","","","","","","","","","","","","","","","","","",""
"audio-keyboard-response","33","2435621","0.0-4.0-1.0-0.4","2","1","q4qs86cjwweeet5","","null","","sounds/induction/right/ti_SWS.wav","","null","","","","","","","","","","","","","","","","","","","","",""
"html-button-response","34","2439001","0.0-4.0-1.0-1.4","2","1","q4qs86cjwweeet5","","3378.699999988079","","What sound did you hear?","0","","","0","INDUCTION-JUDGMENT","right","1","","","","","","","","","","","","","","","",""
"html-keyboard-response","35","2440008","0.0-4.0-1.0-2.4","2","1","q4qs86cjwweeet5","","null","","<p style=""color:red;""><b>Incorrect!</b></p>","","null","","","","","","","","","","","","","","","","","","","","",""
"audio-keyboard-response","36","2440815","0.0-4.0-1.0-0.5","2","1","q4qs86cjwweeet5","","null","","sounds/induction/left/ni_SWS.wav","","null","","","","","","","","","","","","","","","","","","","","",""
"html-button-response","37","2442027","0.0-4.0-1.0-1.5","2","1","q4qs86cjwweeet5","","1209.0999999940395","","What sound did you hear?","1","","","1","INDUCTION-JUDGMENT","left","1","","","","","","","","","","","","","","","",""
"html-keyboard-response","38","2443031","0.0-4.0-1.0-2.5","2","1","q4qs86cjwweeet5","","null","","<p style=""color:green;""><b>Correct!</b></p>","","null","","","","","","","","","","","","","","","","","","","","",""
"audio-keyboard-response","39","2443834","0.0-4.0-1.0-0.6","2","1","q4qs86cjwweeet5","","null","","sounds/induction/right/fu_SWS.wav","","null","","","","","","","","","","","","","","","","","","","","",""
"html-button-response","40","2445113","0.0-4.0-1.0-1.6","2","1","q4qs86cjwweeet5","","1277.699999988079","","What sound did you hear?","0","","","1","INDUCTION-JUDGMENT","right","0","","","","","","","","","","","","","","","",""
"html-keyboard-response","41","2446119","0.0-4.0-1.0-2.6","2","1","q4qs86cjwweeet5","","null","","<p style=""color:green;""><b>Correct!</b></p>","","null","","","","","","","","","","","","","","","","","","","","",""
"audio-keyboard-response","42","2446927","0.0-4.0-1.0-0.7","2","1","q4qs86cjwweeet5","","null","","sounds/induction/right/ta_SWS.wav","","null","","","","","","","","","","","","","","","","","","","","",""
"html-button-response","43","2448224","0.0-4.0-1.0-1.7","2","1","q4qs86cjwweeet5","","1295.4000000059605","","What sound did you hear?","1","","","1","INDUCTION-JUDGMENT","right","1","","","","","","","","","","","","","","","",""
"html-keyboard-response","44","2449230","0.0-4.0-1.0-2.7","2","1","q4qs86cjwweeet5","","null","","<p style=""color:green;""><b>Correct!</b></p>","","null","","","","","","","","","","","","","","","","","","","","",""
"audio-keyboard-response","45","2450036","0.0-4.0-1.0-0.8","2","1","q4qs86cjwweeet5","","null","","sounds/induction/left/fu_SWS.wav","","null","","","","","","","","","","","","","","","","","","","","",""
"html-button-response","46","2451093","0.0-4.0-1.0-1.8","2","1","q4qs86cjwweeet5","","1055.0999999940395","","What sound did you hear?","1","","","1","INDUCTION-JUDGMENT","left","1","","","","","","","","","","","","","","","",""
"html-keyboard-response","47","2452100","0.0-4.0-1.0-2.8","2","1","q4qs86cjwweeet5","","null","","<p style=""color:green;""><b>Correct!</b></p>","","null","","","","","","","","","","","","","","","","","","","","",""
"audio-keyboard-response","48","2452906","0.0-4.0-1.0-0.9","2","1","q4qs86cjwweeet5","","null","","sounds/induction/left/me_SWS.wav","","null","","","","","","","","","","","","","","","","","","","","",""
"html-button-response","49","2454256","0.0-4.0-1.0-1.9","2","1","q4qs86cjwweeet5","","1347.5","","What sound did you hear?","1","","","1","INDUCTION-JUDGMENT","left","1","","","","","","","","","","","","","","","",""
"html-keyboard-response","50","2455259","0.0-4.0-1.0-2.9","2","1","q4qs86cjwweeet5","","null","","<p style=""color:green;""><b>Correct!</b></p>","","null","","","","","","","","","","","","","","","","","","","","",""
"audio-keyboard-response","51","2456063","0.0-4.0-1.0-0.10","2","1","q4qs86cjwweeet5","","null","","sounds/induction/right/ni_SWS.wav","","null","","","","","","","","","","","","","","","","","","","","",""
"html-button-response","52","2457389","0.0-4.0-1.0-1.10","2","1","q4qs86cjwweeet5","","1324.0999999940395","","What sound did you hear?","0","","","1","INDUCTION-JUDGMENT","right","0","","","","","","","","","","","","","","","",""
"html-keyboard-response","53","2458393","0.0-4.0-1.0-2.10","2","1","q4qs86cjwweeet5","","null","","<p style=""color:green;""><b>Correct!</b></p>","","null","","","","","","","","","","","","","","","","","","","","",""
"audio-keyboard-response","54","2459194","0.0-4.0-1.0-0.11","2","1","q4qs86cjwweeet5","","null","","sounds/induction/right/ko_SWS.wav","","null","","","","","","","","","","","","","","","","","","","","",""
"html-button-response","55","2460667","0.0-4.0-1.0-1.11","2","1","q4qs86cjwweeet5","","1471.5999999940395","","What sound did you hear?","0","","","1","INDUCTION-JUDGMENT","right","0","","","","","","","","","","","","","","","",""
"html-keyboard-response","56","2461672","0.0-4.0-1.0-2.11","2","1","q4qs86cjwweeet5","","null","","<p style=""color:green;""><b>Correct!</b></p>","","null","","","","","","","","","","","","","","","","","","","","",""
"audio-keyboard-response","57","2462479","0.0-4.0-1.0-0.12","2","1","q4qs86cjwweeet5","","null","","sounds/induction/left/ge_SWS.wav","","null","","","","","","","","","","","","","","","","","","","","",""
"html-button-response","58","2463691","0.0-4.0-1.0-1.12","2","1","q4qs86cjwweeet5","","1209.9000000059605","","What sound did you hear?","1","","","1","INDUCTION-JUDGMENT","left","1","","","","","","","","","","","","","","","",""
"html-keyboard-response","59","2464698","0.0-4.0-1.0-2.12","2","1","q4qs86cjwweeet5","","null","","<p style=""color:green;""><b>Correct!</b></p>","","null","","","","","","","","","","","","","","","","","","","","",""
"audio-keyboard-response","60","2465503","0.0-4.0-1.0-0.13","2","1","q4qs86cjwweeet5","","null","","sounds/induction/left/fu_SWS.wav","","null","","","","","","","","","","","","","","","","","","","","",""
"html-button-response","61","2466531","0.0-4.0-1.0-1.13","2","1","q4qs86cjwweeet5","","1024.5","","What sound did you hear?","1","","","1","INDUCTION-JUDGMENT","left","1","","","","","","","","","","","","","","","",""
"html-keyboard-response","62","2467536","0.0-4.0-1.0-2.13","2","1","q4qs86cjwweeet5","","null","","<p style=""color:green;""><b>Correct!</b></p>","","null","","","","","","","","","","","","","","","","","","","","",""
"audio-keyboard-response","63","2468341","0.0-4.0-1.0-0.14","2","1","q4qs86cjwweeet5","","null","","sounds/induction/left/re_SWS.wav","","null","","","","","","","","","","","","","","","","","","","","",""
"html-button-response","64","2469561","0.0-4.0-1.0-1.14","2","1","q4qs86cjwweeet5","","1218.5","","What sound did you hear?","0","","","1","INDUCTION-JUDGMENT","left","0","","","","","","","","","","","","","","","",""
"html-keyboard-response","65","2470564","0.0-4.0-1.0-2.14","2","1","q4qs86cjwweeet5","","null","","<p style=""color:green;""><b>Correct!</b></p>","","null","","","","","","","","","","","","","","","","","","","","",""
"audio-keyboard-response","66","2471370","0.0-4.0-1.0-0.15","2","1","q4qs86cjwweeet5","","null","","sounds/induction/left/su_SWS.wav","","null","","","","","","","","","","","","","","","","","","","","",""
"html-button-response","67","2472768","0.0-4.0-1.0-1.15","2","1","q4qs86cjwweeet5","","1396.4000000059605","","What sound did you hear?","0","","","1","INDUCTION-JUDGMENT","left","0","","","","","","","","","","","","","","","",""
"html-keyboard-response","68","2473772","0.0-4.0-1.0-2.15","2","1","q4qs86cjwweeet5","","null","","<p style=""color:green;""><b>Correct!</b></p>","","null","","","","","","","","","","","","","","","","","","","","",""
"audio-keyboard-response","69","2474580","0.0-4.0-1.0-0.16","2","1","q4qs86cjwweeet5","","null","","sounds/induction/left/pu_SWS.wav","","null","","","","","","","","","","","","","","","","","","","","",""
"html-button-response","70","2475301","0.0-4.0-1.0-1.16","2","1","q4qs86cjwweeet5","","719.9000000059605","","What sound did you hear?","0","","","1","INDUCTION-JUDGMENT","left","0","","","","","","","","","","","","","","","",""
"html-keyboard-response","71","2476303","0.0-4.0-1.0-2.16","2","1","q4qs86cjwweeet5","","null","","<p style=""color:green;""><b>Correct!</b></p>","","null","","","","","","","","","","","","","","","","","","","","",""
"audio-keyboard-response","72","2477108","0.0-4.0-1.0-0.17","2","1","q4qs86cjwweeet5","","null","","sounds/induction/right/ge_SWS.wav","","null","","","","","","","","","","","","","","","","","","","","",""
"html-button-response","73","2477729","0.0-4.0-1.0-1.17","2","1","q4qs86cjwweeet5","","619.5","","What sound did you hear?","0","","","1","INDUCTION-JUDGMENT","right","0","","","","","","","","","","","","","","","",""
"html-keyboard-response","74","2478735","0.0-4.0-1.0-2.17","2","1","q4qs86cjwweeet5","","null","","<p style=""color:green;""><b>Correct!</b></p>","","null","","","","","","","","","","","","","","","","","","","","",""
"audio-keyboard-response","75","2479541","0.0-4.0-1.0-0.18","2","1","q4qs86cjwweeet5","","null","","sounds/induction/right/su_SWS.wav","","null","","","","","","","","","","","","","","","","","","","","",""
"html-button-response","76","2480959","0.0-4.0-1.0-1.18","2","1","q4qs86cjwweeet5","","1416.2999999821186","","What sound did you hear?","1","","","1","INDUCTION-JUDGMENT","right","1","","","","","","","","","","","","","","","",""
"html-keyboard-response","77","2481966","0.0-4.0-1.0-2.18","2","1","q4qs86cjwweeet5","","null","","<p style=""color:green;""><b>Correct!</b></p>","","null","","","","","","","","","","","","","","","","","","","","",""
"audio-keyboard-response","78","2482772","0.0-4.0-1.0-0.19","2","1","q4qs86cjwweeet5","","null","","sounds/induction/left/ru_SWS.wav","","null","","","","","","","","","","","","","","","","","","","","",""
"html-button-response","79","2483592","0.0-4.0-1.0-1.19","2","1","q4qs86cjwweeet5","","818","","What sound did you hear?","0","","","1","INDUCTION-JUDGMENT","left","0","","","","","","","","","","","","","","","",""
"html-keyboard-response","80","2484595","0.0-4.0-1.0-2.19","2","1","q4qs86cjwweeet5","","null","","<p style=""color:green;""><b>Correct!</b></p>","","null","","","","","","","","","","","","","","","","","","","","",""
"audio-keyboard-response","81","2485396","0.0-4.0-1.0-0.20","2","1","q4qs86cjwweeet5","","null","","sounds/induction/left/ni_SWS.wav","","null","","","","","","","","","","","","","","","","","","","","",""
"html-button-response","82","2486711","0.0-4.0-1.0-1.20","2","1","q4qs86cjwweeet5","","1312.7999999821186","","What sound did you hear?","1","","","1","INDUCTION-JUDGMENT","left","1","","","","","","","","","","","","","","","",""
"html-keyboard-response","83","2487717","0.0-4.0-1.0-2.20","2","1","q4qs86cjwweeet5","","null","","<p style=""color:green;""><b>Correct!</b></p>","","null","","","","","","","","","","","","","","","","","","","","",""
"audio-keyboard-response","84","2488522","0.0-4.0-1.0-0.21","2","1","q4qs86cjwweeet5","","null","","sounds/induction/right/ru_SWS.wav","","null","","","","","","","","","","","","","","","","","","","","",""
"html-button-response","85","2489310","0.0-4.0-1.0-1.21","2","1","q4qs86cjwweeet5","","786.5999999940395","","What sound did you hear?","1","","","1","INDUCTION-JUDGMENT","right","1","","","","","","","","","","","","","","","",""
"html-keyboard-response","86","2490313","0.0-4.0-1.0-2.21","2","1","q4qs86cjwweeet5","","null","","<p style=""color:green;""><b>Correct!</b></p>","","null","","","","","","","","","","","","","","","","","","","","",""
"audio-keyboard-response","87","2491119","0.0-4.0-1.0-0.22","2","1","q4qs86cjwweeet5","","null","","sounds/induction/left/fe_SWS.wav","","null","","","","","","","","","","","","","","","","","","","","",""
"html-button-response","88","2491783","0.0-4.0-1.0-1.22","2","1","q4qs86cjwweeet5","","661.9000000059605","","What sound did you hear?","0","","","0","INDUCTION-JUDGMENT","left","1","","","","","","","","","","","","","","","",""
"html-keyboard-response","89","2492786","0.0-4.0-1.0-2.22","2","1","q4qs86cjwweeet5","","null","","<p style=""color:red;""><b>Incorrect!</b></p>","","null","","","","","","","","","","","","","","","","","","","","",""
"audio-keyboard-response","90","2493594","0.0-4.0-1.0-0.23","2","1","q4qs86cjwweeet5","","null","","sounds/induction/right/ta_SWS.wav","","null","","","","","","","","","","","","","","","","","","","","",""
"html-button-response","91","2494687","0.0-4.0-1.0-1.23","2","1","q4qs86cjwweeet5","","1090.4000000059605","","What sound did you hear?","1","","","1","INDUCTION-JUDGMENT","right","1","","","","","","","","","","","","","","","",""
"html-keyboard-response","92","2495694","0.0-4.0-1.0-2.23","2","1","q4qs86cjwweeet5","","null","","<p style=""color:green;""><b>Correct!</b></p>","","null","","","","","","","","","","","","","","","","","","","","",""
"audio-keyboard-response","93","2496501","0.0-4.0-1.0-0.24","2","1","q4qs86cjwweeet5","","null","","sounds/induction/left/ta_SWS.wav","","null","","","","","","","","","","","","","","","","","","","","",""
"html-button-response","94","2497294","0.0-4.0-1.0-1.24","2","1","q4qs86cjwweeet5","","791.5","","What sound did you hear?","0","","","1","INDUCTION-JUDGMENT","left","0","","","","","","","","","","","","","","","",""
"html-keyboard-response","95","2498301","0.0-4.0-1.0-2.24","2","1","q4qs86cjwweeet5","","null","","<p style=""color:green;""><b>Correct!</b></p>","","null","","","","","","","","","","","","","","","","","","","","",""
"audio-keyboard-response","96","2499103","0.0-4.0-1.0-0.25","2","1","q4qs86cjwweeet5","","null","","sounds/induction/right/re_SWS.wav","","null","","","","","","","","","","","","","","","","","","","","",""
"html-button-response","97","2499814","0.0-4.0-1.0-1.25","2","1","q4qs86cjwweeet5","","709.5","","What sound did you hear?","1","","","1","INDUCTION-JUDGMENT","right","1","","","","","","","","","","","","","","","",""
"html-keyboard-response","98","2500820","0.0-4.0-1.0-2.25","2","1","q4qs86cjwweeet5","","null","","<p style=""color:green;""><b>Correct!</b></p>","","null","","","","","","","","","","","","","","","","","","","","",""
"audio-keyboard-response","99","2501626","0.0-4.0-1.0-0.26","2","1","q4qs86cjwweeet5","","null","","sounds/induction/left/ti_SWS.wav","","null","","","","","","","","","","","","","","","","","","","","",""
"html-button-response","100","2502878","0.0-4.0-1.0-1.26","2","1","q4qs86cjwweeet5","","1249.5999999940395","","What sound did you hear?","0","","","1","INDUCTION-JUDGMENT","left","0","","","","","","","","","","","","","","","",""
"html-keyboard-response","101","2503880","0.0-4.0-1.0-2.26","2","1","q4qs86cjwweeet5","","null","","<p style=""color:green;""><b>Correct!</b></p>","","null","","","","","","","","","","","","","","","","","","","","",""
"audio-keyboard-response","102","2504687","0.0-4.0-1.0-0.27","2","1","q4qs86cjwweeet5","","null","","sounds/induction/right/pu_SWS.wav","","null","","","","","","","","","","","","","","","","","","","","",""
"html-button-response","103","2505471","0.0-4.0-1.0-1.27","2","1","q4qs86cjwweeet5","","780.9000000059605","","What sound did you hear?","1","","","1","INDUCTION-JUDGMENT","right","1","","","","","","","","","","","","","","","",""
"html-keyboard-response","104","2506478","0.0-4.0-1.0-2.27","2","1","q4qs86cjwweeet5","","null","","<p style=""color:green;""><b>Correct!</b></p>","","null","","","","","","","","","","","","","","","","","","","","",""
"audio-keyboard-response","105","2507279","0.0-4.0-1.0-0.28","2","1","q4qs86cjwweeet5","","null","","sounds/induction/left/ti_SWS.wav","","null","","","","","","","","","","","","","","","","","","","","",""
"html-button-response","106","2509131","0.0-4.0-1.0-1.28","2","1","q4qs86cjwweeet5","","1849.5999999940395","","What sound did you hear?","1","","","0","INDUCTION-JUDGMENT","left","0","","","","","","","","","","","","","","","",""
"html-keyboard-response","107","2510137","0.0-4.0-1.0-2.28","2","1","q4qs86cjwweeet5","","null","","<p style=""color:red;""><b>Incorrect!</b></p>","","null","","","","","","","","","","","","","","","","","","","","",""
"audio-keyboard-response","108","2510943","0.0-4.0-1.0-0.29","2","1","q4qs86cjwweeet5","","null","","sounds/induction/right/me_SWS.wav","","null","","","","","","","","","","","","","","","","","","","","",""
"html-button-response","109","2512226","0.0-4.0-1.0-1.29","2","1","q4qs86cjwweeet5","","1279.699999988079","","What sound did you hear?","0","","","1","INDUCTION-JUDGMENT","right","0","","","","","","","","","","","","","","","",""
"html-keyboard-response","110","2513231","0.0-4.0-1.0-2.29","2","1","q4qs86cjwweeet5","","null","","<p style=""color:green;""><b>Correct!</b></p>","","null","","","","","","","","","","","","","","","","","","","","",""
"audio-keyboard-response","111","2514036","0.0-4.0-1.0-0.30","2","1","q4qs86cjwweeet5","","null","","sounds/induction/left/me_SWS.wav","","null","","","","","","","","","","","","","","","","","","","","",""
"html-button-response","112","2514978","0.0-4.0-1.0-1.30","2","1","q4qs86cjwweeet5","","939.5999999940395","","What sound did you hear?","1","","","1","INDUCTION-JUDGMENT","left","1","","","","","","","","","","","","","","","",""
"html-keyboard-response","113","2515985","0.0-4.0-1.0-2.30","2","1","q4qs86cjwweeet5","","null","","<p style=""color:green;""><b>Correct!</b></p>","","null","","","","","","","","","","","","","","","","","","","","",""
"audio-keyboard-response","114","2516788","0.0-4.0-1.0-0.31","2","1","q4qs86cjwweeet5","","null","","sounds/induction/left/ko_SWS.wav","","null","","","","","","","","","","","","","","","","","","","","",""
"html-button-response","115","2517912","0.0-4.0-1.0-1.31","2","1","q4qs86cjwweeet5","","1121.699999988079","","What sound did you hear?","1","","","1","INDUCTION-JUDGMENT","left","1","","","","","","","","","","","","","","","",""
"html-keyboard-response","116","2518917","0.0-4.0-1.0-2.31","2","1","q4qs86cjwweeet5","","null","","<p style=""color:green;""><b>Correct!</b></p>","","null","","","","","","","","","","","","","","","","","","","","",""
"audio-keyboard-response","117","2519722","0.0-4.0-1.0-0.32","2","1","q4qs86cjwweeet5","","null","","sounds/induction/left/ko_SWS.wav","","null","","","","","","","","","","","","","","","","","","","","",""
"html-button-response","118","2520390","0.0-4.0-1.0-1.32","2","1","q4qs86cjwweeet5","","666.8000000119209","","What sound did you hear?","1","","","1","INDUCTION-JUDGMENT","left","1","","","","","","","","","","","","","","","",""
"html-keyboard-response","119","2521392","0.0-4.0-1.0-2.32","2","1","q4qs86cjwweeet5","","null","","<p style=""color:green;""><b>Correct!</b></p>","","null","","","","","","","","","","","","","","","","","","","","",""
"audio-keyboard-response","120","2522197","0.0-4.0-1.0-0.33","2","1","q4qs86cjwweeet5","","null","","sounds/induction/left/fe_SWS.wav","","null","","","","","","","","","","","","","","","","","","","","",""
"html-button-response","121","2547945","0.0-4.0-1.0-1.33","2","1","q4qs86cjwweeet5","","25745.69999998808","","What sound did you hear?","0","","","0","INDUCTION-JUDGMENT","left","1","","","","","","","","","","","","","","","",""
"html-keyboard-response","122","2548954","0.0-4.0-1.0-2.33","2","1","q4qs86cjwweeet5","","null","","<p style=""color:red;""><b>Incorrect!</b></p>","","null","","","","","","","","","","","","","","","","","","","","",""
"audio-keyboard-response","123","2549759","0.0-4.0-1.0-0.34","2","1","q4qs86cjwweeet5","","null","","sounds/induction/left/ta_SWS.wav","","null","","","","","","","","","","","","","","","","","","","","",""
"html-button-response","124","2550728","0.0-4.0-1.0-1.34","2","1","q4qs86cjwweeet5","","965.5999999940395","","What sound did you hear?","0","","","1","INDUCTION-JUDGMENT","left","0","","","","","","","","","","","","","","","",""
"html-keyboard-response","125","2551734","0.0-4.0-1.0-2.34","2","1","q4qs86cjwweeet5","","null","","<p style=""color:green;""><b>Correct!</b></p>","","null","","","","","","","","","","","","","","","","","","","","",""
"audio-keyboard-response","126","2552543","0.0-4.0-1.0-0.35","2","1","q4qs86cjwweeet5","","null","","sounds/induction/right/ge_SWS.wav","","null","","","","","","","","","","","","","","","","","","","","",""
"html-button-response","127","2553433","0.0-4.0-1.0-1.35","2","1","q4qs86cjwweeet5","","887.3000000119209","","What sound did you hear?","0","","","1","INDUCTION-JUDGMENT","right","0","","","","","","","","","","","","","","","",""
"html-keyboard-response","128","2554438","0.0-4.0-1.0-2.35","2","1","q4qs86cjwweeet5","","null","","<p style=""color:green;""><b>Correct!</b></p>","","null","","","","","","","","","","","","","","","","","","","","",""
"audio-keyboard-response","129","2555242","0.0-4.0-1.0-0.36","2","1","q4qs86cjwweeet5","","null","","sounds/induction/left/ge_SWS.wav","","null","","","","","","","","","","","","","","","","","","","","",""
"html-button-response","130","2584633","0.0-4.0-1.0-1.36","2","1","q4qs86cjwweeet5","","29389.5","","What sound did you hear?","1","","","1","INDUCTION-JUDGMENT","left","1","","","","","","","","","","","","","","","",""
"html-keyboard-response","131","2585639","0.0-4.0-1.0-2.36","2","1","q4qs86cjwweeet5","","null","","<p style=""color:green;""><b>Correct!</b></p>","","null","","","","","","","","","","","","","","","","","","","","",""
"audio-keyboard-response","132","2586488","0.0-4.0-1.0-0.37","2","1","q4qs86cjwweeet5","","null","","sounds/induction/right/su_SWS.wav","","null","","","","","","","","","","","","","","","","","","","","",""
"html-button-response","133","2587671","0.0-4.0-1.0-1.37","2","1","q4qs86cjwweeet5","","1182.2000000178814","","What sound did you hear?","1","","","1","INDUCTION-JUDGMENT","right","1","","","","","","","","","","","","","","","",""
"html-keyboard-response","134","2588678","0.0-4.0-1.0-2.37","2","1","q4qs86cjwweeet5","","null","","<p style=""color:green;""><b>Correct!</b></p>","","null","","","","","","","","","","","","","","","","","","","","",""
"audio-keyboard-response","135","2589486","0.0-4.0-1.0-0.38","2","1","q4qs86cjwweeet5","","null","","sounds/induction/right/ni_SWS.wav","","null","","","","","","","","","","","","","","","","","","","","",""
"html-button-response","136","2591831","0.0-4.0-1.0-1.38","2","1","q4qs86cjwweeet5","","2343.5999999940395","","What sound did you hear?","0","","","1","INDUCTION-JUDGMENT","right","0","","","","","","","","","","","","","","","",""
"html-keyboard-response","137","2592837","0.0-4.0-1.0-2.38","2","1","q4qs86cjwweeet5","","null","","<p style=""color:green;""><b>Correct!</b></p>","","null","","","","","","","","","","","","","","","","","","","","",""
"audio-keyboard-response","138","2593645","0.0-4.0-1.0-0.39","2","1","q4qs86cjwweeet5","","null","","sounds/induction/right/fe_SWS.wav","","null","","","","","","","","","","","","","","","","","","","","",""
"html-button-response","139","2598630","0.0-4.0-1.0-1.39","2","1","q4qs86cjwweeet5","","4983.799999982119","","What sound did you hear?","0","","","1","INDUCTION-JUDGMENT","right","0","","","","","","","","","","","","","","","",""
"html-keyboard-response","140","2599635","0.0-4.0-1.0-2.39","2","1","q4qs86cjwweeet5","","null","","<p style=""color:green;""><b>Correct!</b></p>","","null","","","","","","","","","","","","","","","","","","","","",""
"audio-keyboard-response","141","2600440","0.0-4.0-1.0-0.40","2","1","q4qs86cjwweeet5","","null","","sounds/induction/left/pu_SWS.wav","","null","","","","","","","","","","","","","","","","","","","","",""
"html-button-response","142","2603326","0.0-4.0-1.0-1.40","2","1","q4qs86cjwweeet5","","2883.7999999821186","","What sound did you hear?","0","","","1","INDUCTION-JUDGMENT","left","0","","","","","","","","","","","","","","","",""
"html-keyboard-response","143","2604328","0.0-4.0-1.0-2.40","2","1","q4qs86cjwweeet5","","null","","<p style=""color:green;""><b>Correct!</b></p>","","null","","","","","","","","","","","","","","","","","","","","",""
"audio-keyboard-response","144","2605133","0.0-4.0-1.0-0.41","2","1","q4qs86cjwweeet5","","null","","sounds/induction/right/pu_SWS.wav","","null","","","","","","","","","","","","","","","","","","","","",""
"html-button-response","145","2606127","0.0-4.0-1.0-1.41","2","1","q4qs86cjwweeet5","","992.5999999940395","","What sound did you hear?","1","","","1","INDUCTION-JUDGMENT","right","1","","","","","","","","","","","","","","","",""
"html-keyboard-response","146","2607130","0.0-4.0-1.0-2.41","2","1","q4qs86cjwweeet5","","null","","<p style=""color:green;""><b>Correct!</b></p>","","null","","","","","","","","","","","","","","","","","","","","",""
"audio-keyboard-response","147","2607939","0.0-4.0-1.0-0.42","2","1","q4qs86cjwweeet5","","null","","sounds/induction/right/re_SWS.wav","","null","","","","","","","","","","","","","","","","","","","","",""
"html-button-response","148","2608727","0.0-4.0-1.0-1.42","2","1","q4qs86cjwweeet5","","786.7999999821186","","What sound did you hear?","1","","","1","INDUCTION-JUDGMENT","right","1","","","","","","","","","","","","","","","",""
"html-keyboard-response","149","2609734","0.0-4.0-1.0-2.42","2","1","q4qs86cjwweeet5","","null","","<p style=""color:green;""><b>Correct!</b></p>","","null","","","","","","","","","","","","","","","","","","","","",""
"audio-keyboard-response","150","2610536","0.0-4.0-1.0-0.43","2","1","q4qs86cjwweeet5","","null","","sounds/induction/right/ti_SWS.wav","","null","","","","","","","","","","","","","","","","","","","","",""
"html-button-response","151","2611557","0.0-4.0-1.0-1.43","2","1","q4qs86cjwweeet5","","1019.0999999940395","","What sound did you hear?","1","","","1","INDUCTION-JUDGMENT","right","1","","","","","","","","","","","","","","","",""
"html-keyboard-response","152","2612559","0.0-4.0-1.0-2.43","2","1","q4qs86cjwweeet5","","null","","<p style=""color:green;""><b>Correct!</b></p>","","null","","","","","","","","","","","","","","","","","","","","",""
"audio-keyboard-response","153","2613363","0.0-4.0-1.0-0.44","2","1","q4qs86cjwweeet5","","null","","sounds/induction/left/su_SWS.wav","","null","","","","","","","","","","","","","","","","","","","","",""
"html-button-response","154","2615018","0.0-4.0-1.0-1.44","2","1","q4qs86cjwweeet5","","1654.2999999821186","","What sound did you hear?","0","","","1","INDUCTION-JUDGMENT","left","0","","","","","","","","","","","","","","","",""
"html-keyboard-response","155","2616021","0.0-4.0-1.0-2.44","2","1","q4qs86cjwweeet5","","null","","<p style=""color:green;""><b>Correct!</b></p>","","null","","","","","","","","","","","","","","","","","","","","",""
"audio-keyboard-response","156","2616824","0.0-4.0-1.0-0.45","2","1","q4qs86cjwweeet5","","null","","sounds/induction/left/re_SWS.wav","","null","","","","","","","","","","","","","","","","","","","","",""
"html-button-response","157","2617701","0.0-4.0-1.0-1.45","2","1","q4qs86cjwweeet5","","876.5","","What sound did you hear?","0","","","1","INDUCTION-JUDGMENT","left","0","","","","","","","","","","","","","","","",""
"html-keyboard-response","158","2618709","0.0-4.0-1.0-2.45","2","1","q4qs86cjwweeet5","","null","","<p style=""color:green;""><b>Correct!</b></p>","","null","","","","","","","","","","","","","","","","","","","","",""
"audio-keyboard-response","159","2619512","0.0-4.0-1.0-0.46","2","1","q4qs86cjwweeet5","","null","","sounds/induction/right/fu_SWS.wav","","null","","","","","","","","","","","","","","","","","","","","",""
"html-button-response","160","2620255","0.0-4.0-1.0-1.46","2","1","q4qs86cjwweeet5","","741.5","","What sound did you hear?","0","","","1","INDUCTION-JUDGMENT","right","0","","","","","","","","","","","","","","","",""
"html-keyboard-response","161","2621261","0.0-4.0-1.0-2.46","2","1","q4qs86cjwweeet5","","null","","<p style=""color:green;""><b>Correct!</b></p>","","null","","","","","","","","","","","","","","","","","","","","",""
"audio-keyboard-response","162","2622067","0.0-4.0-1.0-0.47","2","1","q4qs86cjwweeet5","","null","","sounds/induction/left/ru_SWS.wav","","null","","","","","","","","","","","","","","","","","","","","",""
"html-button-response","163","2623296","0.0-4.0-1.0-1.47","2","1","q4qs86cjwweeet5","","1228","","What sound did you hear?","0","","","1","INDUCTION-JUDGMENT","left","0","","","","","","","","","","","","","","","",""
"html-keyboard-response","164","2624302","0.0-4.0-1.0-2.47","2","1","q4qs86cjwweeet5","","null","","<p style=""color:green;""><b>Correct!</b></p>","","null","","","","","","","","","","","","","","","","","","","","",""
"html-button-response","165","2630980","0.0-5.0-0.0","2","1","q4qs86cjwweeet5","","6175.300000011921","","<p>Thank you for your answers.</p><p>You will now listen to similar sounds. The main difference is that the sounds will be longer and will make up complete sentences.</p><p>Please listen carefully to each sentence. After each sentence, you will be asked to type back what you heard to the best of your ability. After you provide your response, you will be given feedback about the correct answer.</p><p>There are 10 sentences in total.","0","","","","","","","","","","","","","","","","","","","","","",""
"audio-keyboard-response","166","2633566","0.0-5.0-1.0-0.0","2","1","q4qs86cjwweeet5","","null","","sounds/sentences/left/14_03_cfSWS.wav","","null","","","","","","","","","","","","","","","","","","","","",""
"sentence-resp","167","2659751","0.0-5.0-1.0-1.0","2","1","q4qs86cjwweeet5","","26180","","","","","","","SWS-SENT-RESPONSE","","","{""Q0"":""feesueroopeepootamee""}","Pluck the bright rose without leaves.","pluck,bright,rose,without,leaves","FEESUEROOPEEPOOTAMEE","0","0","0","0","0","0","0","","","","",""
"html-keyboard-response","168","2661012","0.0-5.0-1.0-2.0","2","1","q4qs86cjwweeet5","","null","","","","null","","","","","","","","","","","","","","","","","","","","",""
"audio-keyboard-response","169","2663097","0.0-5.0-1.0-3.0","2","1","q4qs86cjwweeet5","","null","","sounds/sentences/left/14_03_cfSWS.wav","","null","","","","","","","","","","","","","","","","","","","","",""
"html-keyboard-response","170","2664099","0.0-5.0-1.0-4.0","2","1","q4qs86cjwweeet5","","null","","","","null","","","","","","","","","","","","","","","","","","","","",""
"html-button-response","171","2669865","0.0-5.0-1.0-5.0","2","1","q4qs86cjwweeet5","","5262.0999999940395","","<p>Press the button below when you are ready to continue.</p>","0","","","","","","","","","","","","","","","","","","","","","",""
"audio-keyboard-response","172","2672686","0.0-5.0-1.0-0.1","2","1","q4qs86cjwweeet5","","null","","sounds/sentences/left/14_02_cfSWS.wav","","null","","","","","","","","","","","","","","","","","","","","",""
"sentence-resp","173","2686577","0.0-5.0-1.0-1.1","2","1","q4qs86cjwweeet5","","13887","","","","","","","SWS-SENT-RESPONSE","","","{""Q0"":""idontknowwhatyousee""}","He said the same phrase thirty times.","said,same,phrase,thirty,times","IDONTKNOWWHATYOUSEE","0","0","0","0","0","0","0","","","","",""
"html-keyboard-response","174","2687835","0.0-5.0-1.0-2.1","2","1","q4qs86cjwweeet5","","null","","","","null","","","","","","","","","","","","","","","","","","","","",""
"audio-keyboard-response","175","2690152","0.0-5.0-1.0-3.1","2","1","q4qs86cjwweeet5","","null","","sounds/sentences/left/14_02_cfSWS.wav","","null","","","","","","","","","","","","","","","","","","","","",""
"html-keyboard-response","176","2691154","0.0-5.0-1.0-4.1","2","1","q4qs86cjwweeet5","","null","","","","null","","","","","","","","","","","","","","","","","","","","",""
"html-button-response","177","2694108","0.0-5.0-1.0-5.1","2","1","q4qs86cjwweeet5","","2447.399999976158","","<p>Press the button below when you are ready to continue.</p>","0","","","","","","","","","","","","","","","","","","","","","",""
"audio-keyboard-response","178","2696867","0.0-5.0-1.0-0.2","2","1","q4qs86cjwweeet5","","null","","sounds/sentences/right/14_08_cfSWS.wav","","null","","","","","","","","","","","","","","","","","","","","",""
"sentence-resp","179","2719588","0.0-5.0-1.0-1.2","2","1","q4qs86cjwweeet5","","22715","","","","","","","SWS-SENT-RESPONSE","","","{""Q0"":""he said the same thing thirty times""}","Clothes and lodging are free to new men.","clothes,lodging,free,new,men","HE SAID THE SAME THING THIRTY TIMES","0","0","0","0","0","0","0","","","","",""
"html-keyboard-response","180","2720848","0.0-5.0-1.0-2.2","2","1","q4qs86cjwweeet5","","null","","","","null","","","","","","","","","","","","","","","","","","","","",""
"audio-keyboard-response","181","2723102","0.0-5.0-1.0-3.2","2","1","q4qs86cjwweeet5","","null","","sounds/sentences/right/14_08_cfSWS.wav","","null","","","","","","","","","","","","","","","","","","","","",""
"html-keyboard-response","182","2724104","0.0-5.0-1.0-4.2","2","1","q4qs86cjwweeet5","","null","","","","null","","","","","","","","","","","","","","","","","","","","",""
"html-button-response","183","2725642","0.0-5.0-1.0-5.2","2","1","q4qs86cjwweeet5","","1035.9000000059605","","<p>Press the button below when you are ready to continue.</p>","0","","","","","","","","","","","","","","","","","","","","","",""
"audio-keyboard-response","184","2728760","0.0-5.0-1.0-0.3","2","1","q4qs86cjwweeet5","","null","","sounds/sentences/left/14_01_cfSWS.wav","","null","","","","","","","","","","","","","","","","","","","","",""
"sentence-resp","185","2742869","0.0-5.0-1.0-1.3","2","1","q4qs86cjwweeet5","","14108","","","","","","","SWS-SENT-RESPONSE","","","{""Q0"":""people are good at things""}","A cramp is no small danger on a swim.","cramp,no,small,danger,swim","PEOPLE ARE GOOD AT THINGS","0","0","0","0","0","0","0","","","","",""
"html-keyboard-response","186","2744128","0.0-5.0-1.0-2.3","2","1","q4qs86cjwweeet5","","null","","","","null","","","","","","","","","","","","","","","","","","","","",""
"audio-keyboard-response","187","2746745","0.0-5.0-1.0-3.3","2","1","q4qs86cjwweeet5","","null","","sounds/sentences/left/14_01_cfSWS.wav","","null","","","","","","","","","","","","","","","","","","","","",""
"html-keyboard-response","188","2747750","0.0-5.0-1.0-4.3","2","1","q4qs86cjwweeet5","","null","","","","null","","","","","","","","","","","","","","","","","","","","",""
"html-button-response","189","2748963","0.0-5.0-1.0-5.3","2","1","q4qs86cjwweeet5","","709.9000000059605","","<p>Press the button below when you are ready to continue.</p>","0","","","","","","","","","","","","","","","","","","","","","",""
"audio-keyboard-response","190","2751710","0.0-5.0-1.0-0.4","2","1","q4qs86cjwweeet5","","null","","sounds/sentences/right/14_06_cfSWS.wav","","null","","","","","","","","","","","","","","","","","","","","",""
"sentence-resp","191","2771627","0.0-5.0-1.0-1.4","2","1","q4qs86cjwweeet5","","19912","","","","","","","SWS-SENT-RESPONSE","","","{""Q0"":""speed is not equal to velocity""}","Bring your problems to the wise chief.","bring,your,problems,wise,chief","SPEED IS NOT EQUAL TO VELOCITY","0","0","0","0","0","0","0","","","","",""
"html-keyboard-response","192","2772887","0.0-5.0-1.0-2.4","2","1","q4qs86cjwweeet5","","null","","","","null","","","","","","","","","","","","","","","","","","","","",""
"audio-keyboard-response","193","2775134","0.0-5.0-1.0-3.4","2","1","q4qs86cjwweeet5","","null","","sounds/sentences/right/14_06_cfSWS.wav","","null","","","","","","","","","","","","","","","","","","","","",""
"html-keyboard-response","194","2776137","0.0-5.0-1.0-4.4","2","1","q4qs86cjwweeet5","","null","","","","null","","","","","","","","","","","","","","","","","","","","",""
"html-button-response","195","2777366","0.0-5.0-1.0-5.4","2","1","q4qs86cjwweeet5","","721.4000000059605","","<p>Press the button below when you are ready to continue.</p>","0","","","","","","","","","","","","","","","","","","","","","",""
"audio-keyboard-response","196","2780099","0.0-5.0-1.0-0.5","2","1","q4qs86cjwweeet5","","null","","sounds/sentences/right/14_09_cfSWS.wav","","null","","","","","","","","","","","","","","","","","","","","",""
"sentence-resp","197","2793030","0.0-5.0-1.0-1.5","2","1","q4qs86cjwweeet5","","12928","","","","","","","SWS-SENT-RESPONSE","","","{""Q0"":""i would like a small cheesecake""}","We frown when events take a bad turn.","frown,events,take,bad,turn","I WOULD LIKE A SMALL CHEESECAKE","0","0","0","0","0","0","0","","","","",""
"html-keyboard-response","198","2794289","0.0-5.0-1.0-2.5","2","1","q4qs86cjwweeet5","","null","","","","null","","","","","","","","","","","","","","","","","","","","",""
"audio-keyboard-response","199","2796515","0.0-5.0-1.0-3.5","2","1","q4qs86cjwweeet5","","null","","sounds/sentences/right/14_09_cfSWS.wav","","null","","","","","","","","","","","","","","","","","","","","",""
"html-keyboard-response","200","2797519","0.0-5.0-1.0-4.5","2","1","q4qs86cjwweeet5","","null","","","","null","","","","","","","","","","","","","","","","","","","","",""
"html-button-response","201","2798752","0.0-5.0-1.0-5.5","2","1","q4qs86cjwweeet5","","729.7999999821186","","<p>Press the button below when you are ready to continue.</p>","0","","","","","","","","","","","","","","","","","","","","","",""
"audio-keyboard-response","202","2801640","0.0-5.0-1.0-0.6","2","1","q4qs86cjwweeet5","","null","","sounds/sentences/right/14_07_cfSWS.wav","","null","","","","","","","","","","","","","","","","","","","","",""
"sentence-resp","203","2815066","0.0-5.0-1.0-1.6","2","1","q4qs86cjwweeet5","","13423","","","","","","","SWS-SENT-RESPONSE","","","{""Q0"":""she walks by the sea""}","Write a fond note to the friend you cherish.","write,fond,note,friend,cherish","SHE WALKS BY THE SEA","0","0","0","0","0","0","0","","","","",""
"html-keyboard-response","204","2816321","0.0-5.0-1.0-2.6","2","1","q4qs86cjwweeet5","","null","","","","null","","","","","","","","","","","","","","","","","","","","",""
"audio-keyboard-response","205","2818707","0.0-5.0-1.0-3.6","2","1","q4qs86cjwweeet5","","null","","sounds/sentences/right/14_07_cfSWS.wav","","null","","","","","","","","","","","","","","","","","","","","",""
"html-keyboard-response","206","2819708","0.0-5.0-1.0-4.6","2","1","q4qs86cjwweeet5","","null","","","","null","","","","","","","","","","","","","","","","","","","","",""
"html-button-response","207","2821510","0.0-5.0-1.0-5.6","2","1","q4qs86cjwweeet5","","1299.0999999940395","","<p>Press the button below when you are ready to continue.</p>","0","","","","","","","","","","","","","","","","","","","","","",""
"audio-keyboard-response","208","2824499","0.0-5.0-1.0-0.7","2","1","q4qs86cjwweeet5","","null","","sounds/sentences/left/14_05_cfSWS.wav","","null","","","","","","","","","","","","","","","","","","","","",""
"sentence-resp","209","2851105","0.0-5.0-1.0-1.7","2","1","q4qs86cjwweeet5","","26602","","","","","","","SWS-SENT-RESPONSE","","","{""Q0"":""do you know what im saying""}","The glow deepened in the eyes of the sweet girl.","glow,deepened,eyes,sweet,girl","DO YOU KNOW WHAT IM SAYING","0","0","0","0","0","0","0","","","","",""
"html-keyboard-response","210","2852365","0.0-5.0-1.0-2.7","2","1","q4qs86cjwweeet5","","null","","","","null","","","","","","","","","","","","","","","","","","","","",""
"audio-keyboard-response","211","2854856","0.0-5.0-1.0-3.7","2","1","q4qs86cjwweeet5","","null","","sounds/sentences/left/14_05_cfSWS.wav","","null","","","","","","","","","","","","","","","","","","","","",""
"html-keyboard-response","212","2855862","0.0-5.0-1.0-4.7","2","1","q4qs86cjwweeet5","","null","","","","null","","","","","","","","","","","","","","","","","","","","",""
"html-button-response","213","2857028","0.0-5.0-1.0-5.7","2","1","q4qs86cjwweeet5","","663.5","","<p>Press the button below when you are ready to continue.</p>","0","","","","","","","","","","","","","","","","","","","","","",""
"audio-keyboard-response","214","2860051","0.0-5.0-1.0-0.8","2","1","q4qs86cjwweeet5","","null","","sounds/sentences/right/14_10_cfSWS.wav","","null","","","","","","","","","","","","","","","","","","","","",""
"sentence-resp","215","2878081","0.0-5.0-1.0-1.8","2","1","q4qs86cjwweeet5","","18027","","","","","","","SWS-SENT-RESPONSE","","","{""Q0"":""the night shines on the blue seas""}","Port is a strong wine with a smoky taste.","port,strong,wine,smoky,taste","THE NIGHT SHINES ON THE BLUE SEAS","0","0","0","0","0","0","0","","","","",""
"html-keyboard-response","216","2879337","0.0-5.0-1.0-2.8","2","1","q4qs86cjwweeet5","","null","","","","null","","","","","","","","","","","","","","","","","","","","",""
"audio-keyboard-response","217","2881854","0.0-5.0-1.0-3.8","2","1","q4qs86cjwweeet5","","null","","sounds/sentences/right/14_10_cfSWS.wav","","null","","","","","","","","","","","","","","","","","","","","",""
"html-keyboard-response","218","2882855","0.0-5.0-1.0-4.8","2","1","q4qs86cjwweeet5","","null","","","","null","","","","","","","","","","","","","","","","","","","","",""
"html-button-response","219","2884055","0.0-5.0-1.0-5.8","2","1","q4qs86cjwweeet5","","696.5999999940395","","<p>Press the button below when you are ready to continue.</p>","0","","","","","","","","","","","","","","","","","","","","","",""
"audio-keyboard-response","220","2886611","0.0-5.0-1.0-0.9","2","1","q4qs86cjwweeet5","","null","","sounds/sentences/left/14_04_cfSWS.wav","","null","","","","","","","","","","","","","","","","","","","","",""
"sentence-resp","221","2924788","0.0-5.0-1.0-1.9","2","1","q4qs86cjwweeet5","","38171","","","","","","","SWS-SENT-RESPONSE","","","{""Q0"":""soup tastes sweet""}","Two plus seven is less than ten.","two,plus,seven,less,ten","SOUP TASTES SWEET","0","0","0","0","0","0","0","","","","",""
"html-keyboard-response","222","2926047","0.0-5.0-1.0-2.9","2","1","q4qs86cjwweeet5","","null","","","","null","","","","","","","","","","","","","","","","","","","","",""
"audio-keyboard-response","223","2928159","0.0-5.0-1.0-3.9","2","1","q4qs86cjwweeet5","","null","","sounds/sentences/left/14_04_cfSWS.wav","","null","","","","","","","","","","","","","","","","","","","","",""
"html-keyboard-response","224","2929161","0.0-5.0-1.0-4.9","2","1","q4qs86cjwweeet5","","null","","","","null","","","","","","","","","","","","","","","","","","","","",""
"html-button-response","225","2930417","0.0-5.0-1.0-5.9","2","1","q4qs86cjwweeet5","","754","","<p>Press the button below when you are ready to continue.</p>","0","","","","","","","","","","","","","","","","","","","","","",""
"html-keyboard-response","226","2945188","0.0-6.0-0.0","2","1","q4qs86cjwweeet5","","14266.300000011921","","<p>In this part of the study, you will hear sounds similar to those you just heard.</p><p>Please focus on these sounds, as you may be asked questions about them later.</p><p>Occasionally, the sounds will pause for up to two seconds. When this happens, please press SPACEBAR as quickly as you can.</br>This helps ensure that you are paying attention to the sounds.</p><p>This part of the study will take about 12 minutes to complete, and you will be given the opportunity to take a couple of short breaks every few minutes.</p><p><strong>Press SPACEBAR to begin</strong></p>","","32","","","","","","","","","","","","","","","","","","","","",""
"html-keyboard-response","227","2946196","0.0-6.0-1.0-0.0","2","1","q4qs86cjwweeet5","","null","","<p style=""font-size: 40px;"">+</p>","","null","","","","","","","","","","","","","","","","","","","","",""
"html-keyboard-response","228","3131209","0.0-6.0-1.0-1.0","2","1","q4qs86cjwweeet5","","null","","","","null","","","SL-TRAIN","","","","","","","","","","","","","","0","1927.800000011921","1254.800000011921","sounds/B/TRAIN/SEQ__05.mp3","4"
"html-button-response","229","3137851","0.0-6.0-1.0-2.0","2","1","q4qs86cjwweeet5","","6638.300000011921","","<p>You may take a short break if you wish.</p>","0","","","","","","","","","","","","","","","","","","","","","",""
"html-keyboard-response","230","3138856","0.0-6.0-1.0-3.0","2","1","q4qs86cjwweeet5","","null","","<p style=""font-size: 40px;"">+</p>","","null","","","","","","","","","","","","","","","","","","","","",""
"html-keyboard-response","231","3323863","0.0-6.0-1.0-4.0","2","1","q4qs86cjwweeet5","","null","","","","null","","","SL-TRAIN","","","","","","","","","","","","","","0","1297","1394.5999999940395","sounds/B/TRAIN/SEQ__11.mp3","6"
