"trial_type","trial_index","time_elapsed","internal_node_id","counterbalance","lang_instruct","ParticipantID","view_history","rt","url","stimulus","button_pressed","key_press","correctRESP","correct","designation","location","correctanswer","responses","sentence","keywords","typed_resp","keyword1_acc","keyword2_acc","keyword3_acc","keyword4_acc","keyword5_acc","total_acc","prop_acc","timeouts","pause_rt01","pause_rt02","train_file","numKeyPress","sound","fam_type","SYLLABLE","EXEMPLAR","TD_LOCS","TD_TYPE","TDLOC_01","TDLOC_02","TDLOC_03","TDLOC_04","TD_RT_01","TD_RT_02","TD_RT_03","TD_RT_04","TD_SUBJ_RTs","number_of_plays","slider_start","response","question_order","syllable","syllable_type"
"pavlovia","0","3","0.0-0.0","2","1","gm906sze4a6484v","","","","","","","","","","","","","","","","","","","","","","","","","","","","","","","","","","","","","","","","","","","","","","","",""
"instructions","1","28145","0.0-1.0","2","1","gm906sze4a6484v","[{""page_index"":0,""viewing_time"":12132.199999988079},{""page_index"":1,""viewing_time"":16007.300000011921}]","28141.80000001192","","","","","","","","","","","","","","","","","","","","","","","","","","","","","","","","","","","","","","","","","","","","","",""
"external-html","2","33314","0.0-2.0","2","1","gm906sze4a6484v","","5040.5","consent/consent.html","","","","","","","","","","","","","","","","","","","","","","","","","","","","","","","","","","","","","","","","","","","","",""
"html-button-response","3","160777","0.0-3.0-0.0-0.0","2","1","gm906sze4a6484v","","127460.69999998808","","<p>Welcome to the study. You will first complete a short volume calibration and headphone check.</p><p>Please make sure you are in a quiet listening environment, that you are wearing headphones, and that your computer's volume is turned on.<p></p>","0","","","","","","","","","","","","","","","","","","","","","","","","","","","","","","","","","","","","","","","","","","",""
"html-button-response","4","170016","0.0-3.0-0.0-1.0","2","1","gm906sze4a6484v","","8987","","<p>The volume calibration will be first.</p><p>You will hear a thirty-second noise. Please adjust your computer's volume so that this noise is being presented at a comfortable level.<p></p>","0","","","","","","","","","","","","","","","","","","","","","","","","","","","","","","","","","","","","","","","","","","",""
"audio-button-response","5","182684","0.0-3.0-0.0-2.0","2","1","gm906sze4a6484v","","11741","","audCalib/volumetest.mp3","0","","","","","","","","","","","","","","","","","","","","","","","","","","","","","","","","","","","","","","","","","","",""
"html-button-response","6","199246","0.0-3.0-1.0-0.0","2","1","gm906sze4a6484v","","16561.19999998808","","<p>You will now complete a short headphone check.</p><p>On each trial, you will hear three tones. One of these tones will be quieter than the others. Your task is to identify whether the quiet tone occured first, second, or third.</p><p>There are six trials in total.<p></p>","0","","","","","","","","","","","","","","","","","","","","","","","","","","","","","","","","","","","","","","","","","","",""
"html-keyboard-response","7","200038","0.0-3.0-1.0-1.0-0.0","2","1","gm906sze4a6484v","","null","","<div style=""font-size:60px;"">+</div>","","null","","","","","","","","","","","","","","","","","","","","","","","","","","","","","","","","","","","","","","","","","",""
"audio-button-response","8","208661","0.0-3.0-1.0-1.0-1.0","2","1","gm906sze4a6484v","","8619","","audCalib/t2_1.mp3","1","","1","1","headphone-test","","","","","","","","","","","","","","","","","","","","","","","","","","","","","","","","","","","","","","",""
"html-keyboard-response","9","209437","0.0-3.0-1.0-1.0-0.1","2","1","gm906sze4a6484v","","null","","<div style=""font-size:60px;"">+</div>","","null","","","","","","","","","","","","","","","","","","","","","","","","","","","","","","","","","","","","","","","","","",""
"audio-button-response","10","216867","0.0-3.0-1.0-1.0-1.1","2","1","gm906sze4a6484v","","7419","","audCalib/t1_2.mp3","0","","0","1","headphone-test","","","","","","","","","","","","","","","","","","","","","","","","","","","","","","","","","","","","","","",""
"html-keyboard-response","11","217629","0.0-3.0-1.0-1.0-0.2","2","1","gm906sze4a6484v","","null","","<div style=""font-size:60px;"">+</div>","","null","","","","","","","","","","","","","","","","","","","","","","","","","","","","","","","","","","","","","","","","","",""
"audio-button-response","12","222268","0.0-3.0-1.0-1.0-1.2","2","1","gm906sze4a6484v","","4640","","audCalib/t2_2.mp3","1","","1","1","headphone-test","","","","","","","","","","","","","","","","","","","","","","","","","","","","","","","","","","","","","","",""
"html-keyboard-response","13","223027","0.0-3.0-1.0-1.0-0.3","2","1","gm906sze4a6484v","","null","","<div style=""font-size:60px;"">+</div>","","null","","","","","","","","","","","","","","","","","","","","","","","","","","","","","","","","","","","","","","","","","",""
"audio-button-response","14","227874","0.0-3.0-1.0-1.0-1.3","2","1","gm906sze4a6484v","","4840","","audCalib/t1_1.mp3","0","","0","1","headphone-test","","","","","","","","","","","","","","","","","","","","","","","","","","","","","","","","","","","","","","",""
"html-keyboard-response","15","228658","0.0-3.0-1.0-1.0-0.4","2","1","gm906sze4a6484v","","null","","<div style=""font-size:60px;"">+</div>","","null","","","","","","","","","","","","","","","","","","","","","","","","","","","","","","","","","","","","","","","","","",""
"audio-button-response","16","234018","0.0-3.0-1.0-1.0-1.4","2","1","gm906sze4a6484v","","5349","","audCalib/t3_2.mp3","2","","2","1","headphone-test","","","","","","","","","","","","","","","","","","","","","","","","","","","","","","","","","","","","","","",""
"html-keyboard-response","17","234788","0.0-3.0-1.0-1.0-0.5","2","1","gm906sze4a6484v","","null","","<div style=""font-size:60px;"">+</div>","","null","","","","","","","","","","","","","","","","","","","","","","","","","","","","","","","","","","","","","","","","","",""
"audio-button-response","18","239153","0.0-3.0-1.0-1.0-1.5","2","1","gm906sze4a6484v","","4360","","audCalib/t3_1.mp3","2","","2","1","headphone-test","","","","","","","","","","","","","","","","","","","","","","","","","","","","","","","","","","","","","","",""
"html-button-response","19","245783","0.0-3.0-2.0","2","1","gm906sze4a6484v","","6365.100000023842","","<p>The volume calibration and headphone check are now complete.</p>","0","","","","","","","","","","","","","","","","","","","","","","","","","","","","","","","","","","","","","","","","","","",""
"instructions","20","333618","0.0-4.0-0.0","2","1","gm906sze4a6484v","[{""page_index"":0,""viewing_time"":2745.399999976158},{""page_index"":1,""viewing_time"":83491.80000001192},{""page_index"":2,""viewing_time"":1597.5}]","87835","","","","","","","","","","","","","","","","","","","","","","","","","","","","","","","","","","","","","","","","","","","","","",""
"audio-keyboard-response","21","335529","0.0-4.0-1.0-0.0","2","1","gm906sze4a6484v","","null","","sounds/induction/right/ni_SWS.wav","","null","","","","","","","","","","","","","","","","","","","","","","","","","","","","","","","","","","","","","","","","","",""
"html-button-response","22","342236","0.0-4.0-1.0-1.0","2","1","gm906sze4a6484v","","6705.699999988079","","What sound did you hear?","0","","","1","INDUCTION-JUDGMENT","right","0","","","","","","","","","","","","","","","","","","","","","","","","","","","","","","","","","","","","",""
"html-keyboard-response","23","343239","0.0-4.0-1.0-2.0","2","1","gm906sze4a6484v","","null","","<p style=""color:green;""><b>Correct!</b></p>","","null","","","","","","","","","","","","","","","","","","","","","","","","","","","","","","","","","","","","","","","","","",""
"audio-keyboard-response","24","344058","0.0-4.0-1.0-0.1","2","1","gm906sze4a6484v","","null","","sounds/induction/right/ru_SWS.wav","","null","","","","","","","","","","","","","","","","","","","","","","","","","","","","","","","","","","","","","","","","","",""
"html-button-response","25","346911","0.0-4.0-1.0-1.1","2","1","gm906sze4a6484v","","2850.800000011921","","What sound did you hear?","1","","","1","INDUCTION-JUDGMENT","right","1","","","","","","","","","","","","","","","","","","","","","","","","","","","","","","","","","","","","",""
"html-keyboard-response","26","347917","0.0-4.0-1.0-2.1","2","1","gm906sze4a6484v","","null","","<p style=""color:green;""><b>Correct!</b></p>","","null","","","","","","","","","","","","","","","","","","","","","","","","","","","","","","","","","","","","","","","","","",""
"audio-keyboard-response","27","348738","0.0-4.0-1.0-0.2","2","1","gm906sze4a6484v","","null","","sounds/induction/right/ge_SWS.wav","","null","","","","","","","","","","","","","","","","","","","","","","","","","","","","","","","","","","","","","","","","","",""
"html-button-response","28","353549","0.0-4.0-1.0-1.2","2","1","gm906sze4a6484v","","4810.5","","What sound did you hear?","1","","","0","INDUCTION-JUDGMENT","right","0","","","","","","","","","","","","","","","","","","","","","","","","","","","","","","","","","","","","",""
"html-keyboard-response","29","354551","0.0-4.0-1.0-2.2","2","1","gm906sze4a6484v","","null","","<p style=""color:red;""><b>Incorrect!</b></p>","","null","","","","","","","","","","","","","","","","","","","","","","","","","","","","","","","","","","","","","","","","","",""
"audio-keyboard-response","30","355378","0.0-4.0-1.0-0.3","2","1","gm906sze4a6484v","","null","","sounds/induction/left/ti_SWS.wav","","null","","","","","","","","","","","","","","","","","","","","","","","","","","","","","","","","","","","","","","","","","",""
"html-button-response","31","360434","0.0-4.0-1.0-1.3","2","1","gm906sze4a6484v","","5054.800000011921","","What sound did you hear?","1","","","0","INDUCTION-JUDGMENT","left","0","","","","","","","","","","","","","","","","","","","","","","","","","","","","","","","","","","","","",""
"html-keyboard-response","32","361437","0.0-4.0-1.0-2.3","2","1","gm906sze4a6484v","","null","","<p style=""color:red;""><b>Incorrect!</b></p>","","null","","","","","","","","","","","","","","","","","","","","","","","","","","","","","","","","","","","","","","","","","",""
"audio-keyboard-response","33","362258","0.0-4.0-1.0-0.4","2","1","gm906sze4a6484v","","null","","sounds/induction/left/ru_SWS.wav","","null","","","","","","","","","","","","","","","","","","","","","","","","","","","","","","","","","","","","","","","","","",""
"html-button-response","34","363968","0.0-4.0-1.0-1.4","2","1","gm906sze4a6484v","","1708.800000011921","","What sound did you hear?","0","","","1","INDUCTION-JUDGMENT","left","0","","","","","","","","","","","","","","","","","","","","","","","","","","","","","","","","","","","","",""
"html-keyboard-response","35","364977","0.0-4.0-1.0-2.4","2","1","gm906sze4a6484v","","null","","<p style=""color:green;""><b>Correct!</b></p>","","null","","","","","","","","","","","","","","","","","","","","","","","","","","","","","","","","","","","","","","","","","",""
"audio-keyboard-response","36","365787","0.0-4.0-1.0-0.5","2","1","gm906sze4a6484v","","null","","sounds/induction/left/me_SWS.wav","","null","","","","","","","","","","","","","","","","","","","","","","","","","","","","","","","","","","","","","","","","","",""
"html-button-response","37","368445","0.0-4.0-1.0-1.5","2","1","gm906sze4a6484v","","2657.199999988079","","What sound did you hear?","1","","","1","INDUCTION-JUDGMENT","left","1","","","","","","","","","","","","","","","","","","","","","","","","","","","","","","","","","","","","",""
"html-keyboard-response","38","369457","0.0-4.0-1.0-2.5","2","1","gm906sze4a6484v","","null","","<p style=""color:green;""><b>Correct!</b></p>","","null","","","","","","","","","","","","","","","","","","","","","","","","","","","","","","","","","","","","","","","","","",""
"audio-keyboard-response","39","370268","0.0-4.0-1.0-0.6","2","1","gm906sze4a6484v","","null","","sounds/induction/left/ru_SWS.wav","","null","","","","","","","","","","","","","","","","","","","","","","","","","","","","","","","","","","","","","","","","","",""
"html-button-response","40","371236","0.0-4.0-1.0-1.6","2","1","gm906sze4a6484v","","967.3000000119209","","What sound did you hear?","0","","","1","INDUCTION-JUDGMENT","left","0","","","","","","","","","","","","","","","","","","","","","","","","","","","","","","","","","","","","",""
"html-keyboard-response","41","372237","0.0-4.0-1.0-2.6","2","1","gm906sze4a6484v","","null","","<p style=""color:green;""><b>Correct!</b></p>","","null","","","","","","","","","","","","","","","","","","","","","","","","","","","","","","","","","","","","","","","","","",""
"audio-keyboard-response","42","373048","0.0-4.0-1.0-0.7","2","1","gm906sze4a6484v","","null","","sounds/induction/left/fe_SWS.wav","","null","","","","","","","","","","","","","","","","","","","","","","","","","","","","","","","","","","","","","","","","","",""
"html-button-response","43","374866","0.0-4.0-1.0-1.7","2","1","gm906sze4a6484v","","1816.5","","What sound did you hear?","0","","","0","INDUCTION-JUDGMENT","left","1","","","","","","","","","","","","","","","","","","","","","","","","","","","","","","","","","","","","",""
"html-keyboard-response","44","375878","0.0-4.0-1.0-2.7","2","1","gm906sze4a6484v","","null","","<p style=""color:red;""><b>Incorrect!</b></p>","","null","","","","","","","","","","","","","","","","","","","","","","","","","","","","","","","","","","","","","","","","","",""
"audio-keyboard-response","45","376688","0.0-4.0-1.0-0.8","2","1","gm906sze4a6484v","","null","","sounds/induction/left/re_SWS.wav","","null","","","","","","","","","","","","","","","","","","","","","","","","","","","","","","","","","","","","","","","","","",""
"html-button-response","46","378279","0.0-4.0-1.0-1.8","2","1","gm906sze4a6484v","","1589.800000011921","","What sound did you hear?","0","","","1","INDUCTION-JUDGMENT","left","0","","","","","","","","","","","","","","","","","","","","","","","","","","","","","","","","","","","","",""
"html-keyboard-response","47","379289","0.0-4.0-1.0-2.8","2","1","gm906sze4a6484v","","null","","<p style=""color:green;""><b>Correct!</b></p>","","null","","","","","","","","","","","","","","","","","","","","","","","","","","","","","","","","","","","","","","","","","",""
"audio-keyboard-response","48","380098","0.0-4.0-1.0-0.9","2","1","gm906sze4a6484v","","null","","sounds/induction/right/pu_SWS.wav","","null","","","","","","","","","","","","","","","","","","","","","","","","","","","","","","","","","","","","","","","","","",""
"html-button-response","49","382674","0.0-4.0-1.0-1.9","2","1","gm906sze4a6484v","","2575","","What sound did you hear?","1","","","1","INDUCTION-JUDGMENT","right","1","","","","","","","","","","","","","","","","","","","","","","","","","","","","","","","","","","","","",""
"html-keyboard-response","50","383687","0.0-4.0-1.0-2.9","2","1","gm906sze4a6484v","","null","","<p style=""color:green;""><b>Correct!</b></p>","","null","","","","","","","","","","","","","","","","","","","","","","","","","","","","","","","","","","","","","","","","","",""
"audio-keyboard-response","51","384498","0.0-4.0-1.0-0.10","2","1","gm906sze4a6484v","","null","","sounds/induction/left/ta_SWS.wav","","null","","","","","","","","","","","","","","","","","","","","","","","","","","","","","","","","","","","","","","","","","",""
"html-button-response","52","387889","0.0-4.0-1.0-1.10","2","1","gm906sze4a6484v","","3390.100000023842","","What sound did you hear?","0","","","1","INDUCTION-JUDGMENT","left","0","","","","","","","","","","","","","","","","","","","","","","","","","","","","","","","","","","","","",""
"html-keyboard-response","53","388891","0.0-4.0-1.0-2.10","2","1","gm906sze4a6484v","","null","","<p style=""color:green;""><b>Correct!</b></p>","","null","","","","","","","","","","","","","","","","","","","","","","","","","","","","","","","","","","","","","","","","","",""
"audio-keyboard-response","54","389698","0.0-4.0-1.0-0.11","2","1","gm906sze4a6484v","","null","","sounds/induction/left/fu_SWS.wav","","null","","","","","","","","","","","","","","","","","","","","","","","","","","","","","","","","","","","","","","","","","",""
"html-button-response","55","397744","0.0-4.0-1.0-1.11","2","1","gm906sze4a6484v","","8044.700000047684","","What sound did you hear?","1","","","1","INDUCTION-JUDGMENT","left","1","","","","","","","","","","","","","","","","","","","","","","","","","","","","","","","","","","","","",""
"html-keyboard-response","56","398747","0.0-4.0-1.0-2.11","2","1","gm906sze4a6484v","","null","","<p style=""color:green;""><b>Correct!</b></p>","","null","","","","","","","","","","","","","","","","","","","","","","","","","","","","","","","","","","","","","","","","","",""
"audio-keyboard-response","57","399569","0.0-4.0-1.0-0.12","2","1","gm906sze4a6484v","","null","","sounds/induction/right/ru_SWS.wav","","null","","","","","","","","","","","","","","","","","","","","","","","","","","","","","","","","","","","","","","","","","",""
"html-button-response","58","400925","0.0-4.0-1.0-1.12","2","1","gm906sze4a6484v","","1354.9000000357628","","What sound did you hear?","1","","","1","INDUCTION-JUDGMENT","right","1","","","","","","","","","","","","","","","","","","","","","","","","","","","","","","","","","","","","",""
"html-keyboard-response","59","401933","0.0-4.0-1.0-2.12","2","1","gm906sze4a6484v","","null","","<p style=""color:green;""><b>Correct!</b></p>","","null","","","","","","","","","","","","","","","","","","","","","","","","","","","","","","","","","","","","","","","","","",""
"audio-keyboard-response","60","402739","0.0-4.0-1.0-0.13","2","1","gm906sze4a6484v","","null","","sounds/induction/right/ko_SWS.wav","","null","","","","","","","","","","","","","","","","","","","","","","","","","","","","","","","","","","","","","","","","","",""
"html-button-response","61","404548","0.0-4.0-1.0-1.13","2","1","gm906sze4a6484v","","1808","","What sound did you hear?","1","","","0","INDUCTION-JUDGMENT","right","0","","","","","","","","","","","","","","","","","","","","","","","","","","","","","","","","","","","","",""
"html-keyboard-response","62","405549","0.0-4.0-1.0-2.13","2","1","gm906sze4a6484v","","null","","<p style=""color:red;""><b>Incorrect!</b></p>","","null","","","","","","","","","","","","","","","","","","","","","","","","","","","","","","","","","","","","","","","","","",""
"audio-keyboard-response","63","406349","0.0-4.0-1.0-0.14","2","1","gm906sze4a6484v","","null","","sounds/induction/left/ge_SWS.wav","","null","","","","","","","","","","","","","","","","","","","","","","","","","","","","","","","","","","","","","","","","","",""
"html-button-response","64","422167","0.0-4.0-1.0-1.14","2","1","gm906sze4a6484v","","15817.199999988079","","What sound did you hear?","1","","","1","INDUCTION-JUDGMENT","left","1","","","","","","","","","","","","","","","","","","","","","","","","","","","","","","","","","","","","",""
"html-keyboard-response","65","423177","0.0-4.0-1.0-2.14","2","1","gm906sze4a6484v","","null","","<p style=""color:green;""><b>Correct!</b></p>","","null","","","","","","","","","","","","","","","","","","","","","","","","","","","","","","","","","","","","","","","","","",""
"audio-keyboard-response","66","423988","0.0-4.0-1.0-0.15","2","1","gm906sze4a6484v","","null","","sounds/induction/right/re_SWS.wav","","null","","","","","","","","","","","","","","","","","","","","","","","","","","","","","","","","","","","","","","","","","",""
"html-button-response","67","425182","0.0-4.0-1.0-1.15","2","1","gm906sze4a6484v","","1192.699999988079","","What sound did you hear?","1","","","1","INDUCTION-JUDGMENT","right","1","","","","","","","","","","","","","","","","","","","","","","","","","","","","","","","","","","","","",""
"html-keyboard-response","68","426187","0.0-4.0-1.0-2.15","2","1","gm906sze4a6484v","","null","","<p style=""color:green;""><b>Correct!</b></p>","","null","","","","","","","","","","","","","","","","","","","","","","","","","","","","","","","","","","","","","","","","","",""
"audio-keyboard-response","69","427009","0.0-4.0-1.0-0.16","2","1","gm906sze4a6484v","","null","","sounds/induction/left/ni_SWS.wav","","null","","","","","","","","","","","","","","","","","","","","","","","","","","","","","","","","","","","","","","","","","",""
"html-button-response","70","428888","0.0-4.0-1.0-1.16","2","1","gm906sze4a6484v","","1874.699999988079","","What sound did you hear?","1","","","1","INDUCTION-JUDGMENT","left","1","","","","","","","","","","","","","","","","","","","","","","","","","","","","","","","","","","","","",""
"html-keyboard-response","71","429898","0.0-4.0-1.0-2.16","2","1","gm906sze4a6484v","","null","","<p style=""color:green;""><b>Correct!</b></p>","","null","","","","","","","","","","","","","","","","","","","","","","","","","","","","","","","","","","","","","","","","","",""
"audio-keyboard-response","72","430699","0.0-4.0-1.0-0.17","2","1","gm906sze4a6484v","","null","","sounds/induction/left/su_SWS.wav","","null","","","","","","","","","","","","","","","","","","","","","","","","","","","","","","","","","","","","","","","","","",""
"html-button-response","73","432354","0.0-4.0-1.0-1.17","2","1","gm906sze4a6484v","","1654.3999999761581","","What sound did you hear?","0","","","1","INDUCTION-JUDGMENT","left","0","","","","","","","","","","","","","","","","","","","","","","","","","","","","","","","","","","","","",""
"html-keyboard-response","74","433363","0.0-4.0-1.0-2.17","2","1","gm906sze4a6484v","","null","","<p style=""color:green;""><b>Correct!</b></p>","","null","","","","","","","","","","","","","","","","","","","","","","","","","","","","","","","","","","","","","","","","","",""
"audio-keyboard-response","75","434178","0.0-4.0-1.0-0.18","2","1","gm906sze4a6484v","","null","","sounds/induction/right/me_SWS.wav","","null","","","","","","","","","","","","","","","","","","","","","","","","","","","","","","","","","","","","","","","","","",""
"html-button-response","76","435511","0.0-4.0-1.0-1.18","2","1","gm906sze4a6484v","","1331.699999988079","","What sound did you hear?","0","","","1","INDUCTION-JUDGMENT","right","0","","","","","","","","","","","","","","","","","","","","","","","","","","","","","","","","","","","","",""
"html-keyboard-response","77","436518","0.0-4.0-1.0-2.18","2","1","gm906sze4a6484v","","null","","<p style=""color:green;""><b>Correct!</b></p>","","null","","","","","","","","","","","","","","","","","","","","","","","","","","","","","","","","","","","","","","","","","",""
"audio-keyboard-response","78","437339","0.0-4.0-1.0-0.19","2","1","gm906sze4a6484v","","null","","sounds/induction/right/fe_SWS.wav","","null","","","","","","","","","","","","","","","","","","","","","","","","","","","","","","","","","","","","","","","","","",""
"html-button-response","79","438542","0.0-4.0-1.0-1.19","2","1","gm906sze4a6484v","","1202.2999999523163","","What sound did you hear?","0","","","1","INDUCTION-JUDGMENT","right","0","","","","","","","","","","","","","","","","","","","","","","","","","","","","","","","","","","","","",""
"html-keyboard-response","80","439543","0.0-4.0-1.0-2.19","2","1","gm906sze4a6484v","","null","","<p style=""color:green;""><b>Correct!</b></p>","","null","","","","","","","","","","","","","","","","","","","","","","","","","","","","","","","","","","","","","","","","","",""
"audio-keyboard-response","81","440349","0.0-4.0-1.0-0.20","2","1","gm906sze4a6484v","","null","","sounds/induction/left/re_SWS.wav","","null","","","","","","","","","","","","","","","","","","","","","","","","","","","","","","","","","","","","","","","","","",""
"html-button-response","82","494866","0.0-4.0-1.0-1.20","2","1","gm906sze4a6484v","","54516.5","","What sound did you hear?","0","","","1","INDUCTION-JUDGMENT","left","0","","","","","","","","","","","","","","","","","","","","","","","","","","","","","","","","","","","","",""
"html-keyboard-response","83","495869","0.0-4.0-1.0-2.20","2","1","gm906sze4a6484v","","null","","<p style=""color:green;""><b>Correct!</b></p>","","null","","","","","","","","","","","","","","","","","","","","","","","","","","","","","","","","","","","","","","","","","",""
"audio-keyboard-response","84","498237","0.0-4.0-1.0-0.21","2","1","gm906sze4a6484v","","null","","sounds/induction/right/fe_SWS.wav","","null","","","","","","","","","","","","","","","","","","","","","","","","","","","","","","","","","","","","","","","","","",""
"html-button-response","85","501805","0.0-4.0-1.0-1.21","2","1","gm906sze4a6484v","","3567","","What sound did you hear?","0","","","1","INDUCTION-JUDGMENT","right","0","","","","","","","","","","","","","","","","","","","","","","","","","","","","","","","","","","","","",""
"html-keyboard-response","86","502826","0.0-4.0-1.0-2.21","2","1","gm906sze4a6484v","","null","","<p style=""color:green;""><b>Correct!</b></p>","","null","","","","","","","","","","","","","","","","","","","","","","","","","","","","","","","","","","","","","","","","","",""
"audio-keyboard-response","87","503647","0.0-4.0-1.0-0.22","2","1","gm906sze4a6484v","","null","","sounds/induction/left/me_SWS.wav","","null","","","","","","","","","","","","","","","","","","","","","","","","","","","","","","","","","","","","","","","","","",""
"html-button-response","88","505938","0.0-4.0-1.0-1.22","2","1","gm906sze4a6484v","","2290.2999999523163","","What sound did you hear?","0","","","0","INDUCTION-JUDGMENT","left","1","","","","","","","","","","","","","","","","","","","","","","","","","","","","","","","","","","","","",""
"html-keyboard-response","89","506940","0.0-4.0-1.0-2.22","2","1","gm906sze4a6484v","","null","","<p style=""color:red;""><b>Incorrect!</b></p>","","null","","","","","","","","","","","","","","","","","","","","","","","","","","","","","","","","","","","","","","","","","",""
"audio-keyboard-response","90","507737","0.0-4.0-1.0-0.23","2","1","gm906sze4a6484v","","null","","sounds/induction/right/ti_SWS.wav","","null","","","","","","","","","","","","","","","","","","","","","","","","","","","","","","","","","","","","","","","","","",""
"html-button-response","91","509514","0.0-4.0-1.0-1.23","2","1","gm906sze4a6484v","","1775.8999999761581","","What sound did you hear?","0","","","0","INDUCTION-JUDGMENT","right","1","","","","","","","","","","","","","","","","","","","","","","","","","","","","","","","","","","","","",""
"html-keyboard-response","92","510525","0.0-4.0-1.0-2.23","2","1","gm906sze4a6484v","","null","","<p style=""color:red;""><b>Incorrect!</b></p>","","null","","","","","","","","","","","","","","","","","","","","","","","","","","","","","","","","","","","","","","","","","",""
"audio-keyboard-response","93","511337","0.0-4.0-1.0-0.24","2","1","gm906sze4a6484v","","null","","sounds/induction/left/ti_SWS.wav","","null","","","","","","","","","","","","","","","","","","","","","","","","","","","","","","","","","","","","","","","","","",""
"html-button-response","94","514196","0.0-4.0-1.0-1.24","2","1","gm906sze4a6484v","","2858.100000023842","","What sound did you hear?","0","","","1","INDUCTION-JUDGMENT","left","0","","","","","","","","","","","","","","","","","","","","","","","","","","","","","","","","","","","","",""
"html-keyboard-response","95","515206","0.0-4.0-1.0-2.24","2","1","gm906sze4a6484v","","null","","<p style=""color:green;""><b>Correct!</b></p>","","null","","","","","","","","","","","","","","","","","","","","","","","","","","","","","","","","","","","","","","","","","",""
"audio-keyboard-response","96","516007","0.0-4.0-1.0-0.25","2","1","gm906sze4a6484v","","null","","sounds/induction/left/pu_SWS.wav","","null","","","","","","","","","","","","","","","","","","","","","","","","","","","","","","","","","","","","","","","","","",""
"html-button-response","97","517662","0.0-4.0-1.0-1.25","2","1","gm906sze4a6484v","","1653.199999988079","","What sound did you hear?","0","","","1","INDUCTION-JUDGMENT","left","0","","","","","","","","","","","","","","","","","","","","","","","","","","","","","","","","","","","","",""
"html-keyboard-response","98","518666","0.0-4.0-1.0-2.25","2","1","gm906sze4a6484v","","null","","<p style=""color:green;""><b>Correct!</b></p>","","null","","","","","","","","","","","","","","","","","","","","","","","","","","","","","","","","","","","","","","","","","",""
"audio-keyboard-response","99","519487","0.0-4.0-1.0-0.26","2","1","gm906sze4a6484v","","null","","sounds/induction/right/ti_SWS.wav","","null","","","","","","","","","","","","","","","","","","","","","","","","","","","","","","","","","","","","","","","","","",""
"html-button-response","100","529070","0.0-4.0-1.0-1.26","2","1","gm906sze4a6484v","","9581.899999976158","","What sound did you hear?","0","","","0","INDUCTION-JUDGMENT","right","1","","","","","","","","","","","","","","","","","","","","","","","","","","","","","","","","","","","","",""
"html-keyboard-response","101","530077","0.0-4.0-1.0-2.26","2","1","gm906sze4a6484v","","null","","<p style=""color:red;""><b>Incorrect!</b></p>","","null","","","","","","","","","","","","","","","","","","","","","","","","","","","","","","","","","","","","","","","","","",""
"audio-keyboard-response","102","530897","0.0-4.0-1.0-0.27","2","1","gm906sze4a6484v","","null","","sounds/induction/right/su_SWS.wav","","null","","","","","","","","","","","","","","","","","","","","","","","","","","","","","","","","","","","","","","","","","",""
"html-button-response","103","533166","0.0-4.0-1.0-1.27","2","1","gm906sze4a6484v","","2268.100000023842","","What sound did you hear?","1","","","1","INDUCTION-JUDGMENT","right","1","","","","","","","","","","","","","","","","","","","","","","","","","","","","","","","","","","","","",""
"html-keyboard-response","104","534171","0.0-4.0-1.0-2.27","2","1","gm906sze4a6484v","","null","","<p style=""color:green;""><b>Correct!</b></p>","","null","","","","","","","","","","","","","","","","","","","","","","","","","","","","","","","","","","","","","","","","","",""
"audio-keyboard-response","105","534978","0.0-4.0-1.0-0.28","2","1","gm906sze4a6484v","","null","","sounds/induction/right/me_SWS.wav","","null","","","","","","","","","","","","","","","","","","","","","","","","","","","","","","","","","","","","","","","","","",""
"html-button-response","106","536189","0.0-4.0-1.0-1.28","2","1","gm906sze4a6484v","","1210.3999999761581","","What sound did you hear?","0","","","1","INDUCTION-JUDGMENT","right","0","","","","","","","","","","","","","","","","","","","","","","","","","","","","","","","","","","","","",""
"html-keyboard-response","107","537196","0.0-4.0-1.0-2.28","2","1","gm906sze4a6484v","","null","","<p style=""color:green;""><b>Correct!</b></p>","","null","","","","","","","","","","","","","","","","","","","","","","","","","","","","","","","","","","","","","","","","","",""
"audio-keyboard-response","108","538017","0.0-4.0-1.0-0.29","2","1","gm906sze4a6484v","","null","","sounds/induction/right/fu_SWS.wav","","null","","","","","","","","","","","","","","","","","","","","","","","","","","","","","","","","","","","","","","","","","",""
"html-button-response","109","540550","0.0-4.0-1.0-1.29","2","1","gm906sze4a6484v","","2531.100000023842","","What sound did you hear?","0","","","1","INDUCTION-JUDGMENT","right","0","","","","","","","","","","","","","","","","","","","","","","","","","","","","","","","","","","","","",""
"html-keyboard-response","110","541567","0.0-4.0-1.0-2.29","2","1","gm906sze4a6484v","","null","","<p style=""color:green;""><b>Correct!</b></p>","","null","","","","","","","","","","","","","","","","","","","","","","","","","","","","","","","","","","","","","","","","","",""
"audio-keyboard-response","111","542397","0.0-4.0-1.0-0.30","2","1","gm906sze4a6484v","","null","","sounds/induction/right/ko_SWS.wav","","null","","","","","","","","","","","","","","","","","","","","","","","","","","","","","","","","","","","","","","","","","",""
"html-button-response","112","552159","0.0-4.0-1.0-1.30","2","1","gm906sze4a6484v","","9760.600000023842","","What sound did you hear?","1","","","0","INDUCTION-JUDGMENT","right","0","","","","","","","","","","","","","","","","","","","","","","","","","","","","","","","","","","","","",""
"html-keyboard-response","113","553177","0.0-4.0-1.0-2.30","2","1","gm906sze4a6484v","","null","","<p style=""color:red;""><b>Incorrect!</b></p>","","null","","","","","","","","","","","","","","","","","","","","","","","","","","","","","","","","","","","","","","","","","",""
"audio-keyboard-response","114","554008","0.0-4.0-1.0-0.31","2","1","gm906sze4a6484v","","null","","sounds/induction/left/ge_SWS.wav","","null","","","","","","","","","","","","","","","","","","","","","","","","","","","","","","","","","","","","","","","","","",""
"html-button-response","115","556457","0.0-4.0-1.0-1.31","2","1","gm906sze4a6484v","","2447.7999999523163","","What sound did you hear?","1","","","1","INDUCTION-JUDGMENT","left","1","","","","","","","","","","","","","","","","","","","","","","","","","","","","","","","","","","","","",""
"html-keyboard-response","116","557477","0.0-4.0-1.0-2.31","2","1","gm906sze4a6484v","","null","","<p style=""color:green;""><b>Correct!</b></p>","","null","","","","","","","","","","","","","","","","","","","","","","","","","","","","","","","","","","","","","","","","","",""
"audio-keyboard-response","117","558287","0.0-4.0-1.0-0.32","2","1","gm906sze4a6484v","","null","","sounds/induction/right/pu_SWS.wav","","null","","","","","","","","","","","","","","","","","","","","","","","","","","","","","","","","","","","","","","","","","",""
"html-button-response","118","559877","0.0-4.0-1.0-1.32","2","1","gm906sze4a6484v","","1588.800000011921","","What sound did you hear?","1","","","1","INDUCTION-JUDGMENT","right","1","","","","","","","","","","","","","","","","","","","","","","","","","","","","","","","","","","","","",""
"html-keyboard-response","119","560896","0.0-4.0-1.0-2.32","2","1","gm906sze4a6484v","","null","","<p style=""color:green;""><b>Correct!</b></p>","","null","","","","","","","","","","","","","","","","","","","","","","","","","","","","","","","","","","","","","","","","","",""
"audio-keyboard-response","120","561697","0.0-4.0-1.0-0.33","2","1","gm906sze4a6484v","","null","","sounds/induction/left/fu_SWS.wav","","null","","","","","","","","","","","","","","","","","","","","","","","","","","","","","","","","","","","","","","","","","",""
"html-button-response","121","563508","0.0-4.0-1.0-1.33","2","1","gm906sze4a6484v","","1810.4000000357628","","What sound did you hear?","1","","","1","INDUCTION-JUDGMENT","left","1","","","","","","","","","","","","","","","","","","","","","","","","","","","","","","","","","","","","",""
"html-keyboard-response","122","564516","0.0-4.0-1.0-2.33","2","1","gm906sze4a6484v","","null","","<p style=""color:green;""><b>Correct!</b></p>","","null","","","","","","","","","","","","","","","","","","","","","","","","","","","","","","","","","","","","","","","","","",""
"audio-keyboard-response","123","565328","0.0-4.0-1.0-0.34","2","1","gm906sze4a6484v","","null","","sounds/induction/right/ni_SWS.wav","","null","","","","","","","","","","","","","","","","","","","","","","","","","","","","","","","","","","","","","","","","","",""
"html-button-response","124","566568","0.0-4.0-1.0-1.34","2","1","gm906sze4a6484v","","1239.5","","What sound did you hear?","0","","","1","INDUCTION-JUDGMENT","right","0","","","","","","","","","","","","","","","","","","","","","","","","","","","","","","","","","","","","",""
"html-keyboard-response","125","567577","0.0-4.0-1.0-2.34","2","1","gm906sze4a6484v","","null","","<p style=""color:green;""><b>Correct!</b></p>","","null","","","","","","","","","","","","","","","","","","","","","","","","","","","","","","","","","","","","","","","","","",""
"audio-keyboard-response","126","568397","0.0-4.0-1.0-0.35","2","1","gm906sze4a6484v","","null","","sounds/induction/right/su_SWS.wav","","null","","","","","","","","","","","","","","","","","","","","","","","","","","","","","","","","","","","","","","","","","",""
"html-button-response","127","569651","0.0-4.0-1.0-1.35","2","1","gm906sze4a6484v","","1252.1000000238419","","What sound did you hear?","1","","","1","INDUCTION-JUDGMENT","right","1","","","","","","","","","","","","","","","","","","","","","","","","","","","","","","","","","","","","",""
"html-keyboard-response","128","570657","0.0-4.0-1.0-2.35","2","1","gm906sze4a6484v","","null","","<p style=""color:green;""><b>Correct!</b></p>","","null","","","","","","","","","","","","","","","","","","","","","","","","","","","","","","","","","","","","","","","","","",""
"audio-keyboard-response","129","571477","0.0-4.0-1.0-0.36","2","1","gm906sze4a6484v","","null","","sounds/induction/right/fu_SWS.wav","","null","","","","","","","","","","","","","","","","","","","","","","","","","","","","","","","","","","","","","","","","","",""
"html-button-response","130","572823","0.0-4.0-1.0-1.36","2","1","gm906sze4a6484v","","1344.199999988079","","What sound did you hear?","0","","","1","INDUCTION-JUDGMENT","right","0","","","","","","","","","","","","","","","","","","","","","","","","","","","","","","","","","","","","",""
"html-keyboard-response","131","573838","0.0-4.0-1.0-2.36","2","1","gm906sze4a6484v","","null","","<p style=""color:green;""><b>Correct!</b></p>","","null","","","","","","","","","","","","","","","","","","","","","","","","","","","","","","","","","","","","","","","","","",""
"audio-keyboard-response","132","574647","0.0-4.0-1.0-0.37","2","1","gm906sze4a6484v","","null","","sounds/induction/left/ko_SWS.wav","","null","","","","","","","","","","","","","","","","","","","","","","","","","","","","","","","","","","","","","","","","","",""
"html-button-response","133","575402","0.0-4.0-1.0-1.37","2","1","gm906sze4a6484v","","753.9000000357628","","What sound did you hear?","0","","","0","INDUCTION-JUDGMENT","left","1","","","","","","","","","","","","","","","","","","","","","","","","","","","","","","","","","","","","",""
"html-keyboard-response","134","576417","0.0-4.0-1.0-2.37","2","1","gm906sze4a6484v","","null","","<p style=""color:red;""><b>Incorrect!</b></p>","","null","","","","","","","","","","","","","","","","","","","","","","","","","","","","","","","","","","","","","","","","","",""
"audio-keyboard-response","135","577218","0.0-4.0-1.0-0.38","2","1","gm906sze4a6484v","","null","","sounds/induction/left/su_SWS.wav","","null","","","","","","","","","","","","","","","","","","","","","","","","","","","","","","","","","","","","","","","","","",""
"html-button-response","136","579364","0.0-4.0-1.0-1.38","2","1","gm906sze4a6484v","","2145.800000011921","","What sound did you hear?","0","","","1","INDUCTION-JUDGMENT","left","0","","","","","","","","","","","","","","","","","","","","","","","","","","","","","","","","","","","","",""
"html-keyboard-response","137","580387","0.0-4.0-1.0-2.38","2","1","gm906sze4a6484v","","null","","<p style=""color:green;""><b>Correct!</b></p>","","null","","","","","","","","","","","","","","","","","","","","","","","","","","","","","","","","","","","","","","","","","",""
"audio-keyboard-response","138","581207","0.0-4.0-1.0-0.39","2","1","gm906sze4a6484v","","null","","sounds/induction/right/ge_SWS.wav","","null","","","","","","","","","","","","","","","","","","","","","","","","","","","","","","","","","","","","","","","","","",""
"html-button-response","139","581908","0.0-4.0-1.0-1.39","2","1","gm906sze4a6484v","","699","","What sound did you hear?","0","","","1","INDUCTION-JUDGMENT","right","0","","","","","","","","","","","","","","","","","","","","","","","","","","","","","","","","","","","","",""
"html-keyboard-response","140","582917","0.0-4.0-1.0-2.39","2","1","gm906sze4a6484v","","null","","<p style=""color:green;""><b>Correct!</b></p>","","null","","","","","","","","","","","","","","","","","","","","","","","","","","","","","","","","","","","","","","","","","",""
"audio-keyboard-response","141","583728","0.0-4.0-1.0-0.40","2","1","gm906sze4a6484v","","null","","sounds/induction/left/fe_SWS.wav","","null","","","","","","","","","","","","","","","","","","","","","","","","","","","","","","","","","","","","","","","","","",""
"html-button-response","142","585688","0.0-4.0-1.0-1.40","2","1","gm906sze4a6484v","","1959.199999988079","","What sound did you hear?","1","","","1","INDUCTION-JUDGMENT","left","1","","","","","","","","","","","","","","","","","","","","","","","","","","","","","","","","","","","","",""
"html-keyboard-response","143","586696","0.0-4.0-1.0-2.40","2","1","gm906sze4a6484v","","null","","<p style=""color:green;""><b>Correct!</b></p>","","null","","","","","","","","","","","","","","","","","","","","","","","","","","","","","","","","","","","","","","","","","",""
"audio-keyboard-response","144","587527","0.0-4.0-1.0-0.41","2","1","gm906sze4a6484v","","null","","sounds/induction/left/ta_SWS.wav","","null","","","","","","","","","","","","","","","","","","","","","","","","","","","","","","","","","","","","","","","","","",""
"html-button-response","145","589116","0.0-4.0-1.0-1.41","2","1","gm906sze4a6484v","","1587.300000011921","","What sound did you hear?","0","","","1","INDUCTION-JUDGMENT","left","0","","","","","","","","","","","","","","","","","","","","","","","","","","","","","","","","","","","","",""
"html-keyboard-response","146","590126","0.0-4.0-1.0-2.41","2","1","gm906sze4a6484v","","null","","<p style=""color:green;""><b>Correct!</b></p>","","null","","","","","","","","","","","","","","","","","","","","","","","","","","","","","","","","","","","","","","","","","",""
"audio-keyboard-response","147","590928","0.0-4.0-1.0-0.42","2","1","gm906sze4a6484v","","null","","sounds/induction/left/ni_SWS.wav","","null","","","","","","","","","","","","","","","","","","","","","","","","","","","","","","","","","","","","","","","","","",""
"html-button-response","148","593001","0.0-4.0-1.0-1.42","2","1","gm906sze4a6484v","","2072.400000035763","","What sound did you hear?","1","","","1","INDUCTION-JUDGMENT","left","1","","","","","","","","","","","","","","","","","","","","","","","","","","","","","","","","","","","","",""
"html-keyboard-response","149","594026","0.0-4.0-1.0-2.42","2","1","gm906sze4a6484v","","null","","<p style=""color:green;""><b>Correct!</b></p>","","null","","","","","","","","","","","","","","","","","","","","","","","","","","","","","","","","","","","","","","","","","",""
"audio-keyboard-response","150","594848","0.0-4.0-1.0-0.43","2","1","gm906sze4a6484v","","null","","sounds/induction/right/ta_SWS.wav","","null","","","","","","","","","","","","","","","","","","","","","","","","","","","","","","","","","","","","","","","","","",""
"html-button-response","151","596585","0.0-4.0-1.0-1.43","2","1","gm906sze4a6484v","","1736.7000000476837","","What sound did you hear?","1","","","1","INDUCTION-JUDGMENT","right","1","","","","","","","","","","","","","","","","","","","","","","","","","","","","","","","","","","","","",""
"html-keyboard-response","152","597599","0.0-4.0-1.0-2.43","2","1","gm906sze4a6484v","","null","","<p style=""color:green;""><b>Correct!</b></p>","","null","","","","","","","","","","","","","","","","","","","","","","","","","","","","","","","","","","","","","","","","","",""
"audio-keyboard-response","153","598408","0.0-4.0-1.0-0.44","2","1","gm906sze4a6484v","","null","","sounds/induction/left/ko_SWS.wav","","null","","","","","","","","","","","","","","","","","","","","","","","","","","","","","","","","","","","","","","","","","",""
"html-button-response","154","600855","0.0-4.0-1.0-1.44","2","1","gm906sze4a6484v","","2445.800000011921","","What sound did you hear?","0","","","0","INDUCTION-JUDGMENT","left","1","","","","","","","","","","","","","","","","","","","","","","","","","","","","","","","","","","","","",""
"html-keyboard-response","155","601857","0.0-4.0-1.0-2.44","2","1","gm906sze4a6484v","","null","","<p style=""color:red;""><b>Incorrect!</b></p>","","null","","","","","","","","","","","","","","","","","","","","","","","","","","","","","","","","","","","","","","","","","",""
"audio-keyboard-response","156","602678","0.0-4.0-1.0-0.45","2","1","gm906sze4a6484v","","null","","sounds/induction/right/re_SWS.wav","","null","","","","","","","","","","","","","","","","","","","","","","","","","","","","","","","","","","","","","","","","","",""
"html-button-response","157","604299","0.0-4.0-1.0-1.45","2","1","gm906sze4a6484v","","1619.6000000238419","","What sound did you hear?","1","","","1","INDUCTION-JUDGMENT","right","1","","","","","","","","","","","","","","","","","","","","","","","","","","","","","","","","","","","","",""
"html-keyboard-response","158","605303","0.0-4.0-1.0-2.45","2","1","gm906sze4a6484v","","null","","<p style=""color:green;""><b>Correct!</b></p>","","null","","","","","","","","","","","","","","","","","","","","","","","","","","","","","","","","","","","","","","","","","",""
"audio-keyboard-response","159","606117","0.0-4.0-1.0-0.46","2","1","gm906sze4a6484v","","null","","sounds/induction/left/pu_SWS.wav","","null","","","","","","","","","","","","","","","","","","","","","","","","","","","","","","","","","","","","","","","","","",""
"html-button-response","160","607291","0.0-4.0-1.0-1.46","2","1","gm906sze4a6484v","","1172.8999999761581","","What sound did you hear?","0","","","1","INDUCTION-JUDGMENT","left","0","","","","","","","","","","","","","","","","","","","","","","","","","","","","","","","","","","","","",""
"html-keyboard-response","161","608296","0.0-4.0-1.0-2.46","2","1","gm906sze4a6484v","","null","","<p style=""color:green;""><b>Correct!</b></p>","","null","","","","","","","","","","","","","","","","","","","","","","","","","","","","","","","","","","","","","","","","","",""
"audio-keyboard-response","162","609118","0.0-4.0-1.0-0.47","2","1","gm906sze4a6484v","","null","","sounds/induction/right/ta_SWS.wav","","null","","","","","","","","","","","","","","","","","","","","","","","","","","","","","","","","","","","","","","","","","",""
"html-button-response","163","610246","0.0-4.0-1.0-1.47","2","1","gm906sze4a6484v","","1127.300000011921","","What sound did you hear?","1","","","1","INDUCTION-JUDGMENT","right","1","","","","","","","","","","","","","","","","","","","","","","","","","","","","","","","","","","","","",""
"html-keyboard-response","164","611267","0.0-4.0-1.0-2.47","2","1","gm906sze4a6484v","","null","","<p style=""color:green;""><b>Correct!</b></p>","","null","","","","","","","","","","","","","","","","","","","","","","","","","","","","","","","","","","","","","","","","","",""
"html-button-response","165","643160","0.0-5.0-0.0","2","1","gm906sze4a6484v","","31377.600000023842","","<p>Thank you for your answers.</p><p>You will now listen to similar sounds. The main difference is that the sounds will be longer and will make up complete sentences.</p><p>Please listen carefully to each sentence. After each sentence, you will be asked to type back what you heard to the best of your ability. After you provide your response, you will be given feedback about the correct answer.</p><p>There are 10 sentences in total.","0","","","","","","","","","","","","","","","","","","","","","","","","","","","","","","","","","","","","","","","","","","",""
"audio-keyboard-response","166","645902","0.0-5.0-1.0-0.0","2","1","gm906sze4a6484v","","null","","sounds/sentences/right/14_06_cfSWS.wav","","null","","","","","","","","","","","","","","","","","","","","","","","","","","","","","","","","","","","","","","","","","",""
"sentence-resp","167","669555","0.0-5.0-1.0-1.0","2","1","gm906sze4a6484v","","23651","","","","","","","SWS-SENT-RESPONSE","","","{""Q0"":""""}","Bring your problems to the wise chief.","bring,your,problems,wise,chief","","0","0","0","0","0","0","0","","","","","","","","","","","","","","","","","","","","","","","","","",""
"html-keyboard-response","168","670830","0.0-5.0-1.0-2.0","2","1","gm906sze4a6484v","","null","","","","null","","","","","","","","","","","","","","","","","","","","","","","","","","","","","","","","","","","","","","","","","",""
"audio-keyboard-response","169","673081","0.0-5.0-1.0-3.0","2","1","gm906sze4a6484v","","null","","sounds/sentences/right/14_06_cfSWS.wav","","null","","","","","","","","","","","","","","","","","","","","","","","","","","","","","","","","","","","","","","","","","",""
"html-keyboard-response","170","674086","0.0-5.0-1.0-4.0","2","1","gm906sze4a6484v","","null","","","","null","","","","","","","","","","","","","","","","","","","","","","","","","","","","","","","","","","","","","","","","","",""
"html-button-response","171","690513","0.0-5.0-1.0-5.0","2","1","gm906sze4a6484v","","15913","","<p>Press the button below when you are ready to continue.</p>","0","","","","","","","","","","","","","","","","","","","","","","","","","","","","","","","","","","","","","","","","","","",""
"audio-keyboard-response","172","693251","0.0-5.0-1.0-0.1","2","1","gm906sze4a6484v","","null","","sounds/sentences/right/14_09_cfSWS.wav","","null","","","","","","","","","","","","","","","","","","","","","","","","","","","","","","","","","","","","","","","","","",""
"sentence-resp","173","722324","0.0-5.0-1.0-1.1","2","1","gm906sze4a6484v","","29071","","","","","","","SWS-SENT-RESPONSE","","","{""Q0"":""""}","We frown when events take a bad turn.","frown,events,take,bad,turn","","0","0","0","0","0","0","0","","","","","","","","","","","","","","","","","","","","","","","","","",""
"html-keyboard-response","174","723594","0.0-5.0-1.0-2.1","2","1","gm906sze4a6484v","","null","","","","null","","","","","","","","","","","","","","","","","","","","","","","","","","","","","","","","","","","","","","","","","",""
"audio-keyboard-response","175","725820","0.0-5.0-1.0-3.1","2","1","gm906sze4a6484v","","null","","sounds/sentences/right/14_09_cfSWS.wav","","null","","","","","","","","","","","","","","","","","","","","","","","","","","","","","","","","","","","","","","","","","",""
"html-keyboard-response","176","726840","0.0-5.0-1.0-4.1","2","1","gm906sze4a6484v","","null","","","","null","","","","","","","","","","","","","","","","","","","","","","","","","","","","","","","","","","","","","","","","","",""
"html-button-response","177","753962","0.0-5.0-1.0-5.1","2","1","gm906sze4a6484v","","26620.100000023842","","<p>Press the button below when you are ready to continue.</p>","0","","","","","","","","","","","","","","","","","","","","","","","","","","","","","","","","","","","","","","","","","","",""
"audio-keyboard-response","178","756961","0.0-5.0-1.0-0.2","2","1","gm906sze4a6484v","","null","","sounds/sentences/left/14_05_cfSWS.wav","","null","","","","","","","","","","","","","","","","","","","","","","","","","","","","","","","","","","","","","","","","","",""
"sentence-resp","179","769940","0.0-5.0-1.0-1.2","2","1","gm906sze4a6484v","","12976","","","","","","","SWS-SENT-RESPONSE","","","{""Q0"":""the eyes of the sweet girl""}","The glow deepened in the eyes of the sweet girl.","glow,deepened,eyes,sweet,girl","THE EYES OF THE SWEET GIRL","0","0","1","1","1","3","0.6","","","","","","","","","","","","","","","","","","","","","","","","","",""
"html-keyboard-response","180","771203","0.0-5.0-1.0-2.2","2","1","gm906sze4a6484v","","null","","","","null","","","","","","","","","","","","","","","","","","","","","","","","","","","","","","","","","","","","","","","","","",""
"audio-keyboard-response","181","773691","0.0-5.0-1.0-3.2","2","1","gm906sze4a6484v","","null","","sounds/sentences/left/14_05_cfSWS.wav","","null","","","","","","","","","","","","","","","","","","","","","","","","","","","","","","","","","","","","","","","","","",""
"html-keyboard-response","182","774700","0.0-5.0-1.0-4.2","2","1","gm906sze4a6484v","","null","","","","null","","","","","","","","","","","","","","","","","","","","","","","","","","","","","","","","","","","","","","","","","",""
"html-button-response","183","783127","0.0-5.0-1.0-5.2","2","1","gm906sze4a6484v","","7906.300000011921","","<p>Press the button below when you are ready to continue.</p>","0","","","","","","","","","","","","","","","","","","","","","","","","","","","","","","","","","","","","","","","","","","",""
"audio-keyboard-response","184","786151","0.0-5.0-1.0-0.3","2","1","gm906sze4a6484v","","null","","sounds/sentences/right/14_10_cfSWS.wav","","null","","","","","","","","","","","","","","","","","","","","","","","","","","","","","","","","","","","","","","","","","",""
"sentence-resp","185","795714","0.0-5.0-1.0-1.3","2","1","gm906sze4a6484v","","9560","","","","","","","SWS-SENT-RESPONSE","","","{""Q0"":""strong with a smokey taste""}","Port is a strong wine with a smoky taste.","port,strong,wine,smoky,taste","STRONG WITH A SMOKEY TASTE","0","1","0","0","1","2","0.4","","","","","","","","","","","","","","","","","","","","","","","","","",""
"html-keyboard-response","186","796968","0.0-5.0-1.0-2.3","2","1","gm906sze4a6484v","","null","","","","null","","","","","","","","","","","","","","","","","","","","","","","","","","","","","","","","","","","","","","","","","",""
"audio-keyboard-response","187","799481","0.0-5.0-1.0-3.3","2","1","gm906sze4a6484v","","null","","sounds/sentences/right/14_10_cfSWS.wav","","null","","","","","","","","","","","","","","","","","","","","","","","","","","","","","","","","","","","","","","","","","",""
"html-keyboard-response","188","800500","0.0-5.0-1.0-4.3","2","1","gm906sze4a6484v","","null","","","","null","","","","","","","","","","","","","","","","","","","","","","","","","","","","","","","","","","","","","","","","","",""
"html-button-response","189","804820","0.0-5.0-1.0-5.3","2","1","gm906sze4a6484v","","3798.699999988079","","<p>Press the button below when you are ready to continue.</p>","0","","","","","","","","","","","","","","","","","","","","","","","","","","","","","","","","","","","","","","","","","","",""
"audio-keyboard-response","190","807581","0.0-5.0-1.0-0.4","2","1","gm906sze4a6484v","","null","","sounds/sentences/right/14_08_cfSWS.wav","","null","","","","","","","","","","","","","","","","","","","","","","","","","","","","","","","","","","","","","","","","","",""
"sentence-resp","191","814362","0.0-5.0-1.0-1.4","2","1","gm906sze4a6484v","","6778","","","","","","","SWS-SENT-RESPONSE","","","{""Q0"":""""}","Clothes and lodging are free to new men.","clothes,lodging,free,new,men","","0","0","0","0","0","0","0","","","","","","","","","","","","","","","","","","","","","","","","","",""
"html-keyboard-response","192","815631","0.0-5.0-1.0-2.4","2","1","gm906sze4a6484v","","null","","","","null","","","","","","","","","","","","","","","","","","","","","","","","","","","","","","","","","","","","","","","","","",""
"audio-keyboard-response","193","817891","0.0-5.0-1.0-3.4","2","1","gm906sze4a6484v","","null","","sounds/sentences/right/14_08_cfSWS.wav","","null","","","","","","","","","","","","","","","","","","","","","","","","","","","","","","","","","","","","","","","","","",""
"html-keyboard-response","194","818901","0.0-5.0-1.0-4.4","2","1","gm906sze4a6484v","","null","","","","null","","","","","","","","","","","","","","","","","","","","","","","","","","","","","","","","","","","","","","","","","",""
"html-button-response","195","828851","0.0-5.0-1.0-5.4","2","1","gm906sze4a6484v","","9430.300000011921","","<p>Press the button below when you are ready to continue.</p>","0","","","","","","","","","","","","","","","","","","","","","","","","","","","","","","","","","","","","","","","","","","",""
"audio-keyboard-response","196","831991","0.0-5.0-1.0-0.5","2","1","gm906sze4a6484v","","null","","sounds/sentences/left/14_01_cfSWS.wav","","null","","","","","","","","","","","","","","","","","","","","","","","","","","","","","","","","","","","","","","","","","",""
"sentence-resp","197","842743","0.0-5.0-1.0-1.5","2","1","gm906sze4a6484v","","10750","","","","","","","SWS-SENT-RESPONSE","","","{""Q0"":""small danger on the swim ""}","A cramp is no small danger on a swim.","cramp,no,small,danger,swim","SMALL DANGER ON THE SWIM ","0","0","1","1","1","3","0.6","","","","","","","","","","","","","","","","","","","","","","","","","",""
"html-keyboard-response","198","844010","0.0-5.0-1.0-2.5","2","1","gm906sze4a6484v","","null","","","","null","","","","","","","","","","","","","","","","","","","","","","","","","","","","","","","","","","","","","","","","","",""
"audio-keyboard-response","199","846631","0.0-5.0-1.0-3.5","2","1","gm906sze4a6484v","","null","","sounds/sentences/left/14_01_cfSWS.wav","","null","","","","","","","","","","","","","","","","","","","","","","","","","","","","","","","","","","","","","","","","","",""
"html-keyboard-response","200","847650","0.0-5.0-1.0-4.5","2","1","gm906sze4a6484v","","null","","","","null","","","","","","","","","","","","","","","","","","","","","","","","","","","","","","","","","","","","","","","","","",""
"html-button-response","201","856734","0.0-5.0-1.0-5.5","2","1","gm906sze4a6484v","","8574.199999988079","","<p>Press the button below when you are ready to continue.</p>","0","","","","","","","","","","","","","","","","","","","","","","","","","","","","","","","","","","","","","","","","","","",""
"audio-keyboard-response","202","859301","0.0-5.0-1.0-0.6","2","1","gm906sze4a6484v","","null","","sounds/sentences/left/14_04_cfSWS.wav","","null","","","","","","","","","","","","","","","","","","","","","","","","","","","","","","","","","","","","","","","","","",""
"sentence-resp","203","874091","0.0-5.0-1.0-1.6","2","1","gm906sze4a6484v","","14787","","","","","","","SWS-SENT-RESPONSE","","","{""Q0"":""two plus seven is less than ten ""}","Two plus seven is less than ten.","two,plus,seven,less,ten","TWO PLUS SEVEN IS LESS THAN TEN ","1","1","1","1","1","5","1","","","","","","","","","","","","","","","","","","","","","","","","","",""
"html-keyboard-response","204","875349","0.0-5.0-1.0-2.6","2","1","gm906sze4a6484v","","null","","","","null","","","","","","","","","","","","","","","","","","","","","","","","","","","","","","","","","","","","","","","","","",""
"audio-keyboard-response","205","877411","0.0-5.0-1.0-3.6","2","1","gm906sze4a6484v","","null","","sounds/sentences/left/14_04_cfSWS.wav","","null","","","","","","","","","","","","","","","","","","","","","","","","","","","","","","","","","","","","","","","","","",""
"html-keyboard-response","206","878420","0.0-5.0-1.0-4.6","2","1","gm906sze4a6484v","","null","","","","null","","","","","","","","","","","","","","","","","","","","","","","","","","","","","","","","","","","","","","","","","",""
"html-button-response","207","881689","0.0-5.0-1.0-5.6","2","1","gm906sze4a6484v","","2748.300000011921","","<p>Press the button below when you are ready to continue.</p>","0","","","","","","","","","","","","","","","","","","","","","","","","","","","","","","","","","","","","","","","","","","",""
"audio-keyboard-response","208","884601","0.0-5.0-1.0-0.7","2","1","gm906sze4a6484v","","null","","sounds/sentences/right/14_07_cfSWS.wav","","null","","","","","","","","","","","","","","","","","","","","","","","","","","","","","","","","","","","","","","","","","",""
"sentence-resp","209","903367","0.0-5.0-1.0-1.7","2","1","gm906sze4a6484v","","18764","","","","","","","SWS-SENT-RESPONSE","","","{""Q0"":""write to the friends you cherish ""}","Write a fond note to the friend you cherish.","write,fond,note,friend,cherish","WRITE TO THE FRIENDS YOU CHERISH ","1","0","0","0","1","2","0.4","","","","","","","","","","","","","","","","","","","","","","","","","",""
"html-keyboard-response","210","904641","0.0-5.0-1.0-2.7","2","1","gm906sze4a6484v","","null","","","","null","","","","","","","","","","","","","","","","","","","","","","","","","","","","","","","","","","","","","","","","","",""
"audio-keyboard-response","211","907032","0.0-5.0-1.0-3.7","2","1","gm906sze4a6484v","","null","","sounds/sentences/right/14_07_cfSWS.wav","","null","","","","","","","","","","","","","","","","","","","","","","","","","","","","","","","","","","","","","","","","","",""
"html-keyboard-response","212","908041","0.0-5.0-1.0-4.7","2","1","gm906sze4a6484v","","null","","","","null","","","","","","","","","","","","","","","","","","","","","","","","","","","","","","","","","","","","","","","","","",""
"html-button-response","213","912136","0.0-5.0-1.0-5.7","2","1","gm906sze4a6484v","","3592.7000000476837","","<p>Press the button below when you are ready to continue.</p>","0","","","","","","","","","","","","","","","","","","","","","","","","","","","","","","","","","","","","","","","","","","",""
"audio-keyboard-response","214","914961","0.0-5.0-1.0-0.8","2","1","gm906sze4a6484v","","null","","sounds/sentences/left/14_02_cfSWS.wav","","null","","","","","","","","","","","","","","","","","","","","","","","","","","","","","","","","","","","","","","","","","",""
"sentence-resp","215","940287","0.0-5.0-1.0-1.8","2","1","gm906sze4a6484v","","25323","","","","","","","SWS-SENT-RESPONSE","","","{""Q0"":""he said the same phrase thirty times ""}","He said the same phrase thirty times.","said,same,phrase,thirty,times","HE SAID THE SAME PHRASE THIRTY TIMES ","1","1","1","1","1","5","1","","","","","","","","","","","","","","","","","","","","","","","","","",""
"html-keyboard-response","216","941551","0.0-5.0-1.0-2.8","2","1","gm906sze4a6484v","","null","","","","null","","","","","","","","","","","","","","","","","","","","","","","","","","","","","","","","","","","","","","","","","",""
"audio-keyboard-response","217","943872","0.0-5.0-1.0-3.8","2","1","gm906sze4a6484v","","null","","sounds/sentences/left/14_02_cfSWS.wav","","null","","","","","","","","","","","","","","","","","","","","","","","","","","","","","","","","","","","","","","","","","",""
"html-keyboard-response","218","944891","0.0-5.0-1.0-4.8","2","1","gm906sze4a6484v","","null","","","","null","","","","","","","","","","","","","","","","","","","","","","","","","","","","","","","","","","","","","","","","","",""
"html-button-response","219","948253","0.0-5.0-1.0-5.8","2","1","gm906sze4a6484v","","2851.899999976158","","<p>Press the button below when you are ready to continue.</p>","0","","","","","","","","","","","","","","","","","","","","","","","","","","","","","","","","","","","","","","","","","","",""
"audio-keyboard-response","220","950851","0.0-5.0-1.0-0.9","2","1","gm906sze4a6484v","","null","","sounds/sentences/left/14_03_cfSWS.wav","","null","","","","","","","","","","","","","","","","","","","","","","","","","","","","","","","","","","","","","","","","","",""
"sentence-resp","221","965512","0.0-5.0-1.0-1.9","2","1","gm906sze4a6484v","","14658","","","","","","","SWS-SENT-RESPONSE","","","{""Q0"":""without leaves""}","Pluck the bright rose without leaves.","pluck,bright,rose,without,leaves","WITHOUT LEAVES","0","0","0","1","1","2","0.4","","","","","","","","","","","","","","","","","","","","","","","","","",""
"html-keyboard-response","222","966780","0.0-5.0-1.0-2.9","2","1","gm906sze4a6484v","","null","","","","null","","","","","","","","","","","","","","","","","","","","","","","","","","","","","","","","","","","","","","","","","",""
"audio-keyboard-response","223","968871","0.0-5.0-1.0-3.9","2","1","gm906sze4a6484v","","null","","sounds/sentences/left/14_03_cfSWS.wav","","null","","","","","","","","","","","","","","","","","","","","","","","","","","","","","","","","","","","","","","","","","",""
"html-keyboard-response","224","969890","0.0-5.0-1.0-4.9","2","1","gm906sze4a6484v","","null","","","","null","","","","","","","","","","","","","","","","","","","","","","","","","","","","","","","","","","","","","","","","","",""
"html-button-response","225","971970","0.0-5.0-1.0-5.9","2","1","gm906sze4a6484v","","1559.6000000238419","","<p>Press the button below when you are ready to continue.</p>","0","","","","","","","","","","","","","","","","","","","","","","","","","","","","","","","","","","","","","","","","","","",""
"html-keyboard-response","226","1015232","0.0-6.0-0.0","2","1","gm906sze4a6484v","","42751.40000003576","","<p>In this part of the study, you will hear sounds similar to those you just heard.</p><p>Please focus on these sounds, as you may be asked questions about them later.</p><p>Occasionally, the sounds will pause for up to two seconds. When this happens, please press SPACEBAR as quickly as you can.</br>This helps ensure that you are paying attention to the sounds.</p><p>This part of the study will take about 12 minutes to complete, and you will be given the opportunity to take a couple of short breaks every few minutes.</p><p><strong>Press SPACEBAR to begin</strong></p>","","32","","","","","","","","","","","","","","","","","","","","","","","","","","","","","","","","","","","","","","","","","",""
"html-keyboard-response","227","1016234","0.0-6.0-1.0-0.0","2","1","gm906sze4a6484v","","null","","<p style=""font-size: 40px;"">+</p>","","null","","","","","","","","","","","","","","","","","","","","","","","","","","","","","","","","","","","","","","","","","",""
"html-keyboard-response","228","1201240","0.0-6.0-1.0-1.0","2","1","gm906sze4a6484v","","null","","","","null","","","SL-TRAIN","","","","","","","","","","","","","","1","null","1960.3999999761581","sounds/B/TRAIN/SEQ__10.mp3","3","","","","","","","","","","","","","","","","","","","","",""
"html-button-response","229","1208385","0.0-6.0-1.0-2.0","2","1","gm906sze4a6484v","","7143.5","","<p>You may take a short break if you wish.</p>","0","","","","","","","","","","","","","","","","","","","","","","","","","","","","","","","","","","","","","","","","","","",""
"html-keyboard-response","230","1209387","0.0-6.0-1.0-3.0","2","1","gm906sze4a6484v","","null","","<p style=""font-size: 40px;"">+</p>","","null","","","","","","","","","","","","","","","","","","","","","","","","","","","","","","","","","","","","","","","","","",""
"html-keyboard-response","231","1394390","0.0-6.0-1.0-4.0","2","1","gm906sze4a6484v","","null","","","","null","","","SL-TRAIN","","","","","","","","","","","","","","0","1483.300000011921","1300.300000011921","sounds/B/TRAIN/SEQ__08.mp3","5","","","","","","","","","","","","","","","","","","","","",""
"html-button-response","232","1397865","0.0-6.0-1.0-5.0","2","1","gm906sze4a6484v","","3472.900000035763","","<p>You may take a short break if you wish.</p>","0","","","","","","","","","","","","","","","","","","","","","","","","","","","","","","","","","","","","","","","","","","",""
"html-keyboard-response","233","1398867","0.0-6.0-1.0-6.0","2","1","gm906sze4a6484v","","null","","<p style=""font-size: 40px;"">+</p>","","null","","","","","","","","","","","","","","","","","","","","","","","","","","","","","","","","","","","","","","","","","",""
"html-keyboard-response","234","1583874","0.0-6.0-1.0-7.0","2","1","gm906sze4a6484v","","null","","","","null","","","SL-TRAIN","","","","","","","","","","","","","","1","null","1253.5999999642372","sounds/B/TRAIN/SEQ__11.mp3","3","","","","","","","","","","","","","","","","","","","","",""
"html-button-response","235","1587603","0.0-6.0-1.0-8.0","2","1","gm906sze4a6484v","","3727.699999988079","","<p>You may take a short break if you wish.</p>","0","","","","","","","","","","","","","","","","","","","","","","","","","","","","","","","","","","","","","","","","","","",""
"html-keyboard-response","236","1588604","0.0-6.0-1.0-9.0","2","1","gm906sze4a6484v","","null","","<p style=""font-size: 40px;"">+</p>","","null","","","","","","","","","","","","","","","","","","","","","","","","","","","","","","","","","","","","","","","","","",""
"html-keyboard-response","237","1773609","0.0-6.0-1.0-10.0","2","1","gm906sze4a6484v","","null","","","","null","","","SL-TRAIN","","","","","","","","","","","","","","0","1710.699999988079","1277.4000000357628","sounds/B/TRAIN/SEQ__04.mp3","8","","","","","","","","","","","","","","","","","","","","",""
"html-button-response","238","1776491","0.0-6.0-1.0-11.0","2","1","gm906sze4a6484v","","2880.899999976158","","<p>You may take a short break if you wish.</p>","0","","","","","","","","","","","","","","","","","","","","","","","","","","","","","","","","","","","","","","","","","","",""
"html-button-response","239","1801918","0.0-7.0-0.0","2","1","gm906sze4a6484v","","25425.099999964237","","<p>Welcome to the second part of the study. This is a <u>familiarity task</u>.</p><p>You will now hear short sounds and will be asked to rate how familiar they sound to you <b>based on what you heard in the previous part of the study</b>.</p><p>You will rate 12 sounds in total.</p>","0","","","","","","","","","","","","","","","","","","","","","","","","","","","","","","","","","","","","","","","","","","",""
"html-keyboard-response","240","1802919","0.0-7.0-1.0-0.0","2","1","gm906sze4a6484v","","null","","","","null","","","","","","","","","","","","","","","","","","","","","","","","","","","","","","","","","","","","","","","","","",""
"audio-keyboard-response","241","1804053","0.0-7.0-1.0-1.0","2","1","gm906sze4a6484v","","null","","sounds/B/FAM/P004.mp3","","null","","","","","","","","","","","","","","","","","","","","","","","","","","","","","","","","","","","","","","","","","",""
"html-keyboard-response","242","1808859","0.0-7.0-1.0-2.0","2","1","gm906sze4a6484v","","4295.899999976158","","<p>How familiar did this sound to you?</p><p>1&nbsp;&nbsp;&nbsp;&nbsp;&nbsp;&nbsp;&nbsp;&nbsp;&nbsp;&nbsp;&nbsp;&nbsp;&nbsp;&nbsp;&nbsp;&nbsp;&nbsp;&nbsp;&nbsp;2&nbsp;&nbsp;&nbsp;&nbsp;&nbsp;&nbsp;&nbsp;&nbsp;&nbsp;&nbsp;&nbsp;&nbsp;&nbsp;&nbsp;&nbsp;&nbsp;&nbsp;&nbsp;&nbsp;3&nbsp;&nbsp;&nbsp;&nbsp;&nbsp;&nbsp;&nbsp;&nbsp;&nbsp;&nbsp;&nbsp;&nbsp;&nbsp;&nbsp;&nbsp;&nbsp;&nbsp;&nbsp;&nbsp;4</p><p style=""font-size:14px"">Not at all familiar&nbsp;&nbsp;&nbsp;&nbsp;A little familiar&nbsp;&nbsp;&nbsp;Moderately familiar&nbsp;&nbsp;&nbsp;Extremely familiar</p><p>(press the corresponding number on your keyboard)</p>","","52","","","FAM-RESPONSE","","","","","","","","","","","","","","","","","","","sounds/B/FAM/P004.mp3","partword","","","","","","","","","","","","","","","","","","",""
"html-keyboard-response","243","1810872","0.0-7.0-1.0-0.1","2","1","gm906sze4a6484v","","null","","","","null","","","","","","","","","","","","","","","","","","","","","","","","","","","","","","","","","","","","","","","","","",""
"audio-keyboard-response","244","1811823","0.0-7.0-1.0-1.1","2","1","gm906sze4a6484v","","null","","sounds/B/FAM/W003.mp3","","null","","","","","","","","","","","","","","","","","","","","","","","","","","","","","","","","","","","","","","","","","",""
"html-keyboard-response","245","1816475","0.0-7.0-1.0-2.1","2","1","gm906sze4a6484v","","4142.5","","<p>How familiar did this sound to you?</p><p>1&nbsp;&nbsp;&nbsp;&nbsp;&nbsp;&nbsp;&nbsp;&nbsp;&nbsp;&nbsp;&nbsp;&nbsp;&nbsp;&nbsp;&nbsp;&nbsp;&nbsp;&nbsp;&nbsp;2&nbsp;&nbsp;&nbsp;&nbsp;&nbsp;&nbsp;&nbsp;&nbsp;&nbsp;&nbsp;&nbsp;&nbsp;&nbsp;&nbsp;&nbsp;&nbsp;&nbsp;&nbsp;&nbsp;3&nbsp;&nbsp;&nbsp;&nbsp;&nbsp;&nbsp;&nbsp;&nbsp;&nbsp;&nbsp;&nbsp;&nbsp;&nbsp;&nbsp;&nbsp;&nbsp;&nbsp;&nbsp;&nbsp;4</p><p style=""font-size:14px"">Not at all familiar&nbsp;&nbsp;&nbsp;&nbsp;A little familiar&nbsp;&nbsp;&nbsp;Moderately familiar&nbsp;&nbsp;&nbsp;Extremely familiar</p><p>(press the corresponding number on your keyboard)</p>","","51","","","FAM-RESPONSE","","","","","","","","","","","","","","","","","","","sounds/B/FAM/W003.mp3","word","","","","","","","","","","","","","","","","","","",""
"html-keyboard-response","246","1818502","0.0-7.0-1.0-0.2","2","1","gm906sze4a6484v","","null","","","","null","","","","","","","","","","","","","","","","","","","","","","","","","","","","","","","","","","","","","","","","","",""
"audio-keyboard-response","247","1819453","0.0-7.0-1.0-1.2","2","1","gm906sze4a6484v","","null","","sounds/B/FAM/N002.mp3","","null","","","","","","","","","","","","","","","","","","","","","","","","","","","","","","","","","","","","","","","","","",""
"html-keyboard-response","248","1823256","0.0-7.0-1.0-2.2","2","1","gm906sze4a6484v","","3283.300000011921","","<p>How familiar did this sound to you?</p><p>1&nbsp;&nbsp;&nbsp;&nbsp;&nbsp;&nbsp;&nbsp;&nbsp;&nbsp;&nbsp;&nbsp;&nbsp;&nbsp;&nbsp;&nbsp;&nbsp;&nbsp;&nbsp;&nbsp;2&nbsp;&nbsp;&nbsp;&nbsp;&nbsp;&nbsp;&nbsp;&nbsp;&nbsp;&nbsp;&nbsp;&nbsp;&nbsp;&nbsp;&nbsp;&nbsp;&nbsp;&nbsp;&nbsp;3&nbsp;&nbsp;&nbsp;&nbsp;&nbsp;&nbsp;&nbsp;&nbsp;&nbsp;&nbsp;&nbsp;&nbsp;&nbsp;&nbsp;&nbsp;&nbsp;&nbsp;&nbsp;&nbsp;4</p><p style=""font-size:14px"">Not at all familiar&nbsp;&nbsp;&nbsp;&nbsp;A little familiar&nbsp;&nbsp;&nbsp;Moderately familiar&nbsp;&nbsp;&nbsp;Extremely familiar</p><p>(press the corresponding number on your keyboard)</p>","","50","","","FAM-RESPONSE","","","","","","","","","","","","","","","","","","","sounds/B/FAM/N002.mp3","nonword","","","","","","","","","","","","","","","","","","",""
"html-keyboard-response","249","1825292","0.0-7.0-1.0-0.3","2","1","gm906sze4a6484v","","null","","","","null","","","","","","","","","","","","","","","","","","","","","","","","","","","","","","","","","","","","","","","","","",""
"audio-keyboard-response","250","1826233","0.0-7.0-1.0-1.3","2","1","gm906sze4a6484v","","null","","sounds/B/FAM/P003.mp3","","null","","","","","","","","","","","","","","","","","","","","","","","","","","","","","","","","","","","","","","","","","",""
"html-keyboard-response","251","1827939","0.0-7.0-1.0-2.3","2","1","gm906sze4a6484v","","1186.300000011921","","<p>How familiar did this sound to you?</p><p>1&nbsp;&nbsp;&nbsp;&nbsp;&nbsp;&nbsp;&nbsp;&nbsp;&nbsp;&nbsp;&nbsp;&nbsp;&nbsp;&nbsp;&nbsp;&nbsp;&nbsp;&nbsp;&nbsp;2&nbsp;&nbsp;&nbsp;&nbsp;&nbsp;&nbsp;&nbsp;&nbsp;&nbsp;&nbsp;&nbsp;&nbsp;&nbsp;&nbsp;&nbsp;&nbsp;&nbsp;&nbsp;&nbsp;3&nbsp;&nbsp;&nbsp;&nbsp;&nbsp;&nbsp;&nbsp;&nbsp;&nbsp;&nbsp;&nbsp;&nbsp;&nbsp;&nbsp;&nbsp;&nbsp;&nbsp;&nbsp;&nbsp;4</p><p style=""font-size:14px"">Not at all familiar&nbsp;&nbsp;&nbsp;&nbsp;A little familiar&nbsp;&nbsp;&nbsp;Moderately familiar&nbsp;&nbsp;&nbsp;Extremely familiar</p><p>(press the corresponding number on your keyboard)</p>","","49","","","FAM-RESPONSE","","","","","","","","","","","","","","","","","","","sounds/B/FAM/P003.mp3","partword","","","","","","","","","","","","","","","","","","",""
"html-keyboard-response","252","1829952","0.0-7.0-1.0-0.4","2","1","gm906sze4a6484v","","null","","","","null","","","","","","","","","","","","","","","","","","","","","","","","","","","","","","","","","","","","","","","","","",""
"audio-keyboard-response","253","1830903","0.0-7.0-1.0-1.4","2","1","gm906sze4a6484v","","null","","sounds/B/FAM/P002.mp3","","null","","","","","","","","","","","","","","","","","","","","","","","","","","","","","","","","","","","","","","","","","",""
"html-keyboard-response","254","1840612","0.0-7.0-1.0-2.4","2","1","gm906sze4a6484v","","9191.800000011921","","<p>How familiar did this sound to you?</p><p>1&nbsp;&nbsp;&nbsp;&nbsp;&nbsp;&nbsp;&nbsp;&nbsp;&nbsp;&nbsp;&nbsp;&nbsp;&nbsp;&nbsp;&nbsp;&nbsp;&nbsp;&nbsp;&nbsp;2&nbsp;&nbsp;&nbsp;&nbsp;&nbsp;&nbsp;&nbsp;&nbsp;&nbsp;&nbsp;&nbsp;&nbsp;&nbsp;&nbsp;&nbsp;&nbsp;&nbsp;&nbsp;&nbsp;3&nbsp;&nbsp;&nbsp;&nbsp;&nbsp;&nbsp;&nbsp;&nbsp;&nbsp;&nbsp;&nbsp;&nbsp;&nbsp;&nbsp;&nbsp;&nbsp;&nbsp;&nbsp;&nbsp;4</p><p style=""font-size:14px"">Not at all familiar&nbsp;&nbsp;&nbsp;&nbsp;A little familiar&nbsp;&nbsp;&nbsp;Moderately familiar&nbsp;&nbsp;&nbsp;Extremely familiar</p><p>(press the corresponding number on your keyboard)</p>","","51","","","FAM-RESPONSE","","","","","","","","","","","","","","","","","","","sounds/B/FAM/P002.mp3","partword","","","","","","","","","","","","","","","","","","",""
"html-keyboard-response","255","1842630","0.0-7.0-1.0-0.5","2","1","gm906sze4a6484v","","null","","","","null","","","","","","","","","","","","","","","","","","","","","","","","","","","","","","","","","","","","","","","","","",""
"audio-keyboard-response","256","1843582","0.0-7.0-1.0-1.5","2","1","gm906sze4a6484v","","null","","sounds/B/FAM/N001.mp3","","null","","","","","","","","","","","","","","","","","","","","","","","","","","","","","","","","","","","","","","","","","",""
"html-keyboard-response","257","1845954","0.0-7.0-1.0-2.5","2","1","gm906sze4a6484v","","1863.7000000476837","","<p>How familiar did this sound to you?</p><p>1&nbsp;&nbsp;&nbsp;&nbsp;&nbsp;&nbsp;&nbsp;&nbsp;&nbsp;&nbsp;&nbsp;&nbsp;&nbsp;&nbsp;&nbsp;&nbsp;&nbsp;&nbsp;&nbsp;2&nbsp;&nbsp;&nbsp;&nbsp;&nbsp;&nbsp;&nbsp;&nbsp;&nbsp;&nbsp;&nbsp;&nbsp;&nbsp;&nbsp;&nbsp;&nbsp;&nbsp;&nbsp;&nbsp;3&nbsp;&nbsp;&nbsp;&nbsp;&nbsp;&nbsp;&nbsp;&nbsp;&nbsp;&nbsp;&nbsp;&nbsp;&nbsp;&nbsp;&nbsp;&nbsp;&nbsp;&nbsp;&nbsp;4</p><p style=""font-size:14px"">Not at all familiar&nbsp;&nbsp;&nbsp;&nbsp;A little familiar&nbsp;&nbsp;&nbsp;Moderately familiar&nbsp;&nbsp;&nbsp;Extremely familiar</p><p>(press the corresponding number on your keyboard)</p>","","49","","","FAM-RESPONSE","","","","","","","","","","","","","","","","","","","sounds/B/FAM/N001.mp3","nonword","","","","","","","","","","","","","","","","","","",""
"html-keyboard-response","258","1847980","0.0-7.0-1.0-0.6","2","1","gm906sze4a6484v","","null","","","","null","","","","","","","","","","","","","","","","","","","","","","","","","","","","","","","","","","","","","","","","","",""
"audio-keyboard-response","259","1848931","0.0-7.0-1.0-1.6","2","1","gm906sze4a6484v","","null","","sounds/B/FAM/W002.mp3","","null","","","","","","","","","","","","","","","","","","","","","","","","","","","","","","","","","","","","","","","","","",""
"html-keyboard-response","260","1851251","0.0-7.0-1.0-2.6","2","1","gm906sze4a6484v","","1810.199999988079","","<p>How familiar did this sound to you?</p><p>1&nbsp;&nbsp;&nbsp;&nbsp;&nbsp;&nbsp;&nbsp;&nbsp;&nbsp;&nbsp;&nbsp;&nbsp;&nbsp;&nbsp;&nbsp;&nbsp;&nbsp;&nbsp;&nbsp;2&nbsp;&nbsp;&nbsp;&nbsp;&nbsp;&nbsp;&nbsp;&nbsp;&nbsp;&nbsp;&nbsp;&nbsp;&nbsp;&nbsp;&nbsp;&nbsp;&nbsp;&nbsp;&nbsp;3&nbsp;&nbsp;&nbsp;&nbsp;&nbsp;&nbsp;&nbsp;&nbsp;&nbsp;&nbsp;&nbsp;&nbsp;&nbsp;&nbsp;&nbsp;&nbsp;&nbsp;&nbsp;&nbsp;4</p><p style=""font-size:14px"">Not at all familiar&nbsp;&nbsp;&nbsp;&nbsp;A little familiar&nbsp;&nbsp;&nbsp;Moderately familiar&nbsp;&nbsp;&nbsp;Extremely familiar</p><p>(press the corresponding number on your keyboard)</p>","","51","","","FAM-RESPONSE","","","","","","","","","","","","","","","","","","","sounds/B/FAM/W002.mp3","word","","","","","","","","","","","","","","","","","","",""
"html-keyboard-response","261","1853278","0.0-7.0-1.0-0.7","2","1","gm906sze4a6484v","","null","","","","null","","","","","","","","","","","","","","","","","","","","","","","","","","","","","","","","","","","","","","","","","",""
"audio-keyboard-response","262","1854221","0.0-7.0-1.0-1.7","2","1","gm906sze4a6484v","","null","","sounds/B/FAM/N003.mp3","","null","","","","","","","","","","","","","","","","","","","","","","","","","","","","","","","","","","","","","","","","","",""
"html-keyboard-response","263","1855614","0.0-7.0-1.0-2.7","2","1","gm906sze4a6484v","","883.5","","<p>How familiar did this sound to you?</p><p>1&nbsp;&nbsp;&nbsp;&nbsp;&nbsp;&nbsp;&nbsp;&nbsp;&nbsp;&nbsp;&nbsp;&nbsp;&nbsp;&nbsp;&nbsp;&nbsp;&nbsp;&nbsp;&nbsp;2&nbsp;&nbsp;&nbsp;&nbsp;&nbsp;&nbsp;&nbsp;&nbsp;&nbsp;&nbsp;&nbsp;&nbsp;&nbsp;&nbsp;&nbsp;&nbsp;&nbsp;&nbsp;&nbsp;3&nbsp;&nbsp;&nbsp;&nbsp;&nbsp;&nbsp;&nbsp;&nbsp;&nbsp;&nbsp;&nbsp;&nbsp;&nbsp;&nbsp;&nbsp;&nbsp;&nbsp;&nbsp;&nbsp;4</p><p style=""font-size:14px"">Not at all familiar&nbsp;&nbsp;&nbsp;&nbsp;A little familiar&nbsp;&nbsp;&nbsp;Moderately familiar&nbsp;&nbsp;&nbsp;Extremely familiar</p><p>(press the corresponding number on your keyboard)</p>","","49","","","FAM-RESPONSE","","","","","","","","","","","","","","","","","","","sounds/B/FAM/N003.mp3","nonword","","","","","","","","","","","","","","","","","","",""
"html-keyboard-response","264","1857634","0.0-7.0-1.0-0.8","2","1","gm906sze4a6484v","","null","","","","null","","","","","","","","","","","","","","","","","","","","","","","","","","","","","","","","","","","","","","","","","",""
"audio-keyboard-response","265","1858581","0.0-7.0-1.0-1.8","2","1","gm906sze4a6484v","","null","","sounds/B/FAM/N004.mp3","","null","","","","","","","","","","","","","","","","","","","","","","","","","","","","","","","","","","","","","","","","","",""
"html-keyboard-response","266","1859756","0.0-7.0-1.0-2.8","2","1","gm906sze4a6484v","","667.1999999880791","","<p>How familiar did this sound to you?</p><p>1&nbsp;&nbsp;&nbsp;&nbsp;&nbsp;&nbsp;&nbsp;&nbsp;&nbsp;&nbsp;&nbsp;&nbsp;&nbsp;&nbsp;&nbsp;&nbsp;&nbsp;&nbsp;&nbsp;2&nbsp;&nbsp;&nbsp;&nbsp;&nbsp;&nbsp;&nbsp;&nbsp;&nbsp;&nbsp;&nbsp;&nbsp;&nbsp;&nbsp;&nbsp;&nbsp;&nbsp;&nbsp;&nbsp;3&nbsp;&nbsp;&nbsp;&nbsp;&nbsp;&nbsp;&nbsp;&nbsp;&nbsp;&nbsp;&nbsp;&nbsp;&nbsp;&nbsp;&nbsp;&nbsp;&nbsp;&nbsp;&nbsp;4</p><p style=""font-size:14px"">Not at all familiar&nbsp;&nbsp;&nbsp;&nbsp;A little familiar&nbsp;&nbsp;&nbsp;Moderately familiar&nbsp;&nbsp;&nbsp;Extremely familiar</p><p>(press the corresponding number on your keyboard)</p>","","51","","","FAM-RESPONSE","","","","","","","","","","","","","","","","","","","sounds/B/FAM/N004.mp3","nonword","","","","","","","","","","","","","","","","","","",""
"html-keyboard-response","267","1861770","0.0-7.0-1.0-0.9","2","1","gm906sze4a6484v","","null","","","","null","","","","","","","","","","","","","","","","","","","","","","","","","","","","","","","","","","","","","","","","","",""
"audio-keyboard-response","268","1862711","0.0-7.0-1.0-1.9","2","1","gm906sze4a6484v","","null","","sounds/B/FAM/P001.mp3","","null","","","","","","","","","","","","","","","","","","","","","","","","","","","","","","","","","","","","","","","","","",""
"html-keyboard-response","269","1863702","0.0-7.0-1.0-2.9","2","1","gm906sze4a6484v","","471.9000000357628","","<p>How familiar did this sound to you?</p><p>1&nbsp;&nbsp;&nbsp;&nbsp;&nbsp;&nbsp;&nbsp;&nbsp;&nbsp;&nbsp;&nbsp;&nbsp;&nbsp;&nbsp;&nbsp;&nbsp;&nbsp;&nbsp;&nbsp;2&nbsp;&nbsp;&nbsp;&nbsp;&nbsp;&nbsp;&nbsp;&nbsp;&nbsp;&nbsp;&nbsp;&nbsp;&nbsp;&nbsp;&nbsp;&nbsp;&nbsp;&nbsp;&nbsp;3&nbsp;&nbsp;&nbsp;&nbsp;&nbsp;&nbsp;&nbsp;&nbsp;&nbsp;&nbsp;&nbsp;&nbsp;&nbsp;&nbsp;&nbsp;&nbsp;&nbsp;&nbsp;&nbsp;4</p><p style=""font-size:14px"">Not at all familiar&nbsp;&nbsp;&nbsp;&nbsp;A little familiar&nbsp;&nbsp;&nbsp;Moderately familiar&nbsp;&nbsp;&nbsp;Extremely familiar</p><p>(press the corresponding number on your keyboard)</p>","","50","","","FAM-RESPONSE","","","","","","","","","","","","","","","","","","","sounds/B/FAM/P001.mp3","partword","","","","","","","","","","","","","","","","","","",""
"html-keyboard-response","270","1865724","0.0-7.0-1.0-0.10","2","1","gm906sze4a6484v","","null","","","","null","","","","","","","","","","","","","","","","","","","","","","","","","","","","","","","","","","","","","","","","","",""
"audio-keyboard-response","271","1866661","0.0-7.0-1.0-1.10","2","1","gm906sze4a6484v","","null","","sounds/B/FAM/W001.mp3","","null","","","","","","","","","","","","","","","","","","","","","","","","","","","","","","","","","","","","","","","","","",""
"html-keyboard-response","272","1867797","0.0-7.0-1.0-2.10","2","1","gm906sze4a6484v","","616.5","","<p>How familiar did this sound to you?</p><p>1&nbsp;&nbsp;&nbsp;&nbsp;&nbsp;&nbsp;&nbsp;&nbsp;&nbsp;&nbsp;&nbsp;&nbsp;&nbsp;&nbsp;&nbsp;&nbsp;&nbsp;&nbsp;&nbsp;2&nbsp;&nbsp;&nbsp;&nbsp;&nbsp;&nbsp;&nbsp;&nbsp;&nbsp;&nbsp;&nbsp;&nbsp;&nbsp;&nbsp;&nbsp;&nbsp;&nbsp;&nbsp;&nbsp;3&nbsp;&nbsp;&nbsp;&nbsp;&nbsp;&nbsp;&nbsp;&nbsp;&nbsp;&nbsp;&nbsp;&nbsp;&nbsp;&nbsp;&nbsp;&nbsp;&nbsp;&nbsp;&nbsp;4</p><p style=""font-size:14px"">Not at all familiar&nbsp;&nbsp;&nbsp;&nbsp;A little familiar&nbsp;&nbsp;&nbsp;Moderately familiar&nbsp;&nbsp;&nbsp;Extremely familiar</p><p>(press the corresponding number on your keyboard)</p>","","49","","","FAM-RESPONSE","","","","","","","","","","","","","","","","","","","sounds/B/FAM/W001.mp3","word","","","","","","","","","","","","","","","","","","",""
"html-keyboard-response","273","1869810","0.0-7.0-1.0-0.11","2","1","gm906sze4a6484v","","null","","","","null","","","","","","","","","","","","","","","","","","","","","","","","","","","","","","","","","","","","","","","","","",""
"audio-keyboard-response","274","1870751","0.0-7.0-1.0-1.11","2","1","gm906sze4a6484v","","null","","sounds/B/FAM/W004.mp3","","null","","","","","","","","","","","","","","","","","","","","","","","","","","","","","","","","","","","","","","","","","",""
"html-keyboard-response","275","1872162","0.0-7.0-1.0-2.11","2","1","gm906sze4a6484v","","901.9000000357628","","<p>How familiar did this sound to you?</p><p>1&nbsp;&nbsp;&nbsp;&nbsp;&nbsp;&nbsp;&nbsp;&nbsp;&nbsp;&nbsp;&nbsp;&nbsp;&nbsp;&nbsp;&nbsp;&nbsp;&nbsp;&nbsp;&nbsp;2&nbsp;&nbsp;&nbsp;&nbsp;&nbsp;&nbsp;&nbsp;&nbsp;&nbsp;&nbsp;&nbsp;&nbsp;&nbsp;&nbsp;&nbsp;&nbsp;&nbsp;&nbsp;&nbsp;3&nbsp;&nbsp;&nbsp;&nbsp;&nbsp;&nbsp;&nbsp;&nbsp;&nbsp;&nbsp;&nbsp;&nbsp;&nbsp;&nbsp;&nbsp;&nbsp;&nbsp;&nbsp;&nbsp;4</p><p style=""font-size:14px"">Not at all familiar&nbsp;&nbsp;&nbsp;&nbsp;A little familiar&nbsp;&nbsp;&nbsp;Moderately familiar&nbsp;&nbsp;&nbsp;Extremely familiar</p><p>(press the corresponding number on your keyboard)</p>","","51","","","FAM-RESPONSE","","","","","","","","","","","","","","","","","","","sounds/B/FAM/W004.mp3","word","","","","","","","","","","","","","","","","","","",""
"html-button-response","276","1922219","0.0-8.0-0.0","2","1","gm906sze4a6484v","","49038.80000001192","","<p>You will now listen to longer sound sequences.</p><p>Each sound sequence will last about 16 seconds.</p><p>On each trial, you will be given a <u>TARGET SOUND</u>. Your task is to listen very carefully for this sound.</p><p>Every time you hear the <u>TARGET SOUND</u>, you will press the <b>SPACEBAR</b> as quickly and accurately as you can.</p>","0","","","","","","","","","","","","","","","","","","","","","","","","","","","","","","","","","","","","","","","","","","",""
"html-button-response","277","1942514","0.0-8.0-1.0","2","1","gm906sze4a6484v","","20041.400000035763","","<p>It is very important that you make your responses as quickly and accurately as possible.</p><p>To help you make your responses, you will be able to listen to the <u>TARGET SOUND</u> at the beginning of each trial.</p><p>There will be 36 total trials.</p><p><b>Note: This is meant to be a difficult task. We simply want you to try your best.</p>","0","","","","","","","","","","","","","","","","","","","","","","","","","","","","","","","","","","","","","","","","","","",""
"html-button-response","278","1944653","0.0-8.0-2.0-0.0","2","1","gm906sze4a6484v","","1883.2000000476837","","<p>Trial 1 of 36</p>","0","","","","","","","","","","","","","","","","","","","","","","","","","NI","sounds/syllables/ni_SWS.wav","1200,3900,6600,11100","2","","","","","","","","","","","","","","",""
"html-keyboard-response","279","1948131","0.0-8.0-2.0-1.0","2","1","gm906sze4a6484v","","3477.699999988079","","","","80","","","","","","","","","","","","","","","","","","","","","","","","NI","","1200,3900,6600,11100","2","","","","","","","","","","","","","","",""
"audio-keyboard-response","280","1948623","0.0-8.0-2.0-2.0-0.0","2","1","gm906sze4a6484v","","null","","sounds/syllables/ni_SWS.wav","","null","","","","","","","","","","","","","","","","","","","","","","","","","","","","","","","","","","","","","","","","","",""
"html-keyboard-response","281","1953505","0.0-8.0-2.0-2.0-1.0","2","1","gm906sze4a6484v","","4881.5","","<p>To replay the <u>TARGET SOUND</u>, press P.</p> When you are ready to begin, press SPACEBAR.","","80","","","","","","","","","","","","","","","","","","","","","","","","","","","","","","","","","","","","","","","","","",""
"audio-keyboard-response","282","1954322","0.0-8.0-2.0-2.1-0.1","2","1","gm906sze4a6484v","","null","","sounds/syllables/ni_SWS.wav","","null","","","","","","","","","","","","","","","","","","","","","","","","","","","","","","","","","","","","","","","","","",""
"html-keyboard-response","283","1955210","0.0-8.0-2.0-2.1-1.1","2","1","gm906sze4a6484v","","887.6999999880791","","<p>To replay the <u>TARGET SOUND</u>, press P.</p> When you are ready to begin, press SPACEBAR.","","32","","","","","","","","","","","","","","","","","","","","","","","","","","","","","","","","","","","","","","","","","",""
"audio-keyboard-response","284","1970163","0.0-8.0-2.0-3.0","2","1","gm906sze4a6484v","","672","","sounds/B/TD/NI_01_TD.mp3","","32","","","TD_SUMMARY","","","","","","","","","","","","","","","","","","","","","NI","","1200,3900,6600,11100","2","1200","3900","6600","11100","640","522.6000000238419","477.60000002384186","490.5","669.1000000238419_1840_4422.600000023842_7077.600000023842_9703.600000023842_11590.5_13316.300000011921","2","","","","",""
"html-button-response","285","1977192","0.0-8.0-2.0-0.1","2","1","gm906sze4a6484v","","7024.799999952316","","<p>Trial 2 of 36</p>","0","","","","","","","","","","","","","","","","","","","","","","","","","RE","sounds/syllables/re_SWS.wav","1500,3300,7800,13200","3","","","","","","","","","","","","","","",""
"html-keyboard-response","286","1980507","0.0-8.0-2.0-1.1","2","1","gm906sze4a6484v","","3313.100000023842","","","","80","","","","","","","","","","","","","","","","","","","","","","","","RE","","1500,3300,7800,13200","3","","","","","","","","","","","","","","",""
"audio-keyboard-response","287","1980812","0.0-8.0-2.0-2.2-0.2","2","1","gm906sze4a6484v","","null","","sounds/syllables/re_SWS.wav","","null","","","","","","","","","","","","","","","","","","","","","","","","","","","","","","","","","","","","","","","","","",""
"html-keyboard-response","288","1981612","0.0-8.0-2.0-2.2-1.2","2","1","gm906sze4a6484v","","803.3000000119209","","<p>To replay the <u>TARGET SOUND</u>, press P.</p> When you are ready to begin, press SPACEBAR.","","32","","","","","","","","","","","","","","","","","","","","","","","","","","","","","","","","","","","","","","","","","",""
"audio-keyboard-response","289","1996569","0.0-8.0-2.0-3.1","2","1","gm906sze4a6484v","","1411","","sounds/B/TD/RE_08_TD.mp3","","32","","","TD_SUMMARY","","","","","","","","","","","","","","","","","","","","","RE","","1500,3300,7800,13200","3","1500","3300","7800","13200","633.8999999761581","393.5999999642372","null","1115.800000011921","_______1413.800000011921_1893.800000011921_2133.899999976158_3229.399999976158_3484_3693.599999964237_4894.300000011921_6890.300000011921_7534.899999976158_7774.800000011921_9121.899999976158_9905_10174.599999964237_11555.199999988079_12485.5_14315.800000011921","1","","","","",""
"html-button-response","290","1998708","0.0-8.0-2.0-0.2","2","1","gm906sze4a6484v","","2135.099999964237","","<p>Trial 3 of 36</p>","0","","","","","","","","","","","","","","","","","","","","","","","","","TA","sounds/syllables/ta_SWS.wav","2400,7800,9600,11400","3","","","","","","","","","","","","","","",""
"html-keyboard-response","291","1999870","0.0-8.0-2.0-1.2","2","1","gm906sze4a6484v","","1160.5","","","","80","","","","","","","","","","","","","","","","","","","","","","","","TA","","2400,7800,9600,11400","3","","","","","","","","","","","","","","",""
"audio-keyboard-response","292","2000168","0.0-8.0-2.0-2.3-0.3","2","1","gm906sze4a6484v","","null","","sounds/syllables/ta_SWS.wav","","null","","","","","","","","","","","","","","","","","","","","","","","","","","","","","","","","","","","","","","","","","",""
"html-keyboard-response","293","2001476","0.0-8.0-2.0-2.3-1.3","2","1","gm906sze4a6484v","","1307.5","","<p>To replay the <u>TARGET SOUND</u>, press P.</p> When you are ready to begin, press SPACEBAR.","","80","","","","","","","","","","","","","","","","","","","","","","","","","","","","","","","","","","","","","","","","","",""
"audio-keyboard-response","294","2002278","0.0-8.0-2.0-2.4-0.4","2","1","gm906sze4a6484v","","null","","sounds/syllables/ta_SWS.wav","","null","","","","","","","","","","","","","","","","","","","","","","","","","","","","","","","","","","","","","","","","","",""
"html-keyboard-response","295","2004596","0.0-8.0-2.0-2.4-1.4","2","1","gm906sze4a6484v","","2315.800000011921","","<p>To replay the <u>TARGET SOUND</u>, press P.</p> When you are ready to begin, press SPACEBAR.","","32","","","","","","","","","","","","","","","","","","","","","","","","","","","","","","","","","","","","","","","","","",""
"audio-keyboard-response","296","2019549","0.0-8.0-2.0-3.2","2","1","gm906sze4a6484v","","5048","","sounds/B/TD/TA_01_TD.mp3","","32","","","TD_SUMMARY","","","","","","","","","","","","","","","","","","","","","TA","","2400,7800,9600,11400","3","2400","7800","9600","11400","null","1118","null","null","_______________________5047.5_8918_12652.399999976158_14196.199999988079","2","","","","",""
"html-button-response","297","2027712","0.0-8.0-2.0-0.3","2","1","gm906sze4a6484v","","8160.099999964237","","<p>Trial 4 of 36</p>","0","","","","","","","","","","","","","","","","","","","","","","","","","GE","sounds/syllables/ge_SWS.wav","3600,6300,9000,11700","1","","","","","","","","","","","","","","",""
"html-keyboard-response","298","2028628","0.0-8.0-2.0-1.3","2","1","gm906sze4a6484v","","913.2999999523163","","","","80","","","","","","","","","","","","","","","","","","","","","","","","GE","","3600,6300,9000,11700","1","","","","","","","","","","","","","","",""
"audio-keyboard-response","299","2028928","0.0-8.0-2.0-2.5-0.5","2","1","gm906sze4a6484v","","null","","sounds/syllables/ge_SWS.wav","","null","","","","","","","","","","","","","","","","","","","","","","","","","","","","","","","","","","","","","","","","","",""
"html-keyboard-response","300","2029588","0.0-8.0-2.0-2.5-1.5","2","1","gm906sze4a6484v","","658.3000000119209","","<p>To replay the <u>TARGET SOUND</u>, press P.</p> When you are ready to begin, press SPACEBAR.","","80","","","","","","","","","","","","","","","","","","","","","","","","","","","","","","","","","","","","","","","","","",""
"audio-keyboard-response","301","2030408","0.0-8.0-2.0-2.6-0.6","2","1","gm906sze4a6484v","","null","","sounds/syllables/ge_SWS.wav","","null","","","","","","","","","","","","","","","","","","","","","","","","","","","","","","","","","","","","","","","","","",""
"html-keyboard-response","302","2030909","0.0-8.0-2.0-2.6-1.6","2","1","gm906sze4a6484v","","499","","<p>To replay the <u>TARGET SOUND</u>, press P.</p> When you are ready to begin, press SPACEBAR.","","32","","","","","","","","","","","","","","","","","","","","","","","","","","","","","","","","","","","","","","","","","",""
"audio-keyboard-response","303","2045883","0.0-8.0-2.0-3.3","2","1","gm906sze4a6484v","","3240","","sounds/B/TD/GE_08_TD.mp3","","32","","","TD_SUMMARY","","","","","","","","","","","","","","","","","","","","","GE","","3600,6300,9000,11700","1","3600","6300","9000","11700","890.0999999642372","null","801.3999999761581","null","___________________________3247.599999964237_4490.099999964237_6321.799999952316_8331.299999952316_9801.399999976158_11391.5","2","","","","",""
"html-button-response","304","2084622","0.0-8.0-2.0-0.4","2","1","gm906sze4a6484v","","38735.200000047684","","<p>Trial 5 of 36</p>","0","","","","","","","","","","","","","","","","","","","","","","","","","RU","sounds/syllables/ru_SWS.wav","2400,6000,7800,13200","3","","","","","","","","","","","","","","",""
"html-keyboard-response","305","2086539","0.0-8.0-2.0-1.4","2","1","gm906sze4a6484v","","1915","","","","80","","","","","","","","","","","","","","","","","","","","","","","","RU","","2400,6000,7800,13200","3","","","","","","","","","","","","","","",""
"audio-keyboard-response","306","2087031","0.0-8.0-2.0-2.7-0.7","2","1","gm906sze4a6484v","","null","","sounds/syllables/ru_SWS.wav","","null","","","","","","","","","","","","","","","","","","","","","","","","","","","","","","","","","","","","","","","","","",""
"html-keyboard-response","307","2142634","0.0-8.0-2.0-2.7-1.7","2","1","gm906sze4a6484v","","55600.60000002384","","<p>To replay the <u>TARGET SOUND</u>, press P.</p> When you are ready to begin, press SPACEBAR.","","80","","","","","","","","","","","","","","","","","","","","","","","","","","","","","","","","","","","","","","","","","",""
"audio-keyboard-response","308","2144547","0.0-8.0-2.0-2.8-0.8","2","1","gm906sze4a6484v","","null","","sounds/syllables/ru_SWS.wav","","null","","","","","","","","","","","","","","","","","","","","","","","","","","","","","","","","","","","","","","","","","",""
"html-keyboard-response","309","2145169","0.0-8.0-2.0-2.8-1.8","2","1","gm906sze4a6484v","","620.7000000476837","","<p>To replay the <u>TARGET SOUND</u>, press P.</p> When you are ready to begin, press SPACEBAR.","","32","","","","","","","","","","","","","","","","","","","","","","","","","","","","","","","","","","","","","","","","","",""
"audio-keyboard-response","310","2160127","0.0-8.0-2.0-3.4","2","1","gm906sze4a6484v","","2592","","sounds/B/TD/RU_04_TD.mp3","","32","","","TD_SUMMARY","","","","","","","","","","","","","","","","","","","","","RU","","2400,6000,7800,13200","3","2400","6000","7800","13200","795.1000000238419","778.5","null","541.6999999880791","_________________________________2596.800000011921_3195.100000023842_5882.5_6778.5_7799_13263.399999976158_13741.699999988079","2","","","","",""
"html-button-response","311","2162142","0.0-8.0-2.0-0.5","2","1","gm906sze4a6484v","","2011.199999988079","","<p>Trial 6 of 36</p>","0","","","","","","","","","","","","","","","","","","","","","","","","","FE","sounds/syllables/fe_SWS.wav","1500,4200,6900,8700","3","","","","","","","","","","","","","","",""
"html-keyboard-response","312","2163620","0.0-8.0-2.0-1.5","2","1","gm906sze4a6484v","","1476.9000000357628","","","","80","","","","","","","","","","","","","","","","","","","","","","","","FE","","1500,4200,6900,8700","3","","","","","","","","","","","","","","",""
"audio-keyboard-response","313","2163927","0.0-8.0-2.0-2.9-0.9","2","1","gm906sze4a6484v","","null","","sounds/syllables/fe_SWS.wav","","null","","","","","","","","","","","","","","","","","","","","","","","","","","","","","","","","","","","","","","","","","",""
"html-keyboard-response","314","2164579","0.0-8.0-2.0-2.9-1.9","2","1","gm906sze4a6484v","","650.9000000357628","","<p>To replay the <u>TARGET SOUND</u>, press P.</p> When you are ready to begin, press SPACEBAR.","","80","","","","","","","","","","","","","","","","","","","","","","","","","","","","","","","","","","","","","","","","","",""
