"trial_type","trial_index","time_elapsed","internal_node_id","counterbalance","lang_instruct","ParticipantID","view_history","rt","url","stimulus","button_pressed","key_press","correctRESP","correct","designation","location","correctanswer","timeouts","pause_rt01","pause_rt02","train_file","numKeyPress","sound","fam_type","SYLLABLE","EXEMPLAR","TD_LOCS","TD_TYPE","TDLOC_01","TDLOC_02","TDLOC_03","TDLOC_04","TD_RT_01","TD_RT_02","TD_RT_03","TD_RT_04","TD_SUBJ_RTs","number_of_plays","responses","slider_start","response","question_order","syllable","syllable_type"
"pavlovia","0","4","0.0-0.0","3","0","11jln087yk8jl6a","","","","","","","","","","","","","","","","","","","","","","","","","","","","","","","","","","","","","",""
"instructions","1","53336","0.0-1.0","3","0","11jln087yk8jl6a","[{""page_index"":0,""viewing_time"":40916.299999952316},{""page_index"":1,""viewing_time"":12412.700000047684}]","53331.799999952316","","","","","","","","","","","","","","","","","","","","","","","","","","","","","","","","","","","",""
"external-html","2","79175","0.0-2.0","3","0","11jln087yk8jl6a","","25701","consent/consent.html","","","","","","","","","","","","","","","","","","","","","","","","","","","","","","","","","","",""
"html-button-response","3","118954","0.0-3.0-0.0-0.0","3","0","11jln087yk8jl6a","","39776.299999952316","","<p>Welcome to the study. You will first complete a short volume calibration and headphone check.</p><p>Please make sure you are in a quiet listening environment, that you are wearing headphones, and that your computer's volume is turned on.<p></p>","0","","","","","","","","","","","","","","","","","","","","","","","","","","","","","","","","",""
"html-button-response","4","125102","0.0-3.0-0.0-1.0","3","0","11jln087yk8jl6a","","5894.900000095367","","<p>The volume calibration will be first.</p><p>You will hear a thirty-second noise. Please adjust your computer's volume so that this noise is being presented at a comfortable level.<p></p>","0","","","","","","","","","","","","","","","","","","","","","","","","","","","","","","","","",""
"audio-button-response","5","143419","0.0-3.0-0.0-2.0","3","0","11jln087yk8jl6a","","17701","","audCalib/volumetest.mp3","0","","","","","","","","","","","","","","","","","","","","","","","","","","","","","","","","",""
"html-button-response","6","353475","0.0-3.0-1.0-0.0","3","0","11jln087yk8jl6a","","210059.60000014305","","<p>You will now complete a short headphone check.</p><p>On each trial, you will hear three tones. One of these tones will be quieter than the others. Your task is to identify whether the quiet tone occured first, second, or third.</p><p>There are six trials in total.<p></p>","0","","","","","","","","","","","","","","","","","","","","","","","","","","","","","","","","",""
"html-keyboard-response","7","354244","0.0-3.0-1.0-1.0-0.0","3","0","11jln087yk8jl6a","","null","","<div style=""font-size:60px;"">+</div>","","null","","","","","","","","","","","","","","","","","","","","","","","","","","","","","","","",""
"audio-button-response","8","360045","0.0-3.0-1.0-1.0-1.0","3","0","11jln087yk8jl6a","","5408","","audCalib/t3_2.mp3","2","","2","1","headphone-test","","","","","","","","","","","","","","","","","","","","","","","","","","","","",""
"html-keyboard-response","9","360815","0.0-3.0-1.0-1.0-0.1","3","0","11jln087yk8jl6a","","null","","<div style=""font-size:60px;"">+</div>","","null","","","","","","","","","","","","","","","","","","","","","","","","","","","","","","","",""
"audio-button-response","10","365933","0.0-3.0-1.0-1.0-1.1","3","0","11jln087yk8jl6a","","5109","","audCalib/t3_1.mp3","2","","2","1","headphone-test","","","","","","","","","","","","","","","","","","","","","","","","","","","","",""
"html-keyboard-response","11","366696","0.0-3.0-1.0-1.0-0.2","3","0","11jln087yk8jl6a","","null","","<div style=""font-size:60px;"">+</div>","","null","","","","","","","","","","","","","","","","","","","","","","","","","","","","","","","",""
"audio-button-response","12","372263","0.0-3.0-1.0-1.0-1.2","3","0","11jln087yk8jl6a","","5560","","audCalib/t1_2.mp3","0","","0","1","headphone-test","","","","","","","","","","","","","","","","","","","","","","","","","","","","",""
"html-keyboard-response","13","373026","0.0-3.0-1.0-1.0-0.3","3","0","11jln087yk8jl6a","","null","","<div style=""font-size:60px;"">+</div>","","null","","","","","","","","","","","","","","","","","","","","","","","","","","","","","","","",""
"audio-button-response","14","377520","0.0-3.0-1.0-1.0-1.3","3","0","11jln087yk8jl6a","","4488","","audCalib/t1_1.mp3","0","","0","1","headphone-test","","","","","","","","","","","","","","","","","","","","","","","","","","","","",""
"html-keyboard-response","15","378286","0.0-3.0-1.0-1.0-0.4","3","0","11jln087yk8jl6a","","null","","<div style=""font-size:60px;"">+</div>","","null","","","","","","","","","","","","","","","","","","","","","","","","","","","","","","","",""
"audio-button-response","16","382801","0.0-3.0-1.0-1.0-1.4","3","0","11jln087yk8jl6a","","4509","","audCalib/t2_2.mp3","1","","1","1","headphone-test","","","","","","","","","","","","","","","","","","","","","","","","","","","","",""
"html-keyboard-response","17","383566","0.0-3.0-1.0-1.0-0.5","3","0","11jln087yk8jl6a","","null","","<div style=""font-size:60px;"">+</div>","","null","","","","","","","","","","","","","","","","","","","","","","","","","","","","","","","",""
"audio-button-response","18","388037","0.0-3.0-1.0-1.0-1.5","3","0","11jln087yk8jl6a","","4461","","audCalib/t2_1.mp3","1","","1","1","headphone-test","","","","","","","","","","","","","","","","","","","","","","","","","","","","",""
"html-button-response","19","417249","0.0-3.0-2.0","3","0","11jln087yk8jl6a","","28952","","<p>The volume calibration and headphone check are now complete.</p>","0","","","","","","","","","","","","","","","","","","","","","","","","","","","","","","","","",""
"instructions","20","444613","0.0-4.0-0.0","3","0","11jln087yk8jl6a","[{""page_index"":0,""viewing_time"":2070.399999856949},{""page_index"":1,""viewing_time"":17371.800000190735},{""page_index"":2,""viewing_time"":7919.699999809265}]","27362.39999985695","","","","","","","","","","","","","","","","","","","","","","","","","","","","","","","","","","","",""
"audio-keyboard-response","21","445319","0.0-4.0-1.0-0.0","3","0","11jln087yk8jl6a","","null","","sounds/induction/right_rev/ni_SWS.wav","","null","","","","","","","","","","","","","","","","","","","","","","","","","","","","","","","",""
"html-button-response","22","447029","0.0-4.0-1.0-1.0","3","0","11jln087yk8jl6a","","1708.3999998569489","","Was the sound coming from the left or the right?","1","","","1","INDUCTION-JUDGMENT","right","1","","","","","","","","","","","","","","","","","","","","","","","","","","",""
"html-keyboard-response","23","448035","0.0-4.0-1.0-2.0","3","0","11jln087yk8jl6a","","null","","<p style=""color:#054d00;""><b>Correct!</b></p>","","null","","","","","","","","","","","","","","","","","","","","","","","","","","","","","","","",""
"audio-keyboard-response","24","448839","0.0-4.0-1.0-0.1","3","0","11jln087yk8jl6a","","null","","sounds/induction/right_rev/ti_SWS.wav","","null","","","","","","","","","","","","","","","","","","","","","","","","","","","","","","","",""
"html-button-response","25","450065","0.0-4.0-1.0-1.1","3","0","11jln087yk8jl6a","","1224.5","","Was the sound coming from the left or the right?","1","","","1","INDUCTION-JUDGMENT","right","1","","","","","","","","","","","","","","","","","","","","","","","","","","",""
"html-keyboard-response","26","451077","0.0-4.0-1.0-2.1","3","0","11jln087yk8jl6a","","null","","<p style=""color:#054d00;""><b>Correct!</b></p>","","null","","","","","","","","","","","","","","","","","","","","","","","","","","","","","","","",""
"audio-keyboard-response","27","451889","0.0-4.0-1.0-0.2","3","0","11jln087yk8jl6a","","null","","sounds/induction/left_rev/fe_SWS.wav","","null","","","","","","","","","","","","","","","","","","","","","","","","","","","","","","","",""
"html-button-response","28","453111","0.0-4.0-1.0-1.2","3","0","11jln087yk8jl6a","","1219.9000000953674","","Was the sound coming from the left or the right?","0","","","1","INDUCTION-JUDGMENT","left","0","","","","","","","","","","","","","","","","","","","","","","","","","","",""
"html-keyboard-response","29","454118","0.0-4.0-1.0-2.2","3","0","11jln087yk8jl6a","","null","","<p style=""color:#054d00;""><b>Correct!</b></p>","","null","","","","","","","","","","","","","","","","","","","","","","","","","","","","","","","",""
"audio-keyboard-response","30","454929","0.0-4.0-1.0-0.3","3","0","11jln087yk8jl6a","","null","","sounds/induction/left_rev/su_SWS.wav","","null","","","","","","","","","","","","","","","","","","","","","","","","","","","","","","","",""
"html-button-response","31","455878","0.0-4.0-1.0-1.3","3","0","11jln087yk8jl6a","","947.1999998092651","","Was the sound coming from the left or the right?","0","","","1","INDUCTION-JUDGMENT","left","0","","","","","","","","","","","","","","","","","","","","","","","","","","",""
"html-keyboard-response","32","456887","0.0-4.0-1.0-2.3","3","0","11jln087yk8jl6a","","null","","<p style=""color:#054d00;""><b>Correct!</b></p>","","null","","","","","","","","","","","","","","","","","","","","","","","","","","","","","","","",""
"audio-keyboard-response","33","457689","0.0-4.0-1.0-0.4","3","0","11jln087yk8jl6a","","null","","sounds/induction/right_rev/ti_SWS.wav","","null","","","","","","","","","","","","","","","","","","","","","","","","","","","","","","","",""
"html-button-response","34","458885","0.0-4.0-1.0-1.4","3","0","11jln087yk8jl6a","","1195.2000000476837","","Was the sound coming from the left or the right?","1","","","1","INDUCTION-JUDGMENT","right","1","","","","","","","","","","","","","","","","","","","","","","","","","","",""
"html-keyboard-response","35","459898","0.0-4.0-1.0-2.4","3","0","11jln087yk8jl6a","","null","","<p style=""color:#054d00;""><b>Correct!</b></p>","","null","","","","","","","","","","","","","","","","","","","","","","","","","","","","","","","",""
"audio-keyboard-response","36","460699","0.0-4.0-1.0-0.5","3","0","11jln087yk8jl6a","","null","","sounds/induction/left_rev/fu_SWS.wav","","null","","","","","","","","","","","","","","","","","","","","","","","","","","","","","","","",""
"html-button-response","37","462088","0.0-4.0-1.0-1.5","3","0","11jln087yk8jl6a","","1387.4000000953674","","Was the sound coming from the left or the right?","0","","","1","INDUCTION-JUDGMENT","left","0","","","","","","","","","","","","","","","","","","","","","","","","","","",""
"html-keyboard-response","38","463095","0.0-4.0-1.0-2.5","3","0","11jln087yk8jl6a","","null","","<p style=""color:#054d00;""><b>Correct!</b></p>","","null","","","","","","","","","","","","","","","","","","","","","","","","","","","","","","","",""
"audio-keyboard-response","39","463889","0.0-4.0-1.0-0.6","3","0","11jln087yk8jl6a","","null","","sounds/induction/right_rev/ko_SWS.wav","","null","","","","","","","","","","","","","","","","","","","","","","","","","","","","","","","",""
"html-button-response","40","464923","0.0-4.0-1.0-1.6","3","0","11jln087yk8jl6a","","1032.6000001430511","","Was the sound coming from the left or the right?","1","","","1","INDUCTION-JUDGMENT","right","1","","","","","","","","","","","","","","","","","","","","","","","","","","",""
"html-keyboard-response","41","465927","0.0-4.0-1.0-2.6","3","0","11jln087yk8jl6a","","null","","<p style=""color:#054d00;""><b>Correct!</b></p>","","null","","","","","","","","","","","","","","","","","","","","","","","","","","","","","","","",""
"audio-keyboard-response","42","466729","0.0-4.0-1.0-0.7","3","0","11jln087yk8jl6a","","null","","sounds/induction/left_rev/re_SWS.wav","","null","","","","","","","","","","","","","","","","","","","","","","","","","","","","","","","",""
"html-button-response","43","467578","0.0-4.0-1.0-1.7","3","0","11jln087yk8jl6a","","847.4000000953674","","Was the sound coming from the left or the right?","0","","","1","INDUCTION-JUDGMENT","left","0","","","","","","","","","","","","","","","","","","","","","","","","","","",""
"html-keyboard-response","44","468587","0.0-4.0-1.0-2.7","3","0","11jln087yk8jl6a","","null","","<p style=""color:#054d00;""><b>Correct!</b></p>","","null","","","","","","","","","","","","","","","","","","","","","","","","","","","","","","","",""
"audio-keyboard-response","45","469399","0.0-4.0-1.0-0.8","3","0","11jln087yk8jl6a","","null","","sounds/induction/left_rev/me_SWS.wav","","null","","","","","","","","","","","","","","","","","","","","","","","","","","","","","","","",""
"html-button-response","46","469970","0.0-4.0-1.0-1.8","3","0","11jln087yk8jl6a","","569.5999999046326","","Was the sound coming from the left or the right?","0","","","1","INDUCTION-JUDGMENT","left","0","","","","","","","","","","","","","","","","","","","","","","","","","","",""
"html-keyboard-response","47","470978","0.0-4.0-1.0-2.8","3","0","11jln087yk8jl6a","","null","","<p style=""color:#054d00;""><b>Correct!</b></p>","","null","","","","","","","","","","","","","","","","","","","","","","","","","","","","","","","",""
"audio-keyboard-response","48","471779","0.0-4.0-1.0-0.9","3","0","11jln087yk8jl6a","","null","","sounds/induction/right_rev/ko_SWS.wav","","null","","","","","","","","","","","","","","","","","","","","","","","","","","","","","","","",""
"html-button-response","49","472490","0.0-4.0-1.0-1.9","3","0","11jln087yk8jl6a","","709.2999999523163","","Was the sound coming from the left or the right?","1","","","1","INDUCTION-JUDGMENT","right","1","","","","","","","","","","","","","","","","","","","","","","","","","","",""
"html-keyboard-response","50","473494","0.0-4.0-1.0-2.9","3","0","11jln087yk8jl6a","","null","","<p style=""color:#054d00;""><b>Correct!</b></p>","","null","","","","","","","","","","","","","","","","","","","","","","","","","","","","","","","",""
"audio-keyboard-response","51","474289","0.0-4.0-1.0-0.10","3","0","11jln087yk8jl6a","","null","","sounds/induction/left_rev/ko_SWS.wav","","null","","","","","","","","","","","","","","","","","","","","","","","","","","","","","","","",""
"html-button-response","52","475093","0.0-4.0-1.0-1.10","3","0","11jln087yk8jl6a","","802.3999998569489","","Was the sound coming from the left or the right?","0","","","1","INDUCTION-JUDGMENT","left","0","","","","","","","","","","","","","","","","","","","","","","","","","","",""
"html-keyboard-response","53","476097","0.0-4.0-1.0-2.10","3","0","11jln087yk8jl6a","","null","","<p style=""color:#054d00;""><b>Correct!</b></p>","","null","","","","","","","","","","","","","","","","","","","","","","","","","","","","","","","",""
"audio-keyboard-response","54","476890","0.0-4.0-1.0-0.11","3","0","11jln087yk8jl6a","","null","","sounds/induction/right_rev/fu_SWS.wav","","null","","","","","","","","","","","","","","","","","","","","","","","","","","","","","","","",""
"html-button-response","55","477507","0.0-4.0-1.0-1.11","3","0","11jln087yk8jl6a","","616.3999998569489","","Was the sound coming from the left or the right?","1","","","1","INDUCTION-JUDGMENT","right","1","","","","","","","","","","","","","","","","","","","","","","","","","","",""
"html-keyboard-response","56","478517","0.0-4.0-1.0-2.11","3","0","11jln087yk8jl6a","","null","","<p style=""color:#054d00;""><b>Correct!</b></p>","","null","","","","","","","","","","","","","","","","","","","","","","","","","","","","","","","",""
"audio-keyboard-response","57","479329","0.0-4.0-1.0-0.12","3","0","11jln087yk8jl6a","","null","","sounds/induction/right_rev/me_SWS.wav","","null","","","","","","","","","","","","","","","","","","","","","","","","","","","","","","","",""
"html-button-response","58","480162","0.0-4.0-1.0-1.12","3","0","11jln087yk8jl6a","","831.2000000476837","","Was the sound coming from the left or the right?","1","","","1","INDUCTION-JUDGMENT","right","1","","","","","","","","","","","","","","","","","","","","","","","","","","",""
"html-keyboard-response","59","481177","0.0-4.0-1.0-2.12","3","0","11jln087yk8jl6a","","null","","<p style=""color:#054d00;""><b>Correct!</b></p>","","null","","","","","","","","","","","","","","","","","","","","","","","","","","","","","","","",""
"audio-keyboard-response","60","481979","0.0-4.0-1.0-0.13","3","0","11jln087yk8jl6a","","null","","sounds/induction/left_rev/su_SWS.wav","","null","","","","","","","","","","","","","","","","","","","","","","","","","","","","","","","",""
"html-button-response","61","482743","0.0-4.0-1.0-1.13","3","0","11jln087yk8jl6a","","762.2000000476837","","Was the sound coming from the left or the right?","0","","","1","INDUCTION-JUDGMENT","left","0","","","","","","","","","","","","","","","","","","","","","","","","","","",""
"html-keyboard-response","62","483748","0.0-4.0-1.0-2.13","3","0","11jln087yk8jl6a","","null","","<p style=""color:#054d00;""><b>Correct!</b></p>","","null","","","","","","","","","","","","","","","","","","","","","","","","","","","","","","","",""
"audio-keyboard-response","63","484539","0.0-4.0-1.0-0.14","3","0","11jln087yk8jl6a","","null","","sounds/induction/left_rev/me_SWS.wav","","null","","","","","","","","","","","","","","","","","","","","","","","","","","","","","","","",""
"html-button-response","64","485128","0.0-4.0-1.0-1.14","3","0","11jln087yk8jl6a","","587","","Was the sound coming from the left or the right?","0","","","1","INDUCTION-JUDGMENT","left","0","","","","","","","","","","","","","","","","","","","","","","","","","","",""
"html-keyboard-response","65","486136","0.0-4.0-1.0-2.14","3","0","11jln087yk8jl6a","","null","","<p style=""color:#054d00;""><b>Correct!</b></p>","","null","","","","","","","","","","","","","","","","","","","","","","","","","","","","","","","",""
"audio-keyboard-response","66","486939","0.0-4.0-1.0-0.15","3","0","11jln087yk8jl6a","","null","","sounds/induction/left_rev/fe_SWS.wav","","null","","","","","","","","","","","","","","","","","","","","","","","","","","","","","","","",""
"html-button-response","67","487558","0.0-4.0-1.0-1.15","3","0","11jln087yk8jl6a","","617.4000000953674","","Was the sound coming from the left or the right?","0","","","1","INDUCTION-JUDGMENT","left","0","","","","","","","","","","","","","","","","","","","","","","","","","","",""
"html-keyboard-response","68","488568","0.0-4.0-1.0-2.15","3","0","11jln087yk8jl6a","","null","","<p style=""color:#054d00;""><b>Correct!</b></p>","","null","","","","","","","","","","","","","","","","","","","","","","","","","","","","","","","",""
"audio-keyboard-response","69","489369","0.0-4.0-1.0-0.16","3","0","11jln087yk8jl6a","","null","","sounds/induction/left_rev/ru_SWS.wav","","null","","","","","","","","","","","","","","","","","","","","","","","","","","","","","","","",""
"html-button-response","70","489958","0.0-4.0-1.0-1.16","3","0","11jln087yk8jl6a","","584.2000000476837","","Was the sound coming from the left or the right?","0","","","1","INDUCTION-JUDGMENT","left","0","","","","","","","","","","","","","","","","","","","","","","","","","","",""
"html-keyboard-response","71","490968","0.0-4.0-1.0-2.16","3","0","11jln087yk8jl6a","","null","","<p style=""color:#054d00;""><b>Correct!</b></p>","","null","","","","","","","","","","","","","","","","","","","","","","","","","","","","","","","",""
"audio-keyboard-response","72","491769","0.0-4.0-1.0-0.17","3","0","11jln087yk8jl6a","","null","","sounds/induction/left_rev/fu_SWS.wav","","null","","","","","","","","","","","","","","","","","","","","","","","","","","","","","","","",""
"html-button-response","73","492313","0.0-4.0-1.0-1.17","3","0","11jln087yk8jl6a","","542.3000001907349","","Was the sound coming from the left or the right?","0","","","1","INDUCTION-JUDGMENT","left","0","","","","","","","","","","","","","","","","","","","","","","","","","","",""
"html-keyboard-response","74","493318","0.0-4.0-1.0-2.17","3","0","11jln087yk8jl6a","","null","","<p style=""color:#054d00;""><b>Correct!</b></p>","","null","","","","","","","","","","","","","","","","","","","","","","","","","","","","","","","",""
"audio-keyboard-response","75","494133","0.0-4.0-1.0-0.18","3","0","11jln087yk8jl6a","","null","","sounds/induction/right_rev/ru_SWS.wav","","null","","","","","","","","","","","","","","","","","","","","","","","","","","","","","","","",""
"html-button-response","76","495016","0.0-4.0-1.0-1.18","3","0","11jln087yk8jl6a","","881.5","","Was the sound coming from the left or the right?","1","","","1","INDUCTION-JUDGMENT","right","1","","","","","","","","","","","","","","","","","","","","","","","","","","",""
"html-keyboard-response","77","496021","0.0-4.0-1.0-2.18","3","0","11jln087yk8jl6a","","null","","<p style=""color:#054d00;""><b>Correct!</b></p>","","null","","","","","","","","","","","","","","","","","","","","","","","","","","","","","","","",""
"audio-keyboard-response","78","496823","0.0-4.0-1.0-0.19","3","0","11jln087yk8jl6a","","null","","sounds/induction/left_rev/ge_SWS.wav","","null","","","","","","","","","","","","","","","","","","","","","","","","","","","","","","","",""
"html-button-response","79","497716","0.0-4.0-1.0-1.19","3","0","11jln087yk8jl6a","","891.9000000953674","","Was the sound coming from the left or the right?","0","","","1","INDUCTION-JUDGMENT","left","0","","","","","","","","","","","","","","","","","","","","","","","","","","",""
"html-keyboard-response","80","498719","0.0-4.0-1.0-2.19","3","0","11jln087yk8jl6a","","null","","<p style=""color:#054d00;""><b>Correct!</b></p>","","null","","","","","","","","","","","","","","","","","","","","","","","","","","","","","","","",""
"audio-keyboard-response","81","499523","0.0-4.0-1.0-0.20","3","0","11jln087yk8jl6a","","null","","sounds/induction/left_rev/ge_SWS.wav","","null","","","","","","","","","","","","","","","","","","","","","","","","","","","","","","","",""
"html-button-response","82","500162","0.0-4.0-1.0-1.20","3","0","11jln087yk8jl6a","","637.7000000476837","","Was the sound coming from the left or the right?","0","","","1","INDUCTION-JUDGMENT","left","0","","","","","","","","","","","","","","","","","","","","","","","","","","",""
"html-keyboard-response","83","501171","0.0-4.0-1.0-2.20","3","0","11jln087yk8jl6a","","null","","<p style=""color:#054d00;""><b>Correct!</b></p>","","null","","","","","","","","","","","","","","","","","","","","","","","","","","","","","","","",""
"audio-keyboard-response","84","501983","0.0-4.0-1.0-0.21","3","0","11jln087yk8jl6a","","null","","sounds/induction/left_rev/ti_SWS.wav","","null","","","","","","","","","","","","","","","","","","","","","","","","","","","","","","","",""
"html-button-response","85","502517","0.0-4.0-1.0-1.21","3","0","11jln087yk8jl6a","","532.7999999523163","","Was the sound coming from the left or the right?","0","","","1","INDUCTION-JUDGMENT","left","0","","","","","","","","","","","","","","","","","","","","","","","","","","",""
"html-keyboard-response","86","503522","0.0-4.0-1.0-2.21","3","0","11jln087yk8jl6a","","null","","<p style=""color:#054d00;""><b>Correct!</b></p>","","null","","","","","","","","","","","","","","","","","","","","","","","","","","","","","","","",""
"audio-keyboard-response","87","504333","0.0-4.0-1.0-0.22","3","0","11jln087yk8jl6a","","null","","sounds/induction/left_rev/ru_SWS.wav","","null","","","","","","","","","","","","","","","","","","","","","","","","","","","","","","","",""
"html-button-response","88","504857","0.0-4.0-1.0-1.22","3","0","11jln087yk8jl6a","","522.6000001430511","","Was the sound coming from the left or the right?","0","","","1","INDUCTION-JUDGMENT","left","0","","","","","","","","","","","","","","","","","","","","","","","","","","",""
"html-keyboard-response","89","505862","0.0-4.0-1.0-2.22","3","0","11jln087yk8jl6a","","null","","<p style=""color:#054d00;""><b>Correct!</b></p>","","null","","","","","","","","","","","","","","","","","","","","","","","","","","","","","","","",""
"audio-keyboard-response","90","506663","0.0-4.0-1.0-0.23","3","0","11jln087yk8jl6a","","null","","sounds/induction/left_rev/ta_SWS.wav","","null","","","","","","","","","","","","","","","","","","","","","","","","","","","","","","","",""
"html-button-response","91","507122","0.0-4.0-1.0-1.23","3","0","11jln087yk8jl6a","","457.40000009536743","","Was the sound coming from the left or the right?","0","","","1","INDUCTION-JUDGMENT","left","0","","","","","","","","","","","","","","","","","","","","","","","","","","",""
"html-keyboard-response","92","508131","0.0-4.0-1.0-2.23","3","0","11jln087yk8jl6a","","null","","<p style=""color:#054d00;""><b>Correct!</b></p>","","null","","","","","","","","","","","","","","","","","","","","","","","","","","","","","","","",""
"audio-keyboard-response","93","508934","0.0-4.0-1.0-0.24","3","0","11jln087yk8jl6a","","null","","sounds/induction/left_rev/pu_SWS.wav","","null","","","","","","","","","","","","","","","","","","","","","","","","","","","","","","","",""
"html-button-response","94","509393","0.0-4.0-1.0-1.24","3","0","11jln087yk8jl6a","","459.09999990463257","","Was the sound coming from the left or the right?","0","","","1","INDUCTION-JUDGMENT","left","0","","","","","","","","","","","","","","","","","","","","","","","","","","",""
"html-keyboard-response","95","510401","0.0-4.0-1.0-2.24","3","0","11jln087yk8jl6a","","null","","<p style=""color:#054d00;""><b>Correct!</b></p>","","null","","","","","","","","","","","","","","","","","","","","","","","","","","","","","","","",""
"audio-keyboard-response","96","511213","0.0-4.0-1.0-0.25","3","0","11jln087yk8jl6a","","null","","sounds/induction/right_rev/fe_SWS.wav","","null","","","","","","","","","","","","","","","","","","","","","","","","","","","","","","","",""
"html-button-response","97","511839","0.0-4.0-1.0-1.25","3","0","11jln087yk8jl6a","","625.2000000476837","","Was the sound coming from the left or the right?","1","","","1","INDUCTION-JUDGMENT","right","1","","","","","","","","","","","","","","","","","","","","","","","","","","",""
"html-keyboard-response","98","512841","0.0-4.0-1.0-2.25","3","0","11jln087yk8jl6a","","null","","<p style=""color:#054d00;""><b>Correct!</b></p>","","null","","","","","","","","","","","","","","","","","","","","","","","","","","","","","","","",""
"audio-keyboard-response","99","513653","0.0-4.0-1.0-0.26","3","0","11jln087yk8jl6a","","null","","sounds/induction/right_rev/ge_SWS.wav","","null","","","","","","","","","","","","","","","","","","","","","","","","","","","","","","","",""
"html-button-response","100","514142","0.0-4.0-1.0-1.26","3","0","11jln087yk8jl6a","","487.80000019073486","","Was the sound coming from the left or the right?","1","","","1","INDUCTION-JUDGMENT","right","1","","","","","","","","","","","","","","","","","","","","","","","","","","",""
"html-keyboard-response","101","515151","0.0-4.0-1.0-2.26","3","0","11jln087yk8jl6a","","null","","<p style=""color:#054d00;""><b>Correct!</b></p>","","null","","","","","","","","","","","","","","","","","","","","","","","","","","","","","","","",""
"audio-keyboard-response","102","515963","0.0-4.0-1.0-0.27","3","0","11jln087yk8jl6a","","null","","sounds/induction/right_rev/pu_SWS.wav","","null","","","","","","","","","","","","","","","","","","","","","","","","","","","","","","","",""
"html-button-response","103","516451","0.0-4.0-1.0-1.27","3","0","11jln087yk8jl6a","","487.09999990463257","","Was the sound coming from the left or the right?","1","","","1","INDUCTION-JUDGMENT","right","1","","","","","","","","","","","","","","","","","","","","","","","","","","",""
"html-keyboard-response","104","517461","0.0-4.0-1.0-2.27","3","0","11jln087yk8jl6a","","null","","<p style=""color:#054d00;""><b>Correct!</b></p>","","null","","","","","","","","","","","","","","","","","","","","","","","","","","","","","","","",""
"audio-keyboard-response","105","518263","0.0-4.0-1.0-0.28","3","0","11jln087yk8jl6a","","null","","sounds/induction/right_rev/ge_SWS.wav","","null","","","","","","","","","","","","","","","","","","","","","","","","","","","","","","","",""
"html-button-response","106","518762","0.0-4.0-1.0-1.28","3","0","11jln087yk8jl6a","","497.89999985694885","","Was the sound coming from the left or the right?","1","","","1","INDUCTION-JUDGMENT","right","1","","","","","","","","","","","","","","","","","","","","","","","","","","",""
"html-keyboard-response","107","519772","0.0-4.0-1.0-2.28","3","0","11jln087yk8jl6a","","null","","<p style=""color:#054d00;""><b>Correct!</b></p>","","null","","","","","","","","","","","","","","","","","","","","","","","","","","","","","","","",""
"audio-keyboard-response","108","520573","0.0-4.0-1.0-0.29","3","0","11jln087yk8jl6a","","null","","sounds/induction/right_rev/me_SWS.wav","","null","","","","","","","","","","","","","","","","","","","","","","","","","","","","","","","",""
"html-button-response","109","521147","0.0-4.0-1.0-1.29","3","0","11jln087yk8jl6a","","572.9000000953674","","Was the sound coming from the left or the right?","1","","","1","INDUCTION-JUDGMENT","right","1","","","","","","","","","","","","","","","","","","","","","","","","","","",""
"html-keyboard-response","110","522152","0.0-4.0-1.0-2.29","3","0","11jln087yk8jl6a","","null","","<p style=""color:#054d00;""><b>Correct!</b></p>","","null","","","","","","","","","","","","","","","","","","","","","","","","","","","","","","","",""
"audio-keyboard-response","111","522963","0.0-4.0-1.0-0.30","3","0","11jln087yk8jl6a","","null","","sounds/induction/left_rev/pu_SWS.wav","","null","","","","","","","","","","","","","","","","","","","","","","","","","","","","","","","",""
"html-button-response","112","524237","0.0-4.0-1.0-1.30","3","0","11jln087yk8jl6a","","1272.2000000476837","","Was the sound coming from the left or the right?","0","","","1","INDUCTION-JUDGMENT","left","0","","","","","","","","","","","","","","","","","","","","","","","","","","",""
"html-keyboard-response","113","525241","0.0-4.0-1.0-2.30","3","0","11jln087yk8jl6a","","null","","<p style=""color:#054d00;""><b>Correct!</b></p>","","null","","","","","","","","","","","","","","","","","","","","","","","","","","","","","","","",""
"audio-keyboard-response","114","526053","0.0-4.0-1.0-0.31","3","0","11jln087yk8jl6a","","null","","sounds/induction/left_rev/ko_SWS.wav","","null","","","","","","","","","","","","","","","","","","","","","","","","","","","","","","","",""
"html-button-response","115","527035","0.0-4.0-1.0-1.31","3","0","11jln087yk8jl6a","","981.2999999523163","","Was the sound coming from the left or the right?","0","","","1","INDUCTION-JUDGMENT","left","0","","","","","","","","","","","","","","","","","","","","","","","","","","",""
"html-keyboard-response","116","528042","0.0-4.0-1.0-2.31","3","0","11jln087yk8jl6a","","null","","<p style=""color:#054d00;""><b>Correct!</b></p>","","null","","","","","","","","","","","","","","","","","","","","","","","","","","","","","","","",""
"audio-keyboard-response","117","528853","0.0-4.0-1.0-0.32","3","0","11jln087yk8jl6a","","null","","sounds/induction/right_rev/re_SWS.wav","","null","","","","","","","","","","","","","","","","","","","","","","","","","","","","","","","",""
"html-button-response","118","529854","0.0-4.0-1.0-1.32","3","0","11jln087yk8jl6a","","1000.3000001907349","","Was the sound coming from the left or the right?","1","","","1","INDUCTION-JUDGMENT","right","1","","","","","","","","","","","","","","","","","","","","","","","","","","",""
"html-keyboard-response","119","530861","0.0-4.0-1.0-2.32","3","0","11jln087yk8jl6a","","null","","<p style=""color:#054d00;""><b>Correct!</b></p>","","null","","","","","","","","","","","","","","","","","","","","","","","","","","","","","","","",""
"audio-keyboard-response","120","531663","0.0-4.0-1.0-0.33","3","0","11jln087yk8jl6a","","null","","sounds/induction/right_rev/su_SWS.wav","","null","","","","","","","","","","","","","","","","","","","","","","","","","","","","","","","",""
"html-button-response","121","532434","0.0-4.0-1.0-1.33","3","0","11jln087yk8jl6a","","770","","Was the sound coming from the left or the right?","1","","","1","INDUCTION-JUDGMENT","right","1","","","","","","","","","","","","","","","","","","","","","","","","","","",""
"html-keyboard-response","122","533441","0.0-4.0-1.0-2.33","3","0","11jln087yk8jl6a","","null","","<p style=""color:#054d00;""><b>Correct!</b></p>","","null","","","","","","","","","","","","","","","","","","","","","","","","","","","","","","","",""
"audio-keyboard-response","123","534254","0.0-4.0-1.0-0.34","3","0","11jln087yk8jl6a","","null","","sounds/induction/right_rev/su_SWS.wav","","null","","","","","","","","","","","","","","","","","","","","","","","","","","","","","","","",""
"html-button-response","124","534827","0.0-4.0-1.0-1.34","3","0","11jln087yk8jl6a","","572.2000000476837","","Was the sound coming from the left or the right?","1","","","1","INDUCTION-JUDGMENT","right","1","","","","","","","","","","","","","","","","","","","","","","","","","","",""
"html-keyboard-response","125","535831","0.0-4.0-1.0-2.34","3","0","11jln087yk8jl6a","","null","","<p style=""color:#054d00;""><b>Correct!</b></p>","","null","","","","","","","","","","","","","","","","","","","","","","","","","","","","","","","",""
"audio-keyboard-response","126","536643","0.0-4.0-1.0-0.35","3","0","11jln087yk8jl6a","","null","","sounds/induction/right_rev/ru_SWS.wav","","null","","","","","","","","","","","","","","","","","","","","","","","","","","","","","","","",""
"html-button-response","127","537137","0.0-4.0-1.0-1.35","3","0","11jln087yk8jl6a","","492.19999980926514","","Was the sound coming from the left or the right?","1","","","1","INDUCTION-JUDGMENT","right","1","","","","","","","","","","","","","","","","","","","","","","","","","","",""
"html-keyboard-response","128","538152","0.0-4.0-1.0-2.35","3","0","11jln087yk8jl6a","","null","","<p style=""color:#054d00;""><b>Correct!</b></p>","","null","","","","","","","","","","","","","","","","","","","","","","","","","","","","","","","",""
"audio-keyboard-response","129","538963","0.0-4.0-1.0-0.36","3","0","11jln087yk8jl6a","","null","","sounds/induction/right_rev/ta_SWS.wav","","null","","","","","","","","","","","","","","","","","","","","","","","","","","","","","","","",""
"html-button-response","130","539552","0.0-4.0-1.0-1.36","3","0","11jln087yk8jl6a","","588.1999998092651","","Was the sound coming from the left or the right?","1","","","1","INDUCTION-JUDGMENT","right","1","","","","","","","","","","","","","","","","","","","","","","","","","","",""
"html-keyboard-response","131","540562","0.0-4.0-1.0-2.36","3","0","11jln087yk8jl6a","","null","","<p style=""color:#054d00;""><b>Correct!</b></p>","","null","","","","","","","","","","","","","","","","","","","","","","","","","","","","","","","",""
"audio-keyboard-response","132","541374","0.0-4.0-1.0-0.37","3","0","11jln087yk8jl6a","","null","","sounds/induction/right_rev/ta_SWS.wav","","null","","","","","","","","","","","","","","","","","","","","","","","","","","","","","","","",""
"html-button-response","133","541900","0.0-4.0-1.0-1.37","3","0","11jln087yk8jl6a","","525.4000000953674","","Was the sound coming from the left or the right?","1","","","1","INDUCTION-JUDGMENT","right","1","","","","","","","","","","","","","","","","","","","","","","","","","","",""
"html-keyboard-response","134","542902","0.0-4.0-1.0-2.37","3","0","11jln087yk8jl6a","","null","","<p style=""color:#054d00;""><b>Correct!</b></p>","","null","","","","","","","","","","","","","","","","","","","","","","","","","","","","","","","",""
"audio-keyboard-response","135","543703","0.0-4.0-1.0-0.38","3","0","11jln087yk8jl6a","","null","","sounds/induction/right_rev/ni_SWS.wav","","null","","","","","","","","","","","","","","","","","","","","","","","","","","","","","","","",""
"html-button-response","136","544187","0.0-4.0-1.0-1.38","3","0","11jln087yk8jl6a","","483","","Was the sound coming from the left or the right?","1","","","1","INDUCTION-JUDGMENT","right","1","","","","","","","","","","","","","","","","","","","","","","","","","","",""
"html-keyboard-response","137","545192","0.0-4.0-1.0-2.38","3","0","11jln087yk8jl6a","","null","","<p style=""color:#054d00;""><b>Correct!</b></p>","","null","","","","","","","","","","","","","","","","","","","","","","","","","","","","","","","",""
"audio-keyboard-response","138","546003","0.0-4.0-1.0-0.39","3","0","11jln087yk8jl6a","","null","","sounds/induction/left_rev/ta_SWS.wav","","null","","","","","","","","","","","","","","","","","","","","","","","","","","","","","","","",""
"html-button-response","139","547262","0.0-4.0-1.0-1.39","3","0","11jln087yk8jl6a","","1257.6000001430511","","Was the sound coming from the left or the right?","0","","","1","INDUCTION-JUDGMENT","left","0","","","","","","","","","","","","","","","","","","","","","","","","","","",""
"html-keyboard-response","140","548272","0.0-4.0-1.0-2.39","3","0","11jln087yk8jl6a","","null","","<p style=""color:#054d00;""><b>Correct!</b></p>","","null","","","","","","","","","","","","","","","","","","","","","","","","","","","","","","","",""
"audio-keyboard-response","141","549083","0.0-4.0-1.0-0.40","3","0","11jln087yk8jl6a","","null","","sounds/induction/right_rev/fu_SWS.wav","","null","","","","","","","","","","","","","","","","","","","","","","","","","","","","","","","",""
"html-button-response","142","549947","0.0-4.0-1.0-1.40","3","0","11jln087yk8jl6a","","862.7999999523163","","Was the sound coming from the left or the right?","1","","","1","INDUCTION-JUDGMENT","right","1","","","","","","","","","","","","","","","","","","","","","","","","","","",""
"html-keyboard-response","143","550952","0.0-4.0-1.0-2.40","3","0","11jln087yk8jl6a","","null","","<p style=""color:#054d00;""><b>Correct!</b></p>","","null","","","","","","","","","","","","","","","","","","","","","","","","","","","","","","","",""
"audio-keyboard-response","144","551764","0.0-4.0-1.0-0.41","3","0","11jln087yk8jl6a","","null","","sounds/induction/left_rev/re_SWS.wav","","null","","","","","","","","","","","","","","","","","","","","","","","","","","","","","","","",""
"html-button-response","145","552490","0.0-4.0-1.0-1.41","3","0","11jln087yk8jl6a","","725.2000000476837","","Was the sound coming from the left or the right?","0","","","1","INDUCTION-JUDGMENT","left","0","","","","","","","","","","","","","","","","","","","","","","","","","","",""
"html-keyboard-response","146","553492","0.0-4.0-1.0-2.41","3","0","11jln087yk8jl6a","","null","","<p style=""color:#054d00;""><b>Correct!</b></p>","","null","","","","","","","","","","","","","","","","","","","","","","","","","","","","","","","",""
"audio-keyboard-response","147","554293","0.0-4.0-1.0-0.42","3","0","11jln087yk8jl6a","","null","","sounds/induction/right_rev/pu_SWS.wav","","null","","","","","","","","","","","","","","","","","","","","","","","","","","","","","","","",""
"html-button-response","148","554926","0.0-4.0-1.0-1.42","3","0","11jln087yk8jl6a","","632.7000000476837","","Was the sound coming from the left or the right?","1","","","1","INDUCTION-JUDGMENT","right","1","","","","","","","","","","","","","","","","","","","","","","","","","","",""
"html-keyboard-response","149","555931","0.0-4.0-1.0-2.42","3","0","11jln087yk8jl6a","","null","","<p style=""color:#054d00;""><b>Correct!</b></p>","","null","","","","","","","","","","","","","","","","","","","","","","","","","","","","","","","",""
"audio-keyboard-response","150","556733","0.0-4.0-1.0-0.43","3","0","11jln087yk8jl6a","","null","","sounds/induction/right_rev/fe_SWS.wav","","null","","","","","","","","","","","","","","","","","","","","","","","","","","","","","","","",""
"html-button-response","151","557439","0.0-4.0-1.0-1.43","3","0","11jln087yk8jl6a","","705.6000001430511","","Was the sound coming from the left or the right?","1","","","1","INDUCTION-JUDGMENT","right","1","","","","","","","","","","","","","","","","","","","","","","","","","","",""
"html-keyboard-response","152","558451","0.0-4.0-1.0-2.43","3","0","11jln087yk8jl6a","","null","","<p style=""color:#054d00;""><b>Correct!</b></p>","","null","","","","","","","","","","","","","","","","","","","","","","","","","","","","","","","",""
"audio-keyboard-response","153","559253","0.0-4.0-1.0-0.44","3","0","11jln087yk8jl6a","","null","","sounds/induction/left_rev/ni_SWS.wav","","null","","","","","","","","","","","","","","","","","","","","","","","","","","","","","","","",""
"html-button-response","154","559915","0.0-4.0-1.0-1.44","3","0","11jln087yk8jl6a","","661.1999998092651","","Was the sound coming from the left or the right?","0","","","1","INDUCTION-JUDGMENT","left","0","","","","","","","","","","","","","","","","","","","","","","","","","","",""
"html-keyboard-response","155","560921","0.0-4.0-1.0-2.44","3","0","11jln087yk8jl6a","","null","","<p style=""color:#054d00;""><b>Correct!</b></p>","","null","","","","","","","","","","","","","","","","","","","","","","","","","","","","","","","",""
"audio-keyboard-response","156","561733","0.0-4.0-1.0-0.45","3","0","11jln087yk8jl6a","","null","","sounds/induction/right_rev/re_SWS.wav","","null","","","","","","","","","","","","","","","","","","","","","","","","","","","","","","","",""
"html-button-response","157","562450","0.0-4.0-1.0-1.45","3","0","11jln087yk8jl6a","","715.9000000953674","","Was the sound coming from the left or the right?","1","","","1","INDUCTION-JUDGMENT","right","1","","","","","","","","","","","","","","","","","","","","","","","","","","",""
"html-keyboard-response","158","563451","0.0-4.0-1.0-2.45","3","0","11jln087yk8jl6a","","null","","<p style=""color:#054d00;""><b>Correct!</b></p>","","null","","","","","","","","","","","","","","","","","","","","","","","","","","","","","","","",""
"audio-keyboard-response","159","564253","0.0-4.0-1.0-0.46","3","0","11jln087yk8jl6a","","null","","sounds/induction/left_rev/ni_SWS.wav","","null","","","","","","","","","","","","","","","","","","","","","","","","","","","","","","","",""
"html-button-response","160","564879","0.0-4.0-1.0-1.46","3","0","11jln087yk8jl6a","","625.6999998092651","","Was the sound coming from the left or the right?","0","","","1","INDUCTION-JUDGMENT","left","0","","","","","","","","","","","","","","","","","","","","","","","","","","",""
"html-keyboard-response","161","565891","0.0-4.0-1.0-2.46","3","0","11jln087yk8jl6a","","null","","<p style=""color:#054d00;""><b>Correct!</b></p>","","null","","","","","","","","","","","","","","","","","","","","","","","","","","","","","","","",""
"audio-keyboard-response","162","566693","0.0-4.0-1.0-0.47","3","0","11jln087yk8jl6a","","null","","sounds/induction/left_rev/ti_SWS.wav","","null","","","","","","","","","","","","","","","","","","","","","","","","","","","","","","","",""
"html-button-response","163","567182","0.0-4.0-1.0-1.47","3","0","11jln087yk8jl6a","","487.7000000476837","","Was the sound coming from the left or the right?","0","","","1","INDUCTION-JUDGMENT","left","0","","","","","","","","","","","","","","","","","","","","","","","","","","",""
"html-keyboard-response","164","568191","0.0-4.0-1.0-2.47","3","0","11jln087yk8jl6a","","null","","<p style=""color:#054d00;""><b>Correct!</b></p>","","null","","","","","","","","","","","","","","","","","","","","","","","","","","","","","","","",""
"html-button-response","165","626705","0.0-5.0-0.0","3","0","11jln087yk8jl6a","","58003.39999985695","","<p>Thank you for your answers.</p><p>You will now listen to similar sounds. The main difference is that the sounds will be longer.</p><p>Just as before, you will be asked to judge whether the sound was coming from the left or the right.</p><p>There are 10 of these longer sounds in total.","0","","","","","","","","","","","","","","","","","","","","","","","","","","","","","","","","",""
"audio-keyboard-response","166","629989","0.0-5.0-1.0-0.0","3","0","11jln087yk8jl6a","","null","","sounds/sentences/right_rev/14_07_cfSWS.wav","","null","","","","","","","","","","","","","","","","","","","","","","","","","","","","","","","",""
"html-button-response","167","631648","0.0-5.0-1.0-1.0","3","0","11jln087yk8jl6a","","1657.6000001430511","","Was the sound coming from the left or the right?","1","","","1","INDUCTION-JUDGMENT","right","1","","","","","","","","","","","","","","","","","","","","","","","","","","",""
"html-keyboard-response","168","632667","0.0-5.0-1.0-2.0","3","0","11jln087yk8jl6a","","null","","<p style=""color:#054d00;""><b>Correct!</b></p>","","null","","","","","","","","","","","","","","","","","","","","","","","","","","","","","","","",""
"html-button-response","169","634760","0.0-5.0-1.0-3.0","3","0","11jln087yk8jl6a","","1582","","<p>Press the button below when you are ready to continue.</p>","0","","","","","","","","","","","","","","","","","","","","","","","","","","","","","","","","",""
"audio-keyboard-response","170","637879","0.0-5.0-1.0-0.1","3","0","11jln087yk8jl6a","","null","","sounds/sentences/left_rev/14_01_cfSWS.wav","","null","","","","","","","","","","","","","","","","","","","","","","","","","","","","","","","",""
"html-button-response","171","638585","0.0-5.0-1.0-1.1","3","0","11jln087yk8jl6a","","704.7999999523163","","Was the sound coming from the left or the right?","0","","","1","INDUCTION-JUDGMENT","left","0","","","","","","","","","","","","","","","","","","","","","","","","","","",""
"html-keyboard-response","172","639587","0.0-5.0-1.0-2.1","3","0","11jln087yk8jl6a","","null","","<p style=""color:#054d00;""><b>Correct!</b></p>","","null","","","","","","","","","","","","","","","","","","","","","","","","","","","","","","","",""
"html-button-response","173","641465","0.0-5.0-1.0-3.1","3","0","11jln087yk8jl6a","","1366.9000000953674","","<p>Press the button below when you are ready to continue.</p>","0","","","","","","","","","","","","","","","","","","","","","","","","","","","","","","","","",""
"audio-keyboard-response","174","644459","0.0-5.0-1.0-0.2","3","0","11jln087yk8jl6a","","null","","sounds/sentences/left_rev/14_05_cfSWS.wav","","null","","","","","","","","","","","","","","","","","","","","","","","","","","","","","","","",""
"html-button-response","175","645208","0.0-5.0-1.0-1.2","3","0","11jln087yk8jl6a","","747.9000000953674","","Was the sound coming from the left or the right?","0","","","1","INDUCTION-JUDGMENT","left","0","","","","","","","","","","","","","","","","","","","","","","","","","","",""
"html-keyboard-response","176","646217","0.0-5.0-1.0-2.2","3","0","11jln087yk8jl6a","","null","","<p style=""color:#054d00;""><b>Correct!</b></p>","","null","","","","","","","","","","","","","","","","","","","","","","","","","","","","","","","",""
"html-button-response","177","647502","0.0-5.0-1.0-3.2","3","0","11jln087yk8jl6a","","774.0999999046326","","<p>Press the button below when you are ready to continue.</p>","0","","","","","","","","","","","","","","","","","","","","","","","","","","","","","","","","",""
"audio-keyboard-response","178","650259","0.0-5.0-1.0-0.3","3","0","11jln087yk8jl6a","","null","","sounds/sentences/right_rev/14_08_cfSWS.wav","","null","","","","","","","","","","","","","","","","","","","","","","","","","","","","","","","",""
"html-button-response","179","651185","0.0-5.0-1.0-1.3","3","0","11jln087yk8jl6a","","924.7999999523163","","Was the sound coming from the left or the right?","1","","","1","INDUCTION-JUDGMENT","right","1","","","","","","","","","","","","","","","","","","","","","","","","","","",""
"html-keyboard-response","180","652198","0.0-5.0-1.0-2.3","3","0","11jln087yk8jl6a","","null","","<p style=""color:#054d00;""><b>Correct!</b></p>","","null","","","","","","","","","","","","","","","","","","","","","","","","","","","","","","","",""
"html-button-response","181","653458","0.0-5.0-1.0-3.3","3","0","11jln087yk8jl6a","","749.5999999046326","","<p>Press the button below when you are ready to continue.</p>","0","","","","","","","","","","","","","","","","","","","","","","","","","","","","","","","","",""
"audio-keyboard-response","182","656209","0.0-5.0-1.0-0.4","3","0","11jln087yk8jl6a","","null","","sounds/sentences/right_rev/14_06_cfSWS.wav","","null","","","","","","","","","","","","","","","","","","","","","","","","","","","","","","","",""
"html-button-response","183","657929","0.0-5.0-1.0-1.4","3","0","11jln087yk8jl6a","","1718.5","","Was the sound coming from the left or the right?","1","","","1","INDUCTION-JUDGMENT","right","1","","","","","","","","","","","","","","","","","","","","","","","","","","",""
"html-keyboard-response","184","658938","0.0-5.0-1.0-2.4","3","0","11jln087yk8jl6a","","null","","<p style=""color:#054d00;""><b>Correct!</b></p>","","null","","","","","","","","","","","","","","","","","","","","","","","","","","","","","","","",""
"html-button-response","185","660118","0.0-5.0-1.0-3.4","3","0","11jln087yk8jl6a","","670.1000001430511","","<p>Press the button below when you are ready to continue.</p>","0","","","","","","","","","","","","","","","","","","","","","","","","","","","","","","","","",""
"audio-keyboard-response","186","662679","0.0-5.0-1.0-0.5","3","0","11jln087yk8jl6a","","null","","sounds/sentences/left_rev/14_04_cfSWS.wav","","null","","","","","","","","","","","","","","","","","","","","","","","","","","","","","","","",""
"html-button-response","187","663598","0.0-5.0-1.0-1.5","3","0","11jln087yk8jl6a","","918.0999999046326","","Was the sound coming from the left or the right?","0","","","1","INDUCTION-JUDGMENT","left","0","","","","","","","","","","","","","","","","","","","","","","","","","","",""
"html-keyboard-response","188","664608","0.0-5.0-1.0-2.5","3","0","11jln087yk8jl6a","","null","","<p style=""color:#054d00;""><b>Correct!</b></p>","","null","","","","","","","","","","","","","","","","","","","","","","","","","","","","","","","",""
"html-button-response","189","665837","0.0-5.0-1.0-3.5","3","0","11jln087yk8jl6a","","722.9000000953674","","<p>Press the button below when you are ready to continue.</p>","0","","","","","","","","","","","","","","","","","","","","","","","","","","","","","","","","",""
"audio-keyboard-response","190","668669","0.0-5.0-1.0-0.6","3","0","11jln087yk8jl6a","","null","","sounds/sentences/left_rev/14_02_cfSWS.wav","","null","","","","","","","","","","","","","","","","","","","","","","","","","","","","","","","",""
"html-button-response","191","669133","0.0-5.0-1.0-1.6","3","0","11jln087yk8jl6a","","462.7000000476837","","Was the sound coming from the left or the right?","0","","","1","INDUCTION-JUDGMENT","left","0","","","","","","","","","","","","","","","","","","","","","","","","","","",""
"html-keyboard-response","192","670138","0.0-5.0-1.0-2.6","3","0","11jln087yk8jl6a","","null","","<p style=""color:#054d00;""><b>Correct!</b></p>","","null","","","","","","","","","","","","","","","","","","","","","","","","","","","","","","","",""
"html-button-response","193","671263","0.0-5.0-1.0-3.6","3","0","11jln087yk8jl6a","","614.5999999046326","","<p>Press the button below when you are ready to continue.</p>","0","","","","","","","","","","","","","","","","","","","","","","","","","","","","","","","","",""
"audio-keyboard-response","194","673869","0.0-5.0-1.0-0.7","3","0","11jln087yk8jl6a","","null","","sounds/sentences/left_rev/14_03_cfSWS.wav","","null","","","","","","","","","","","","","","","","","","","","","","","","","","","","","","","",""
"html-button-response","195","674656","0.0-5.0-1.0-1.7","3","0","11jln087yk8jl6a","","785.1000001430511","","Was the sound coming from the left or the right?","0","","","1","INDUCTION-JUDGMENT","left","0","","","","","","","","","","","","","","","","","","","","","","","","","","",""
"html-keyboard-response","196","675668","0.0-5.0-1.0-2.7","3","0","11jln087yk8jl6a","","null","","<p style=""color:#054d00;""><b>Correct!</b></p>","","null","","","","","","","","","","","","","","","","","","","","","","","","","","","","","","","",""
"html-button-response","197","676933","0.0-5.0-1.0-3.7","3","0","11jln087yk8jl6a","","754.7000000476837","","<p>Press the button below when you are ready to continue.</p>","0","","","","","","","","","","","","","","","","","","","","","","","","","","","","","","","","",""
"audio-keyboard-response","198","679969","0.0-5.0-1.0-0.8","3","0","11jln087yk8jl6a","","null","","sounds/sentences/right_rev/14_10_cfSWS.wav","","null","","","","","","","","","","","","","","","","","","","","","","","","","","","","","","","",""
"html-button-response","199","680458","0.0-5.0-1.0-1.8","3","0","11jln087yk8jl6a","","487.2999999523163","","Was the sound coming from the left or the right?","1","","","1","INDUCTION-JUDGMENT","right","1","","","","","","","","","","","","","","","","","","","","","","","","","","",""
"html-keyboard-response","200","681468","0.0-5.0-1.0-2.8","3","0","11jln087yk8jl6a","","null","","<p style=""color:#054d00;""><b>Correct!</b></p>","","null","","","","","","","","","","","","","","","","","","","","","","","","","","","","","","","",""
"html-button-response","201","682602","0.0-5.0-1.0-3.8","3","0","11jln087yk8jl6a","","628.3999998569489","","<p>Press the button below when you are ready to continue.</p>","0","","","","","","","","","","","","","","","","","","","","","","","","","","","","","","","","",""
"audio-keyboard-response","202","685329","0.0-5.0-1.0-0.9","3","0","11jln087yk8jl6a","","null","","sounds/sentences/right_rev/14_09_cfSWS.wav","","null","","","","","","","","","","","","","","","","","","","","","","","","","","","","","","","",""
"html-button-response","203","685795","0.0-5.0-1.0-1.9","3","0","11jln087yk8jl6a","","467.2999999523163","","Was the sound coming from the left or the right?","1","","","1","INDUCTION-JUDGMENT","right","1","","","","","","","","","","","","","","","","","","","","","","","","","","",""
"html-keyboard-response","204","686814","0.0-5.0-1.0-2.9","3","0","11jln087yk8jl6a","","null","","<p style=""color:#054d00;""><b>Correct!</b></p>","","null","","","","","","","","","","","","","","","","","","","","","","","","","","","","","","","",""
"html-button-response","205","688013","0.0-5.0-1.0-3.9","3","0","11jln087yk8jl6a","","687.8999998569489","","<p>Press the button below when you are ready to continue.</p>","0","","","","","","","","","","","","","","","","","","","","","","","","","","","","","","","","",""
"html-keyboard-response","206","721456","0.0-6.0-0.0","3","0","11jln087yk8jl6a","","32931","","<p>In this part of the study, you will hear sounds similar to those you just heard.</p><p>Please focus on these sounds, as you may be asked questions about them later.</p><p>Occasionally, the sounds will pause for up to two seconds. When this happens, please press SPACEBAR as quickly as you can.</br>This helps ensure that you are paying attention to the sounds.</p><p>This part of the study will take about 12 minutes to complete, and you will be given the opportunity to take a couple of short breaks every few minutes.</p><p><strong>Press SPACEBAR to begin</strong></p>","","32","","","","","","","","","","","","","","","","","","","","","","","","","","","","","","","",""
"html-keyboard-response","207","722465","0.0-6.0-1.0-0.0","3","0","11jln087yk8jl6a","","null","","<p style=""font-size: 40px;"">+</p>","","null","","","","","","","","","","","","","","","","","","","","","","","","","","","","","","","",""
"html-keyboard-response","208","907482","0.0-6.0-1.0-1.0","3","0","11jln087yk8jl6a","","null","","","","null","","","SL-TRAIN","","","0","1746.9000000953674","1243.5","sounds/C/TRAIN/SEQ__09.mp3","2","","","","","","","","","","","","","","","","","","","","","",""
"html-button-response","209","1001152","0.0-6.0-1.0-2.0","3","0","11jln087yk8jl6a","","93670.69999980927","","<p>You may take a short break if you wish.</p>","0","","","","","","","","","","","","","","","","","","","","","","","","","","","","","","","","",""
"html-keyboard-response","210","1002156","0.0-6.0-1.0-3.0","3","0","11jln087yk8jl6a","","null","","<p style=""font-size: 40px;"">+</p>","","null","","","","","","","","","","","","","","","","","","","","","","","","","","","","","","","",""
"html-keyboard-response","211","1187167","0.0-6.0-1.0-4.0","3","0","11jln087yk8jl6a","","null","","","","null","","","SL-TRAIN","","","1","null","1461.8999998569489","sounds/C/TRAIN/SEQ__02.mp3","4","","","","","","","","","","","","","","","","","","","","","",""
"html-button-response","212","1205431","0.0-6.0-1.0-5.0","3","0","11jln087yk8jl6a","","18262.300000190735","","<p>You may take a short break if you wish.</p>","0","","","","","","","","","","","","","","","","","","","","","","","","","","","","","","","","",""
"html-keyboard-response","213","1206441","0.0-6.0-1.0-6.0","3","0","11jln087yk8jl6a","","null","","<p style=""font-size: 40px;"">+</p>","","null","","","","","","","","","","","","","","","","","","","","","","","","","","","","","","","",""
"html-keyboard-response","214","1391460","0.0-6.0-1.0-7.0","3","0","11jln087yk8jl6a","","null","","","","null","","","SL-TRAIN","","","0","1535","1436.5","sounds/C/TRAIN/SEQ__10.mp3","8","","","","","","","","","","","","","","","","","","","","","",""
"html-button-response","215","1417378","0.0-6.0-1.0-8.0","3","0","11jln087yk8jl6a","","25916.10000014305","","<p>You may take a short break if you wish.</p>","0","","","","","","","","","","","","","","","","","","","","","","","","","","","","","","","","",""
"html-keyboard-response","216","1418381","0.0-6.0-1.0-9.0","3","0","11jln087yk8jl6a","","null","","<p style=""font-size: 40px;"">+</p>","","null","","","","","","","","","","","","","","","","","","","","","","","","","","","","","","","",""
"html-keyboard-response","217","1603385","0.0-6.0-1.0-10.0","3","0","11jln087yk8jl6a","","null","","","","null","","","SL-TRAIN","","","0","1439.8999998569489","1629.5","sounds/C/TRAIN/SEQ__05.mp3","8","","","","","","","","","","","","","","","","","","","","","",""
"html-button-response","218","1607627","0.0-6.0-1.0-11.0","3","0","11jln087yk8jl6a","","4239.599999904633","","<p>You may take a short break if you wish.</p>","0","","","","","","","","","","","","","","","","","","","","","","","","","","","","","","","","",""
"html-button-response","219","1618953","0.0-7.0-0.0","3","0","11jln087yk8jl6a","","11324.799999952316","","<p>Welcome to the second part of the study. This is a <u>familiarity task</u>.</p><p>You will now hear short sounds and will be asked to rate how familiar they sound to you <b>based on what you heard in the previous part of the study</b>.</p><p>You will rate 12 sounds in total.</p>","0","","","","","","","","","","","","","","","","","","","","","","","","","","","","","","","","",""
"html-keyboard-response","220","1619963","0.0-7.0-1.0-0.0","3","0","11jln087yk8jl6a","","null","","","","null","","","","","","","","","","","","","","","","","","","","","","","","","","","","","","","",""
"audio-keyboard-response","221","1621122","0.0-7.0-1.0-1.0","3","0","11jln087yk8jl6a","","null","","sounds/C/FAM/N003.mp3","","null","","","","","","","","","","","","","","","","","","","","","","","","","","","","","","","",""
"html-keyboard-response","222","1632967","0.0-7.0-1.0-2.0","3","0","11jln087yk8jl6a","","11331.399999856949","","<p>How familiar did this sound to you?</p><p>1&nbsp;&nbsp;&nbsp;&nbsp;&nbsp;&nbsp;&nbsp;&nbsp;&nbsp;&nbsp;&nbsp;&nbsp;&nbsp;&nbsp;&nbsp;&nbsp;&nbsp;&nbsp;&nbsp;2&nbsp;&nbsp;&nbsp;&nbsp;&nbsp;&nbsp;&nbsp;&nbsp;&nbsp;&nbsp;&nbsp;&nbsp;&nbsp;&nbsp;&nbsp;&nbsp;&nbsp;&nbsp;&nbsp;3&nbsp;&nbsp;&nbsp;&nbsp;&nbsp;&nbsp;&nbsp;&nbsp;&nbsp;&nbsp;&nbsp;&nbsp;&nbsp;&nbsp;&nbsp;&nbsp;&nbsp;&nbsp;&nbsp;4</p><p style=""font-size:14px"">Not at all familiar&nbsp;&nbsp;&nbsp;&nbsp;A little familiar&nbsp;&nbsp;&nbsp;Moderately familiar&nbsp;&nbsp;&nbsp;Extremely familiar</p><p>(press the corresponding number on your keyboard)</p>","","52","","","FAM-RESPONSE","","","","","","","","sounds/C/FAM/N003.mp3","nonword","","","","","","","","","","","","","","","","","","","",""
"html-keyboard-response","223","1634981","0.0-7.0-1.0-0.1","3","0","11jln087yk8jl6a","","null","","","","null","","","","","","","","","","","","","","","","","","","","","","","","","","","","","","","",""
"audio-keyboard-response","224","1635922","0.0-7.0-1.0-1.1","3","0","11jln087yk8jl6a","","null","","sounds/C/FAM/W001.mp3","","null","","","","","","","","","","","","","","","","","","","","","","","","","","","","","","","",""
"html-keyboard-response","225","1642097","0.0-7.0-1.0-2.1","3","0","11jln087yk8jl6a","","5665.899999856949","","<p>How familiar did this sound to you?</p><p>1&nbsp;&nbsp;&nbsp;&nbsp;&nbsp;&nbsp;&nbsp;&nbsp;&nbsp;&nbsp;&nbsp;&nbsp;&nbsp;&nbsp;&nbsp;&nbsp;&nbsp;&nbsp;&nbsp;2&nbsp;&nbsp;&nbsp;&nbsp;&nbsp;&nbsp;&nbsp;&nbsp;&nbsp;&nbsp;&nbsp;&nbsp;&nbsp;&nbsp;&nbsp;&nbsp;&nbsp;&nbsp;&nbsp;3&nbsp;&nbsp;&nbsp;&nbsp;&nbsp;&nbsp;&nbsp;&nbsp;&nbsp;&nbsp;&nbsp;&nbsp;&nbsp;&nbsp;&nbsp;&nbsp;&nbsp;&nbsp;&nbsp;4</p><p style=""font-size:14px"">Not at all familiar&nbsp;&nbsp;&nbsp;&nbsp;A little familiar&nbsp;&nbsp;&nbsp;Moderately familiar&nbsp;&nbsp;&nbsp;Extremely familiar</p><p>(press the corresponding number on your keyboard)</p>","","51","","","FAM-RESPONSE","","","","","","","","sounds/C/FAM/W001.mp3","word","","","","","","","","","","","","","","","","","","","",""
"html-keyboard-response","226","1644111","0.0-7.0-1.0-0.2","3","0","11jln087yk8jl6a","","null","","","","null","","","","","","","","","","","","","","","","","","","","","","","","","","","","","","","",""
"audio-keyboard-response","227","1645062","0.0-7.0-1.0-1.2","3","0","11jln087yk8jl6a","","null","","sounds/C/FAM/P001.mp3","","null","","","","","","","","","","","","","","","","","","","","","","","","","","","","","","","",""
"html-keyboard-response","228","1646569","0.0-7.0-1.0-2.2","3","0","11jln087yk8jl6a","","997.4000000953674","","<p>How familiar did this sound to you?</p><p>1&nbsp;&nbsp;&nbsp;&nbsp;&nbsp;&nbsp;&nbsp;&nbsp;&nbsp;&nbsp;&nbsp;&nbsp;&nbsp;&nbsp;&nbsp;&nbsp;&nbsp;&nbsp;&nbsp;2&nbsp;&nbsp;&nbsp;&nbsp;&nbsp;&nbsp;&nbsp;&nbsp;&nbsp;&nbsp;&nbsp;&nbsp;&nbsp;&nbsp;&nbsp;&nbsp;&nbsp;&nbsp;&nbsp;3&nbsp;&nbsp;&nbsp;&nbsp;&nbsp;&nbsp;&nbsp;&nbsp;&nbsp;&nbsp;&nbsp;&nbsp;&nbsp;&nbsp;&nbsp;&nbsp;&nbsp;&nbsp;&nbsp;4</p><p style=""font-size:14px"">Not at all familiar&nbsp;&nbsp;&nbsp;&nbsp;A little familiar&nbsp;&nbsp;&nbsp;Moderately familiar&nbsp;&nbsp;&nbsp;Extremely familiar</p><p>(press the corresponding number on your keyboard)</p>","","52","","","FAM-RESPONSE","","","","","","","","sounds/C/FAM/P001.mp3","partword","","","","","","","","","","","","","","","","","","","",""
"html-keyboard-response","229","1648592","0.0-7.0-1.0-0.3","3","0","11jln087yk8jl6a","","null","","","","null","","","","","","","","","","","","","","","","","","","","","","","","","","","","","","","",""
"audio-keyboard-response","230","1649542","0.0-7.0-1.0-1.3","3","0","11jln087yk8jl6a","","null","","sounds/C/FAM/N004.mp3","","null","","","","","","","","","","","","","","","","","","","","","","","","","","","","","","","",""
"html-keyboard-response","231","1653008","0.0-7.0-1.0-2.3","3","0","11jln087yk8jl6a","","2956.2999999523163","","<p>How familiar did this sound to you?</p><p>1&nbsp;&nbsp;&nbsp;&nbsp;&nbsp;&nbsp;&nbsp;&nbsp;&nbsp;&nbsp;&nbsp;&nbsp;&nbsp;&nbsp;&nbsp;&nbsp;&nbsp;&nbsp;&nbsp;2&nbsp;&nbsp;&nbsp;&nbsp;&nbsp;&nbsp;&nbsp;&nbsp;&nbsp;&nbsp;&nbsp;&nbsp;&nbsp;&nbsp;&nbsp;&nbsp;&nbsp;&nbsp;&nbsp;3&nbsp;&nbsp;&nbsp;&nbsp;&nbsp;&nbsp;&nbsp;&nbsp;&nbsp;&nbsp;&nbsp;&nbsp;&nbsp;&nbsp;&nbsp;&nbsp;&nbsp;&nbsp;&nbsp;4</p><p style=""font-size:14px"">Not at all familiar&nbsp;&nbsp;&nbsp;&nbsp;A little familiar&nbsp;&nbsp;&nbsp;Moderately familiar&nbsp;&nbsp;&nbsp;Extremely familiar</p><p>(press the corresponding number on your keyboard)</p>","","52","","","FAM-RESPONSE","","","","","","","","sounds/C/FAM/N004.mp3","nonword","","","","","","","","","","","","","","","","","","","",""
"html-keyboard-response","232","1655021","0.0-7.0-1.0-0.4","3","0","11jln087yk8jl6a","","null","","","","null","","","","","","","","","","","","","","","","","","","","","","","","","","","","","","","",""
"audio-keyboard-response","233","1655962","0.0-7.0-1.0-1.4","3","0","11jln087yk8jl6a","","null","","sounds/C/FAM/W003.mp3","","null","","","","","","","","","","","","","","","","","","","","","","","","","","","","","","","",""
"html-keyboard-response","234","1657147","0.0-7.0-1.0-2.4","3","0","11jln087yk8jl6a","","665.4000000953674","","<p>How familiar did this sound to you?</p><p>1&nbsp;&nbsp;&nbsp;&nbsp;&nbsp;&nbsp;&nbsp;&nbsp;&nbsp;&nbsp;&nbsp;&nbsp;&nbsp;&nbsp;&nbsp;&nbsp;&nbsp;&nbsp;&nbsp;2&nbsp;&nbsp;&nbsp;&nbsp;&nbsp;&nbsp;&nbsp;&nbsp;&nbsp;&nbsp;&nbsp;&nbsp;&nbsp;&nbsp;&nbsp;&nbsp;&nbsp;&nbsp;&nbsp;3&nbsp;&nbsp;&nbsp;&nbsp;&nbsp;&nbsp;&nbsp;&nbsp;&nbsp;&nbsp;&nbsp;&nbsp;&nbsp;&nbsp;&nbsp;&nbsp;&nbsp;&nbsp;&nbsp;4</p><p style=""font-size:14px"">Not at all familiar&nbsp;&nbsp;&nbsp;&nbsp;A little familiar&nbsp;&nbsp;&nbsp;Moderately familiar&nbsp;&nbsp;&nbsp;Extremely familiar</p><p>(press the corresponding number on your keyboard)</p>","","52","","","FAM-RESPONSE","","","","","","","","sounds/C/FAM/W003.mp3","word","","","","","","","","","","","","","","","","","","","",""
"html-keyboard-response","235","1659160","0.0-7.0-1.0-0.5","3","0","11jln087yk8jl6a","","null","","","","null","","","","","","","","","","","","","","","","","","","","","","","","","","","","","","","",""
"audio-keyboard-response","236","1660103","0.0-7.0-1.0-1.5","3","0","11jln087yk8jl6a","","null","","sounds/C/FAM/W002.mp3","","null","","","","","","","","","","","","","","","","","","","","","","","","","","","","","","","",""
"html-keyboard-response","237","1661574","0.0-7.0-1.0-2.5","3","0","11jln087yk8jl6a","","966.2000000476837","","<p>How familiar did this sound to you?</p><p>1&nbsp;&nbsp;&nbsp;&nbsp;&nbsp;&nbsp;&nbsp;&nbsp;&nbsp;&nbsp;&nbsp;&nbsp;&nbsp;&nbsp;&nbsp;&nbsp;&nbsp;&nbsp;&nbsp;2&nbsp;&nbsp;&nbsp;&nbsp;&nbsp;&nbsp;&nbsp;&nbsp;&nbsp;&nbsp;&nbsp;&nbsp;&nbsp;&nbsp;&nbsp;&nbsp;&nbsp;&nbsp;&nbsp;3&nbsp;&nbsp;&nbsp;&nbsp;&nbsp;&nbsp;&nbsp;&nbsp;&nbsp;&nbsp;&nbsp;&nbsp;&nbsp;&nbsp;&nbsp;&nbsp;&nbsp;&nbsp;&nbsp;4</p><p style=""font-size:14px"">Not at all familiar&nbsp;&nbsp;&nbsp;&nbsp;A little familiar&nbsp;&nbsp;&nbsp;Moderately familiar&nbsp;&nbsp;&nbsp;Extremely familiar</p><p>(press the corresponding number on your keyboard)</p>","","52","","","FAM-RESPONSE","","","","","","","","sounds/C/FAM/W002.mp3","word","","","","","","","","","","","","","","","","","","","",""
"html-keyboard-response","238","1663592","0.0-7.0-1.0-0.6","3","0","11jln087yk8jl6a","","null","","","","null","","","","","","","","","","","","","","","","","","","","","","","","","","","","","","","",""
"audio-keyboard-response","239","1664523","0.0-7.0-1.0-1.6","3","0","11jln087yk8jl6a","","null","","sounds/C/FAM/W004.mp3","","null","","","","","","","","","","","","","","","","","","","","","","","","","","","","","","","",""
"html-keyboard-response","240","1666537","0.0-7.0-1.0-2.6","3","0","11jln087yk8jl6a","","1505.3999998569489","","<p>How familiar did this sound to you?</p><p>1&nbsp;&nbsp;&nbsp;&nbsp;&nbsp;&nbsp;&nbsp;&nbsp;&nbsp;&nbsp;&nbsp;&nbsp;&nbsp;&nbsp;&nbsp;&nbsp;&nbsp;&nbsp;&nbsp;2&nbsp;&nbsp;&nbsp;&nbsp;&nbsp;&nbsp;&nbsp;&nbsp;&nbsp;&nbsp;&nbsp;&nbsp;&nbsp;&nbsp;&nbsp;&nbsp;&nbsp;&nbsp;&nbsp;3&nbsp;&nbsp;&nbsp;&nbsp;&nbsp;&nbsp;&nbsp;&nbsp;&nbsp;&nbsp;&nbsp;&nbsp;&nbsp;&nbsp;&nbsp;&nbsp;&nbsp;&nbsp;&nbsp;4</p><p style=""font-size:14px"">Not at all familiar&nbsp;&nbsp;&nbsp;&nbsp;A little familiar&nbsp;&nbsp;&nbsp;Moderately familiar&nbsp;&nbsp;&nbsp;Extremely familiar</p><p>(press the corresponding number on your keyboard)</p>","","52","","","FAM-RESPONSE","","","","","","","","sounds/C/FAM/W004.mp3","word","","","","","","","","","","","","","","","","","","","",""
"html-keyboard-response","241","1668552","0.0-7.0-1.0-0.7","3","0","11jln087yk8jl6a","","null","","","","null","","","","","","","","","","","","","","","","","","","","","","","","","","","","","","","",""
"audio-keyboard-response","242","1669503","0.0-7.0-1.0-1.7","3","0","11jln087yk8jl6a","","null","","sounds/C/FAM/P003.mp3","","null","","","","","","","","","","","","","","","","","","","","","","","","","","","","","","","",""
"html-keyboard-response","243","1671318","0.0-7.0-1.0-2.7","3","0","11jln087yk8jl6a","","1306.5","","<p>How familiar did this sound to you?</p><p>1&nbsp;&nbsp;&nbsp;&nbsp;&nbsp;&nbsp;&nbsp;&nbsp;&nbsp;&nbsp;&nbsp;&nbsp;&nbsp;&nbsp;&nbsp;&nbsp;&nbsp;&nbsp;&nbsp;2&nbsp;&nbsp;&nbsp;&nbsp;&nbsp;&nbsp;&nbsp;&nbsp;&nbsp;&nbsp;&nbsp;&nbsp;&nbsp;&nbsp;&nbsp;&nbsp;&nbsp;&nbsp;&nbsp;3&nbsp;&nbsp;&nbsp;&nbsp;&nbsp;&nbsp;&nbsp;&nbsp;&nbsp;&nbsp;&nbsp;&nbsp;&nbsp;&nbsp;&nbsp;&nbsp;&nbsp;&nbsp;&nbsp;4</p><p style=""font-size:14px"">Not at all familiar&nbsp;&nbsp;&nbsp;&nbsp;A little familiar&nbsp;&nbsp;&nbsp;Moderately familiar&nbsp;&nbsp;&nbsp;Extremely familiar</p><p>(press the corresponding number on your keyboard)</p>","","51","","","FAM-RESPONSE","","","","","","","","sounds/C/FAM/P003.mp3","partword","","","","","","","","","","","","","","","","","","","",""
"html-keyboard-response","244","1673331","0.0-7.0-1.0-0.8","3","0","11jln087yk8jl6a","","null","","","","null","","","","","","","","","","","","","","","","","","","","","","","","","","","","","","","",""
"audio-keyboard-response","245","1674273","0.0-7.0-1.0-1.8","3","0","11jln087yk8jl6a","","null","","sounds/C/FAM/P002.mp3","","null","","","","","","","","","","","","","","","","","","","","","","","","","","","","","","","",""
"html-keyboard-response","246","1677209","0.0-7.0-1.0-2.8","3","0","11jln087yk8jl6a","","2427.800000190735","","<p>How familiar did this sound to you?</p><p>1&nbsp;&nbsp;&nbsp;&nbsp;&nbsp;&nbsp;&nbsp;&nbsp;&nbsp;&nbsp;&nbsp;&nbsp;&nbsp;&nbsp;&nbsp;&nbsp;&nbsp;&nbsp;&nbsp;2&nbsp;&nbsp;&nbsp;&nbsp;&nbsp;&nbsp;&nbsp;&nbsp;&nbsp;&nbsp;&nbsp;&nbsp;&nbsp;&nbsp;&nbsp;&nbsp;&nbsp;&nbsp;&nbsp;3&nbsp;&nbsp;&nbsp;&nbsp;&nbsp;&nbsp;&nbsp;&nbsp;&nbsp;&nbsp;&nbsp;&nbsp;&nbsp;&nbsp;&nbsp;&nbsp;&nbsp;&nbsp;&nbsp;4</p><p style=""font-size:14px"">Not at all familiar&nbsp;&nbsp;&nbsp;&nbsp;A little familiar&nbsp;&nbsp;&nbsp;Moderately familiar&nbsp;&nbsp;&nbsp;Extremely familiar</p><p>(press the corresponding number on your keyboard)</p>","","51","","","FAM-RESPONSE","","","","","","","","sounds/C/FAM/P002.mp3","partword","","","","","","","","","","","","","","","","","","","",""
"html-keyboard-response","247","1679222","0.0-7.0-1.0-0.9","3","0","11jln087yk8jl6a","","null","","","","null","","","","","","","","","","","","","","","","","","","","","","","","","","","","","","","",""
"audio-keyboard-response","248","1680163","0.0-7.0-1.0-1.9","3","0","11jln087yk8jl6a","","null","","sounds/C/FAM/N002.mp3","","null","","","","","","","","","","","","","","","","","","","","","","","","","","","","","","","",""
"html-keyboard-response","249","1683539","0.0-7.0-1.0-2.9","3","0","11jln087yk8jl6a","","2867.100000143051","","<p>How familiar did this sound to you?</p><p>1&nbsp;&nbsp;&nbsp;&nbsp;&nbsp;&nbsp;&nbsp;&nbsp;&nbsp;&nbsp;&nbsp;&nbsp;&nbsp;&nbsp;&nbsp;&nbsp;&nbsp;&nbsp;&nbsp;2&nbsp;&nbsp;&nbsp;&nbsp;&nbsp;&nbsp;&nbsp;&nbsp;&nbsp;&nbsp;&nbsp;&nbsp;&nbsp;&nbsp;&nbsp;&nbsp;&nbsp;&nbsp;&nbsp;3&nbsp;&nbsp;&nbsp;&nbsp;&nbsp;&nbsp;&nbsp;&nbsp;&nbsp;&nbsp;&nbsp;&nbsp;&nbsp;&nbsp;&nbsp;&nbsp;&nbsp;&nbsp;&nbsp;4</p><p style=""font-size:14px"">Not at all familiar&nbsp;&nbsp;&nbsp;&nbsp;A little familiar&nbsp;&nbsp;&nbsp;Moderately familiar&nbsp;&nbsp;&nbsp;Extremely familiar</p><p>(press the corresponding number on your keyboard)</p>","","50","","","FAM-RESPONSE","","","","","","","","sounds/C/FAM/N002.mp3","nonword","","","","","","","","","","","","","","","","","","","",""
"html-keyboard-response","250","1685551","0.0-7.0-1.0-0.10","3","0","11jln087yk8jl6a","","null","","","","null","","","","","","","","","","","","","","","","","","","","","","","","","","","","","","","",""
"audio-keyboard-response","251","1686504","0.0-7.0-1.0-1.10","3","0","11jln087yk8jl6a","","null","","sounds/C/FAM/N001.mp3","","null","","","","","","","","","","","","","","","","","","","","","","","","","","","","","","","",""
"html-keyboard-response","252","1687819","0.0-7.0-1.0-2.10","3","0","11jln087yk8jl6a","","806.5","","<p>How familiar did this sound to you?</p><p>1&nbsp;&nbsp;&nbsp;&nbsp;&nbsp;&nbsp;&nbsp;&nbsp;&nbsp;&nbsp;&nbsp;&nbsp;&nbsp;&nbsp;&nbsp;&nbsp;&nbsp;&nbsp;&nbsp;2&nbsp;&nbsp;&nbsp;&nbsp;&nbsp;&nbsp;&nbsp;&nbsp;&nbsp;&nbsp;&nbsp;&nbsp;&nbsp;&nbsp;&nbsp;&nbsp;&nbsp;&nbsp;&nbsp;3&nbsp;&nbsp;&nbsp;&nbsp;&nbsp;&nbsp;&nbsp;&nbsp;&nbsp;&nbsp;&nbsp;&nbsp;&nbsp;&nbsp;&nbsp;&nbsp;&nbsp;&nbsp;&nbsp;4</p><p style=""font-size:14px"">Not at all familiar&nbsp;&nbsp;&nbsp;&nbsp;A little familiar&nbsp;&nbsp;&nbsp;Moderately familiar&nbsp;&nbsp;&nbsp;Extremely familiar</p><p>(press the corresponding number on your keyboard)</p>","","51","","","FAM-RESPONSE","","","","","","","","sounds/C/FAM/N001.mp3","nonword","","","","","","","","","","","","","","","","","","","",""
"html-keyboard-response","253","1689831","0.0-7.0-1.0-0.11","3","0","11jln087yk8jl6a","","null","","","","null","","","","","","","","","","","","","","","","","","","","","","","","","","","","","","","",""
"audio-keyboard-response","254","1690766","0.0-7.0-1.0-1.11","3","0","11jln087yk8jl6a","","null","","sounds/C/FAM/P004.mp3","","null","","","","","","","","","","","","","","","","","","","","","","","","","","","","","","","",""
"html-keyboard-response","255","1693554","0.0-7.0-1.0-2.11","3","0","11jln087yk8jl6a","","2282.2000000476837","","<p>How familiar did this sound to you?</p><p>1&nbsp;&nbsp;&nbsp;&nbsp;&nbsp;&nbsp;&nbsp;&nbsp;&nbsp;&nbsp;&nbsp;&nbsp;&nbsp;&nbsp;&nbsp;&nbsp;&nbsp;&nbsp;&nbsp;2&nbsp;&nbsp;&nbsp;&nbsp;&nbsp;&nbsp;&nbsp;&nbsp;&nbsp;&nbsp;&nbsp;&nbsp;&nbsp;&nbsp;&nbsp;&nbsp;&nbsp;&nbsp;&nbsp;3&nbsp;&nbsp;&nbsp;&nbsp;&nbsp;&nbsp;&nbsp;&nbsp;&nbsp;&nbsp;&nbsp;&nbsp;&nbsp;&nbsp;&nbsp;&nbsp;&nbsp;&nbsp;&nbsp;4</p><p style=""font-size:14px"">Not at all familiar&nbsp;&nbsp;&nbsp;&nbsp;A little familiar&nbsp;&nbsp;&nbsp;Moderately familiar&nbsp;&nbsp;&nbsp;Extremely familiar</p><p>(press the corresponding number on your keyboard)</p>","","52","","","FAM-RESPONSE","","","","","","","","sounds/C/FAM/P004.mp3","partword","","","","","","","","","","","","","","","","","","","",""
"html-button-response","256","1710156","0.0-8.0-0.0","3","0","11jln087yk8jl6a","","15594.299999952316","","<p>You will now listen to longer sound sequences.</p><p>Each sound sequence will last about 16 seconds.</p><p>On each trial, you will be given a <u>TARGET SOUND</u>. Your task is to listen very carefully for this sound.</p><p>Every time you hear the <u>TARGET SOUND</u>, you will press the <b>SPACEBAR</b> as quickly and accurately as you can.</p>","0","","","","","","","","","","","","","","","","","","","","","","","","","","","","","","","","",""
"html-button-response","257","2038438","0.0-8.0-1.0","3","0","11jln087yk8jl6a","","328022","","<p>It is very important that you make your responses as quickly and accurately as possible.</p><p>To help you make your responses, you will be able to listen to the <u>TARGET SOUND</u> at the beginning of each trial.</p><p>There will be 36 total trials.</p><p><b>Note: This is meant to be a difficult task. We simply want you to try your best.</p>","0","","","","","","","","","","","","","","","","","","","","","","","","","","","","","","","","",""
"html-button-response","258","2040042","0.0-8.0-2.0-0.0","3","0","11jln087yk8jl6a","","1349.5","","<p>Trial 1 of 36</p>","0","","","","","","","","","","","","","","TA","sounds/syllables/ta_SWS.wav","2100,5700,9300,11100","2","","","","","","","","","","","","","","","",""
"html-keyboard-response","259","2043640","0.0-8.0-2.0-1.0","3","0","11jln087yk8jl6a","","3595.9000000953674","","","","80","","","","","","","","","","","","","TA","","2100,5700,9300,11100","2","","","","","","","","","","","","","","","",""
"audio-keyboard-response","260","2044277","0.0-8.0-2.0-2.0-0.0","3","0","11jln087yk8jl6a","","null","","sounds/syllables/ta_SWS.wav","","null","","","","","","","","","","","","","","","","","","","","","","","","","","","","","","","",""
"html-keyboard-response","261","2048103","0.0-8.0-2.0-2.0-1.0","3","0","11jln087yk8jl6a","","3825.0999999046326","","<p>To replay the <u>TARGET SOUND</u>, press P.</p> When you are ready to begin, press SPACEBAR.","","32","","","","","","","","","","","","","","","","","","","","","","","","","","","","","","","",""
"audio-keyboard-response","262","2063057","0.0-8.0-2.0-3.0","3","0","11jln087yk8jl6a","","3379","","sounds/C/TD/TA_09_TD.mp3","","32","","","TD_SUMMARY","","","","","","","","","","TA","","2100,5700,9300,11100","2","2100","5700","9300","11100","null","null","null","null","3385_6914.900000095367_8875.5_11274.900000095367_12992.799999952316","1","","","","","",""
"html-button-response","263","2064411","0.0-8.0-2.0-0.1","3","0","11jln087yk8jl6a","","1350.7000000476837","","<p>Trial 2 of 36</p>","0","","","","","","","","","","","","","","FE","sounds/syllables/fe_SWS.wav","2100,3900,5700,11100","2","","","","","","","","","","","","","","","",""
"html-keyboard-response","264","2066147","0.0-8.0-2.0-1.1","3","0","11jln087yk8jl6a","","1734.5","","","","80","","","","","","","","","","","","","FE","","2100,3900,5700,11100","2","","","","","","","","","","","","","","","",""
"audio-keyboard-response","265","2066447","0.0-8.0-2.0-2.1-0.1","3","0","11jln087yk8jl6a","","null","","sounds/syllables/fe_SWS.wav","","null","","","","","","","","","","","","","","","","","","","","","","","","","","","","","","","",""
"html-keyboard-response","266","2069293","0.0-8.0-2.0-2.1-1.1","3","0","11jln087yk8jl6a","","2845.4000000953674","","<p>To replay the <u>TARGET SOUND</u>, press P.</p> When you are ready to begin, press SPACEBAR.","","32","","","","","","","","","","","","","","","","","","","","","","","","","","","","","","","",""
"audio-keyboard-response","267","2084258","0.0-8.0-2.0-3.1","3","0","11jln087yk8jl6a","","1400","","sounds/C/TD/FE_06_TD.mp3","","32","","","TD_SUMMARY","","","","","","","","","","FE","","2100,3900,5700,11100","2","2100","3900","5700","11100","604.7999999523163","401.90000009536743","221.79999995231628","627.2999999523163","_____1399.7000000476837_2704.7999999523163_4301.900000095367_5246.900000095367_5921.799999952316_8321_9477.099999904633_10040.200000047684_11727.299999952316_12357.299999952316_12717.5","1","","","","","",""
"html-button-response","268","2115627","0.0-8.0-2.0-0.2","3","0","11jln087yk8jl6a","","31361.900000095367","","<p>Trial 3 of 36</p>","0","","","","","","","","","","","","","","FU","sounds/syllables/fu_SWS.wav","5100,6900,8700,12300","3","","","","","","","","","","","","","","","",""
"html-keyboard-response","269","2117318","0.0-8.0-2.0-1.2","3","0","11jln087yk8jl6a","","1688.5999999046326","","","","80","","","","","","","","","","","","","FU","","5100,6900,8700,12300","3","","","","","","","","","","","","","","","",""
"audio-keyboard-response","270","2117622","0.0-8.0-2.0-2.2-0.2","3","0","11jln087yk8jl6a","","null","","sounds/syllables/fu_SWS.wav","","null","","","","","","","","","","","","","","","","","","","","","","","","","","","","","","","",""
"html-keyboard-response","271","2118623","0.0-8.0-2.0-2.2-1.2","3","0","11jln087yk8jl6a","","1000.4000000953674","","<p>To replay the <u>TARGET SOUND</u>, press P.</p> When you are ready to begin, press SPACEBAR.","","32","","","","","","","","","","","","","","","","","","","","","","","","","","","","","","","",""
"audio-keyboard-response","272","2133572","0.0-8.0-2.0-3.2","3","0","11jln087yk8jl6a","","1720","","sounds/C/TD/FU_06_TD.mp3","","32","","","TD_SUMMARY","","","","","","","","","","FU","","5100,6900,8700,12300","3","5100","6900","8700","12300","488.69999980926514","null","915.5999999046326","null","________________1715.6999998092651_2416.399999856949_3631.699999809265_4036.5_5588.699999809265_7006.5_9615.599999904633_12358.399999856949_14228.699999809265","1","","","","","",""
"html-button-response","273","2134648","0.0-8.0-2.0-0.3","3","0","11jln087yk8jl6a","","1073.5999999046326","","<p>Trial 4 of 36</p>","0","","","","","","","","","","","","","","FU","sounds/syllables/fu_SWS.wav","5100,6900,9600,13200","3","","","","","","","","","","","","","","","",""
"html-keyboard-response","274","2136060","0.0-8.0-2.0-1.3","3","0","11jln087yk8jl6a","","1410.0999999046326","","","","80","","","","","","","","","","","","","FU","","5100,6900,9600,13200","3","","","","","","","","","","","","","","","",""
"audio-keyboard-response","275","2136352","0.0-8.0-2.0-2.3-0.3","3","0","11jln087yk8jl6a","","null","","sounds/syllables/fu_SWS.wav","","null","","","","","","","","","","","","","","","","","","","","","","","","","","","","","","","",""
"html-keyboard-response","276","2137455","0.0-8.0-2.0-2.3-1.3","3","0","11jln087yk8jl6a","","1102.2999999523163","","<p>To replay the <u>TARGET SOUND</u>, press P.</p> When you are ready to begin, press SPACEBAR.","","32","","","","","","","","","","","","","","","","","","","","","","","","","","","","","","","",""
"audio-keyboard-response","277","2152402","0.0-8.0-2.0-3.3","3","0","11jln087yk8jl6a","","1939","","sounds/C/TD/FU_05_TD.mp3","","32","","","TD_SUMMARY","","","","","","","","","","FU","","5100,6900,9600,13200","3","5100","6900","9600","13200","null","1099.2999999523163","942.2000000476837","694.1000001430511","_________________________1936.7000000476837_4325.400000095367_4916.5_6986.299999952316_7999.299999952316_9012.100000143051_10542.200000047684_12273.799999952316_13894.100000143051","1","","","","","",""
"html-button-response","278","2154262","0.0-8.0-2.0-0.4","3","0","11jln087yk8jl6a","","1856.6999998092651","","<p>Trial 5 of 36</p>","0","","","","","","","","","","","","","","PU","sounds/syllables/pu_SWS.wav","3300,6900,10500,13200","3","","","","","","","","","","","","","","","",""
"html-keyboard-response","279","2156977","0.0-8.0-2.0-1.4","3","0","11jln087yk8jl6a","","2714.5999999046326","","","","80","","","","","","","","","","","","","PU","","3300,6900,10500,13200","3","","","","","","","","","","","","","","","",""
"audio-keyboard-response","280","2157272","0.0-8.0-2.0-2.4-0.4","3","0","11jln087yk8jl6a","","null","","sounds/syllables/pu_SWS.wav","","null","","","","","","","","","","","","","","","","","","","","","","","","","","","","","","","",""
"html-keyboard-response","281","2158155","0.0-8.0-2.0-2.4-1.4","3","0","11jln087yk8jl6a","","882.5","","<p>To replay the <u>TARGET SOUND</u>, press P.</p> When you are ready to begin, press SPACEBAR.","","32","","","","","","","","","","","","","","","","","","","","","","","","","","","","","","","",""
"audio-keyboard-response","282","2173102","0.0-8.0-2.0-3.4","3","0","11jln087yk8jl6a","","1880","","sounds/C/TD/PU_03_TD.mp3","","32","","","TD_SUMMARY","","","","","","","","","","PU","","3300,6900,10500,13200","3","3300","6900","10500","13200","221.20000004768372","535.8000001907349","513.2000000476837","491.40000009536743","__________________________________1877.1000001430511_3521.2000000476837_7074.900000095367_7435.800000190735_8696.200000047684_9146.300000190735_10743.200000047684_11013.200000047684_12633.800000190735_13016.100000143051_13691.400000095367","1","","","","","",""
"html-button-response","283","2174676","0.0-8.0-2.0-0.5","3","0","11jln087yk8jl6a","","1571","","<p>Trial 6 of 36</p>","0","","","","","","","","","","","","","","KO","sounds/syllables/ko_SWS.wav","1800,6300,8100,12600","1","","","","","","","","","","","","","","","",""
"html-keyboard-response","284","2177074","0.0-8.0-2.0-1.5","3","0","11jln087yk8jl6a","","2400.7000000476837","","","","80","","","","","","","","","","","","","KO","","1800,6300,8100,12600","1","","","","","","","","","","","","","","","",""
"audio-keyboard-response","285","2177379","0.0-8.0-2.0-2.5-0.5","3","0","11jln087yk8jl6a","","null","","sounds/syllables/ko_SWS.wav","","null","","","","","","","","","","","","","","","","","","","","","","","","","","","","","","","",""
"html-keyboard-response","286","2178268","0.0-8.0-2.0-2.5-1.5","3","0","11jln087yk8jl6a","","888.5","","<p>To replay the <u>TARGET SOUND</u>, press P.</p> When you are ready to begin, press SPACEBAR.","","32","","","","","","","","","","","","","","","","","","","","","","","","","","","","","","","",""
"audio-keyboard-response","287","2193219","0.0-8.0-2.0-3.5","3","0","11jln087yk8jl6a","","3451","","sounds/C/TD/KO_01_TD.mp3","","32","","","TD_SUMMARY","","","","","","","","","","KO","","1800,6300,8100,12600","1","1800","6300","8100","12600","null","null","null","null","_____________________________________________3447.2999999523163_5092.299999952316_7546.600000143051_10175.400000095367_12626.900000095367","1","","","","","",""
"html-button-response","288","2197031","0.0-8.0-2.0-0.6","3","0","11jln087yk8jl6a","","3809.2999999523163","","<p>Trial 7 of 36</p>","0","","","","","","","","","","","","","","RU","sounds/syllables/ru_SWS.wav","1200,5700,7500,12000","2","","","","","","","","","","","","","","","",""
"html-keyboard-response","289","2198158","0.0-8.0-2.0-1.6","3","0","11jln087yk8jl6a","","1125.5","","","","80","","","","","","","","","","","","","RU","","1200,5700,7500,12000","2","","","","","","","","","","","","","","","",""
"audio-keyboard-response","290","2198459","0.0-8.0-2.0-2.6-0.6","3","0","11jln087yk8jl6a","","null","","sounds/syllables/ru_SWS.wav","","null","","","","","","","","","","","","","","","","","","","","","","","","","","","","","","","",""
"html-keyboard-response","291","2199373","0.0-8.0-2.0-2.6-1.6","3","0","11jln087yk8jl6a","","913.2000000476837","","<p>To replay the <u>TARGET SOUND</u>, press P.</p> When you are ready to begin, press SPACEBAR.","","32","","","","","","","","","","","","","","","","","","","","","","","","","","","","","","","",""
"audio-keyboard-response","292","2214329","0.0-8.0-2.0-3.6","3","0","11jln087yk8jl6a","","1840","","sounds/C/TD/RU_01_TD.mp3","","32","","","TD_SUMMARY","","","","","","","","","","RU","","1200,5700,7500,12000","2","1200","5700","7500","12000","646.5","905.6999998092651","null","1055","__________________________________________________1846.5_3476.399999856949_6605.699999809265_9845.5_13055","1","","","","","",""
"html-button-response","293","2275297","0.0-8.0-2.0-0.7","3","0","11jln087yk8jl6a","","60965.200000047684","","<p>Trial 8 of 36</p>","0","","","","","","","","","","","","","","FE","sounds/syllables/fe_SWS.wav","1200,3900,5700,9300","2","","","","","","","","","","","","","","","",""
"html-keyboard-response","294","2277294","0.0-8.0-2.0-1.7","3","0","11jln087yk8jl6a","","1995.5","","","","80","","","","","","","","","","","","","FE","","1200,3900,5700,9300","2","","","","","","","","","","","","","","","",""
"audio-keyboard-response","295","2277973","0.0-8.0-2.0-2.7-0.7","3","0","11jln087yk8jl6a","","null","","sounds/syllables/fe_SWS.wav","","null","","","","","","","","","","","","","","","","","","","","","","","","","","","","","","","",""
"html-keyboard-response","296","2280328","0.0-8.0-2.0-2.7-1.7","3","0","11jln087yk8jl6a","","2354.2999999523163","","<p>To replay the <u>TARGET SOUND</u>, press P.</p> When you are ready to begin, press SPACEBAR.","","32","","","","","","","","","","","","","","","","","","","","","","","","","","","","","","","",""
"audio-keyboard-response","297","2295273","0.0-8.0-2.0-3.7","3","0","11jln087yk8jl6a","","2021","","sounds/C/TD/FE_02_TD.mp3","","32","","","TD_SUMMARY","","","","","","","","","","FE","","1200,3900,5700,9300","2","1200","3900","5700","9300","816","null","null","null","_______________________________________________________2016_3978.7000000476837_5262.100000143051_5486.299999952316_8658.200000047684_9131.5_12186.799999952316_12528.700000047684","1","","","","","",""
"html-button-response","298","2297319","0.0-8.0-2.0-0.8","3","0","11jln087yk8jl6a","","2043","","<p>Trial 9 of 36</p>","0","","","","","","","","","","","","","","TA","sounds/syllables/ta_SWS.wav","4800,6600,8400,11100","2","","","","","","","","","","","","","","","",""
"html-keyboard-response","299","2298985","0.0-8.0-2.0-1.8","3","0","11jln087yk8jl6a","","1665","","","","80","","","","","","","","","","","","","TA","","4800,6600,8400,11100","2","","","","","","","","","","","","","","","",""
"audio-keyboard-response","300","2299283","0.0-8.0-2.0-2.8-0.8","3","0","11jln087yk8jl6a","","null","","sounds/syllables/ta_SWS.wav","","null","","","","","","","","","","","","","","","","","","","","","","","","","","","","","","","",""
"html-keyboard-response","301","2300560","0.0-8.0-2.0-2.8-1.8","3","0","11jln087yk8jl6a","","1276.3000001907349","","<p>To replay the <u>TARGET SOUND</u>, press P.</p> When you are ready to begin, press SPACEBAR.","","32","","","","","","","","","","","","","","","","","","","","","","","","","","","","","","","",""
"audio-keyboard-response","302","2315503","0.0-8.0-2.0-3.8","3","0","11jln087yk8jl6a","","1299","","sounds/C/TD/TA_10_TD.mp3","","32","","","TD_SUMMARY","","","","","","","","","","TA","","4800,6600,8400,11100","2","4800","6600","8400","11100","322.40000009536743","1165.7999999523163","null","null","_______________________________________________________________1297.7000000476837_3142.2999999523163_5122.400000095367_7765.799999952316_8205_10252.600000143051_12835_13222.299999952316_14302.799999952316","1","","","","","",""
"html-button-response","303","2317366","0.0-8.0-2.0-0.9","3","0","11jln087yk8jl6a","","1860.1000001430511","","<p>Trial 10 of 36</p>","0","","","","","","","","","","","","","","FU","sounds/syllables/fu_SWS.wav","2400,4200,6900,9600","3","","","","","","","","","","","","","","","",""
"html-keyboard-response","304","2318425","0.0-8.0-2.0-1.9","3","0","11jln087yk8jl6a","","1058","","","","80","","","","","","","","","","","","","FU","","2400,4200,6900,9600","3","","","","","","","","","","","","","","","",""
"audio-keyboard-response","305","2318723","0.0-8.0-2.0-2.9-0.9","3","0","11jln087yk8jl6a","","null","","sounds/syllables/fu_SWS.wav","","null","","","","","","","","","","","","","","","","","","","","","","","","","","","","","","","",""
"html-keyboard-response","306","2319505","0.0-8.0-2.0-2.9-1.9","3","0","11jln087yk8jl6a","","781.5","","<p>To replay the <u>TARGET SOUND</u>, press P.</p> When you are ready to begin, press SPACEBAR.","","32","","","","","","","","","","","","","","","","","","","","","","","","","","","","","","","",""
"audio-keyboard-response","307","2334463","0.0-8.0-2.0-3.9","3","0","11jln087yk8jl6a","","2000","","sounds/C/TD/FU_07_TD.mp3","","32","","","TD_SUMMARY","","","","","","","","","","FU","","2400,4200,6900,9600","3","2400","4200","6900","9600","885.2000000476837","null","1155.7000000476837","856.2999999523163","________________________________________________________________________1995_3285.2000000476837_6815.5_8055.700000047684_10456.299999952316_13716.5_14085.700000047684","1","","","","","",""
"html-button-response","308","2336511","0.0-8.0-2.0-0.10","3","0","11jln087yk8jl6a","","2047.4000000953674","","<p>Trial 11 of 36</p>","0","","","","","","","","","","","","","","TA","sounds/syllables/ta_SWS.wav","1200,3900,6600,11100","2","","","","","","","","","","","","","","","",""
"html-keyboard-response","309","2337885","0.0-8.0-2.0-1.10","3","0","11jln087yk8jl6a","","1373.2999999523163","","","","80","","","","","","","","","","","","","TA","","1200,3900,6600,11100","2","","","","","","","","","","","","","","","",""
"audio-keyboard-response","310","2338191","0.0-8.0-2.0-2.10-0.10","3","0","11jln087yk8jl6a","","null","","sounds/syllables/ta_SWS.wav","","null","","","","","","","","","","","","","","","","","","","","","","","","","","","","","","","",""
"html-keyboard-response","311","2339191","0.0-8.0-2.0-2.10-1.10","3","0","11jln087yk8jl6a","","998.8999998569489","","<p>To replay the <u>TARGET SOUND</u>, press P.</p> When you are ready to begin, press SPACEBAR.","","32","","","","","","","","","","","","","","","","","","","","","","","","","","","","","","","",""
"audio-keyboard-response","312","2354151","0.0-8.0-2.0-3.10","3","0","11jln087yk8jl6a","","2112","","sounds/C/TD/TA_07_TD.mp3","","32","","","TD_SUMMARY","","","","","","","","","","TA","","1200,3900,6600,11100","2","1200","3900","6600","11100","907.4000000953674","1115.9000000953674","null","null","_______________________________________________________________________________2107.4000000953674_5015.900000095367_8366.600000143051_10836.700000047684_13876","1","","","","","",""
"html-button-response","313","2357640","0.0-8.0-2.0-0.11","3","0","11jln087yk8jl6a","","3485.600000143051","","<p>Trial 12 of 36</p>","0","","","","","","","","","","","","","","NI","sounds/syllables/ni_SWS.wav","900,7200,9000,11700","1","","","","","","","","","","","","","","","",""
"html-keyboard-response","314","2458111","0.0-8.0-2.0-1.11","3","0","11jln087yk8jl6a","","100469.20000004768","","","","80","","","","","","","","","","","","","NI","","900,7200,9000,11700","1","","","","","","","","","","","","","","","",""
"audio-keyboard-response","315","2458784","0.0-8.0-2.0-2.11-0.11","3","0","11jln087yk8jl6a","","null","","sounds/syllables/ni_SWS.wav","","null","","","","","","","","","","","","","","","","","","","","","","","","","","","","","","","",""
"html-keyboard-response","316","2461750","0.0-8.0-2.0-2.11-1.11","3","0","11jln087yk8jl6a","","2965.0999999046326","","<p>To replay the <u>TARGET SOUND</u>, press P.</p> When you are ready to begin, press SPACEBAR.","","32","","","","","","","","","","","","","","","","","","","","","","","","","","","","","","","",""
"audio-keyboard-response","317","2476705","0.0-8.0-2.0-3.11","3","0","11jln087yk8jl6a","","1611","","sounds/C/TD/NI_06_TD.mp3","","32","","","TD_SUMMARY","","","","","","","","","","NI","","900,7200,9000,11700","1","900","7200","9000","11700","712.4000000953674","671.6000001430511","919.6000001430511","685.2999999523163","____________________________________________________________________________________1612.4000000953674_2943.4000000953674_3416.100000143051_5823.900000095367_7871.600000143051_9919.600000143051_12385.299999952316_14351.5","1","","","","","",""
"html-button-response","318","2478186","0.0-8.0-2.0-0.12","3","0","11jln087yk8jl6a","","1479","","<p>Trial 13 of 36</p>","0","","","","","","","","","","","","","","SU","sounds/syllables/su_SWS.wav","2700,6300,9000,12600","1","","","","","","","","","","","","","","","",""
"html-keyboard-response","319","2479486","0.0-8.0-2.0-1.12","3","0","11jln087yk8jl6a","","1298.9000000953674","","","","80","","","","","","","","","","","","","SU","","2700,6300,9000,12600","1","","","","","","","","","","","","","","","",""
"audio-keyboard-response","320","2479785","0.0-8.0-2.0-2.12-0.12","3","0","11jln087yk8jl6a","","null","","sounds/syllables/su_SWS.wav","","null","","","","","","","","","","","","","","","","","","","","","","","","","","","","","","","",""
"html-keyboard-response","321","2480926","0.0-8.0-2.0-2.12-1.12","3","0","11jln087yk8jl6a","","1140.1000001430511","","<p>To replay the <u>TARGET SOUND</u>, press P.</p> When you are ready to begin, press SPACEBAR.","","32","","","","","","","","","","","","","","","","","","","","","","","","","","","","","","","",""
"audio-keyboard-response","322","2495880","0.0-8.0-2.0-3.12","3","0","11jln087yk8jl6a","","1299","","sounds/C/TD/SU_06_TD.mp3","","32","","","TD_SUMMARY","","","","","","","","","","SU","","2700,6300,9000,12600","1","2700","6300","9000","12600","null","905.7000000476837","864.4000000953674","null","____________________________________________________________________________________________1292.5999999046326_4265.700000047684_7205.700000047684_7997.299999952316_9864.400000095367_12025.400000095367","1","","","","","",""
"html-button-response","323","2496896","0.0-8.0-2.0-0.13","3","0","11jln087yk8jl6a","","1012.4000000953674","","<p>Trial 14 of 36</p>","0","","","","","","","","","","","","","","RU","sounds/syllables/ru_SWS.wav","1200,3900,8400,10200","2","","","","","","","","","","","","","","","",""
"html-keyboard-response","324","2498392","0.0-8.0-2.0-1.13","3","0","11jln087yk8jl6a","","1494.6000001430511","","","","80","","","","","","","","","","","","","RU","","1200,3900,8400,10200","2","","","","","","","","","","","","","","","",""
"audio-keyboard-response","325","2498700","0.0-8.0-2.0-2.13-0.13","3","0","11jln087yk8jl6a","","null","","sounds/syllables/ru_SWS.wav","","null","","","","","","","","","","","","","","","","","","","","","","","","","","","","","","","",""
"html-keyboard-response","326","2571396","0.0-8.0-2.0-2.13-1.13","3","0","11jln087yk8jl6a","","72701.5","","<p>To replay the <u>TARGET SOUND</u>, press P.</p> When you are ready to begin, press SPACEBAR.","","80","","","","","","","","","","","","","","","","","","","","","","","","","","","","","","","",""
"audio-keyboard-response","327","2572606","0.0-8.0-2.0-2.14-0.14","3","0","11jln087yk8jl6a","","null","","sounds/syllables/ru_SWS.wav","","null","","","","","","","","","","","","","","","","","","","","","","","","","","","","","","","",""
"html-keyboard-response","328","2573922","0.0-8.0-2.0-2.14-1.14","3","0","11jln087yk8jl6a","","1315.5","","<p>To replay the <u>TARGET SOUND</u>, press P.</p> When you are ready to begin, press SPACEBAR.","","32","","","","","","","","","","","","","","","","","","","","","","","","","","","","","","","",""
"audio-keyboard-response","329","2588876","0.0-8.0-2.0-3.13","3","0","11jln087yk8jl6a","","1760","","sounds/C/TD/RU_03_TD.mp3","","32","","","TD_SUMMARY","","","","","","","","","","RU","","1200,3900,8400,10200","2","1200","3900","8400","10200","565.2000000476837","882.5","405.2000000476837","null","__________________________________________________________________________________________________1765.2000000476837_3815.600000143051_4782.5_8805.200000047684_11954.200000047684","2","","","","","",""
"html-button-response","330","2590488","0.0-8.0-2.0-0.14","3","0","11jln087yk8jl6a","","1608.5","","<p>Trial 15 of 36</p>","0","","","","","","","","","","","","","","PU","sounds/syllables/pu_SWS.wav","2400,4200,6900,13200","3","","","","","","","","","","","","","","","",""
"html-keyboard-response","331","2591832","0.0-8.0-2.0-1.14","3","0","11jln087yk8jl6a","","1343","","","","80","","","","","","","","","","","","","PU","","2400,4200,6900,13200","3","","","","","","","","","","","","","","","",""
"audio-keyboard-response","332","2592126","0.0-8.0-2.0-2.15-0.15","3","0","11jln087yk8jl6a","","null","","sounds/syllables/pu_SWS.wav","","null","","","","","","","","","","","","","","","","","","","","","","","","","","","","","","","",""
"html-keyboard-response","333","2593069","0.0-8.0-2.0-2.15-1.15","3","0","11jln087yk8jl6a","","943.0999999046326","","<p>To replay the <u>TARGET SOUND</u>, press P.</p> When you are ready to begin, press SPACEBAR.","","32","","","","","","","","","","","","","","","","","","","","","","","","","","","","","","","",""
