"trial_type","trial_index","time_elapsed","internal_node_id","counterbalance","lang_instruct","ParticipantID","view_history","rt","url","stimulus","button_pressed","key_press","correctRESP","correct","designation","location","correctanswer","timeouts","pause_rt01","pause_rt02","train_file","numKeyPress","sound","fam_type","SYLLABLE","EXEMPLAR","TD_LOCS","TD_TYPE","TDLOC_01","TDLOC_02","TDLOC_03","TDLOC_04","TD_RT_01","TD_RT_02","TD_RT_03","TD_RT_04","TD_SUBJ_RTs","number_of_plays","responses","slider_start","response","question_order","syllable","syllable_type"
"pavlovia","0","3","0.0-0.0","1","0","nqw56tpvpgyj4w0","","","","","","","","","","","","","","","","","","","","","","","","","","","","","","","","","","","","","",""
"instructions","1","9955","0.0-1.0","1","0","nqw56tpvpgyj4w0","[{""page_index"":0,""viewing_time"":1856},{""page_index"":1,""viewing_time"":8089.800000011921}]","9951.5","","","","","","","","","","","","","","","","","","","","","","","","","","","","","","","","","","","",""
"external-html","2","13430","0.0-2.0","1","0","nqw56tpvpgyj4w0","","3289.199999988079","consent/consent.html","","","","","","","","","","","","","","","","","","","","","","","","","","","","","","","","","","",""
"html-button-response","3","208967","0.0-3.0-0.0-0.0","1","0","nqw56tpvpgyj4w0","","195543.89999997616","","<p>Welcome to the study. You will first complete a short volume calibration and headphone check.</p><p>Please make sure you are in a quiet listening environment, that you are wearing headphones, and that your computer's volume is turned on.<p></p>","0","","","","","","","","","","","","","","","","","","","","","","","","","","","","","","","","",""
"html-button-response","4","214349","0.0-3.0-0.0-1.0","1","0","nqw56tpvpgyj4w0","","5123.800000011921","","<p>The volume calibration will be first.</p><p>You will hear a thirty-second noise. Please adjust your computer's volume so that this noise is being presented at a comfortable level.<p></p>","0","","","","","","","","","","","","","","","","","","","","","","","","","","","","","","","","",""
"audio-button-response","5","223398","0.0-3.0-0.0-2.0","1","0","nqw56tpvpgyj4w0","","8688","","audCalib/volumetest.mp3","0","","","","","","","","","","","","","","","","","","","","","","","","","","","","","","","","",""
"html-button-response","6","229504","0.0-3.0-1.0-0.0","1","0","nqw56tpvpgyj4w0","","6104.399999976158","","<p>You will now complete a short headphone check.</p><p>On each trial, you will hear three tones. One of these tones will be quieter than the others. Your task is to identify whether the quiet tone occured first, second, or third.</p><p>There are six trials in total.<p></p>","0","","","","","","","","","","","","","","","","","","","","","","","","","","","","","","","","",""
"html-keyboard-response","7","230257","0.0-3.0-1.0-1.0-0.0","1","0","nqw56tpvpgyj4w0","","null","","<div style=""font-size:60px;"">+</div>","","null","","","","","","","","","","","","","","","","","","","","","","","","","","","","","","","",""
"audio-button-response","8","234859","0.0-3.0-1.0-1.0-1.0","1","0","nqw56tpvpgyj4w0","","4597","","audCalib/t1_1.mp3","0","","0","1","headphone-test","","","","","","","","","","","","","","","","","","","","","","","","","","","","",""
"html-keyboard-response","9","235622","0.0-3.0-1.0-1.0-0.1","1","0","nqw56tpvpgyj4w0","","null","","<div style=""font-size:60px;"">+</div>","","null","","","","","","","","","","","","","","","","","","","","","","","","","","","","","","","",""
"audio-button-response","10","244120","0.0-3.0-1.0-1.0-1.1","1","0","nqw56tpvpgyj4w0","","8496","","audCalib/t1_2.mp3","0","","0","1","headphone-test","","","","","","","","","","","","","","","","","","","","","","","","","","","","",""
"html-keyboard-response","11","244875","0.0-3.0-1.0-1.0-0.2","1","0","nqw56tpvpgyj4w0","","null","","<div style=""font-size:60px;"">+</div>","","null","","","","","","","","","","","","","","","","","","","","","","","","","","","","","","","",""
"audio-button-response","12","249753","0.0-3.0-1.0-1.0-1.2","1","0","nqw56tpvpgyj4w0","","4875","","audCalib/t2_1.mp3","1","","1","1","headphone-test","","","","","","","","","","","","","","","","","","","","","","","","","","","","",""
"html-keyboard-response","13","250512","0.0-3.0-1.0-1.0-0.3","1","0","nqw56tpvpgyj4w0","","null","","<div style=""font-size:60px;"">+</div>","","null","","","","","","","","","","","","","","","","","","","","","","","","","","","","","","","",""
"audio-button-response","14","255253","0.0-3.0-1.0-1.0-1.3","1","0","nqw56tpvpgyj4w0","","4741","","audCalib/t3_1.mp3","2","","2","1","headphone-test","","","","","","","","","","","","","","","","","","","","","","","","","","","","",""
"html-keyboard-response","15","256010","0.0-3.0-1.0-1.0-0.4","1","0","nqw56tpvpgyj4w0","","null","","<div style=""font-size:60px;"">+</div>","","null","","","","","","","","","","","","","","","","","","","","","","","","","","","","","","","",""
"audio-button-response","16","260068","0.0-3.0-1.0-1.0-1.4","1","0","nqw56tpvpgyj4w0","","4053","","audCalib/t2_2.mp3","1","","1","1","headphone-test","","","","","","","","","","","","","","","","","","","","","","","","","","","","",""
"html-keyboard-response","17","260825","0.0-3.0-1.0-1.0-0.5","1","0","nqw56tpvpgyj4w0","","null","","<div style=""font-size:60px;"">+</div>","","null","","","","","","","","","","","","","","","","","","","","","","","","","","","","","","","",""
"audio-button-response","18","264843","0.0-3.0-1.0-1.0-1.5","1","0","nqw56tpvpgyj4w0","","4016","","audCalib/t3_2.mp3","2","","2","1","headphone-test","","","","","","","","","","","","","","","","","","","","","","","","","","","","",""
"html-button-response","19","266906","0.0-3.0-2.0","1","0","nqw56tpvpgyj4w0","","1811.7000000476837","","<p>The volume calibration and headphone check are now complete.</p>","0","","","","","","","","","","","","","","","","","","","","","","","","","","","","","","","","",""
"instructions","20","276340","0.0-4.0-0.0","1","0","nqw56tpvpgyj4w0","[{""page_index"":0,""viewing_time"":1179.699999988079},{""page_index"":1,""viewing_time"":6740.5},{""page_index"":2,""viewing_time"":1512.8999999761581}]","9433.399999976158","","","","","","","","","","","","","","","","","","","","","","","","","","","","","","","","","","","",""
"audio-keyboard-response","21","276643","0.0-4.0-1.0-0.0","1","0","nqw56tpvpgyj4w0","","null","","sounds/induction/right_rev/pu_SWS.wav","","null","","","","","","","","","","","","","","","","","","","","","","","","","","","","","","","",""
"html-button-response","22","278171","0.0-4.0-1.0-1.0","1","0","nqw56tpvpgyj4w0","","1524.9000000357628","","Was the sound coming from the left or the right?","1","","","1","INDUCTION-JUDGMENT","right","1","","","","","","","","","","","","","","","","","","","","","","","","","","",""
"html-keyboard-response","23","279176","0.0-4.0-1.0-2.0","1","0","nqw56tpvpgyj4w0","","null","","<p style=""color:#054d00;""><b>Correct!</b></p>","","null","","","","","","","","","","","","","","","","","","","","","","","","","","","","","","","",""
"audio-keyboard-response","24","279981","0.0-4.0-1.0-0.1","1","0","nqw56tpvpgyj4w0","","null","","sounds/induction/left_rev/pu_SWS.wav","","null","","","","","","","","","","","","","","","","","","","","","","","","","","","","","","","",""
"html-button-response","25","281143","0.0-4.0-1.0-1.1","1","0","nqw56tpvpgyj4w0","","1160.7999999523163","","Was the sound coming from the left or the right?","0","","","1","INDUCTION-JUDGMENT","left","0","","","","","","","","","","","","","","","","","","","","","","","","","","",""
"html-keyboard-response","26","282146","0.0-4.0-1.0-2.1","1","0","nqw56tpvpgyj4w0","","null","","<p style=""color:#054d00;""><b>Correct!</b></p>","","null","","","","","","","","","","","","","","","","","","","","","","","","","","","","","","","",""
"audio-keyboard-response","27","282952","0.0-4.0-1.0-0.2","1","0","nqw56tpvpgyj4w0","","null","","sounds/induction/left_rev/su_SWS.wav","","null","","","","","","","","","","","","","","","","","","","","","","","","","","","","","","","",""
"html-button-response","28","284173","0.0-4.0-1.0-1.2","1","0","nqw56tpvpgyj4w0","","1220.199999988079","","Was the sound coming from the left or the right?","0","","","1","INDUCTION-JUDGMENT","left","0","","","","","","","","","","","","","","","","","","","","","","","","","","",""
"html-keyboard-response","29","285176","0.0-4.0-1.0-2.2","1","0","nqw56tpvpgyj4w0","","null","","<p style=""color:#054d00;""><b>Correct!</b></p>","","null","","","","","","","","","","","","","","","","","","","","","","","","","","","","","","","",""
"audio-keyboard-response","30","285981","0.0-4.0-1.0-0.3","1","0","nqw56tpvpgyj4w0","","null","","sounds/induction/right_rev/fe_SWS.wav","","null","","","","","","","","","","","","","","","","","","","","","","","","","","","","","","","",""
"html-button-response","31","287302","0.0-4.0-1.0-1.3","1","0","nqw56tpvpgyj4w0","","1319","","Was the sound coming from the left or the right?","1","","","1","INDUCTION-JUDGMENT","right","1","","","","","","","","","","","","","","","","","","","","","","","","","","",""
"html-keyboard-response","32","288304","0.0-4.0-1.0-2.3","1","0","nqw56tpvpgyj4w0","","null","","<p style=""color:#054d00;""><b>Correct!</b></p>","","null","","","","","","","","","","","","","","","","","","","","","","","","","","","","","","","",""
"audio-keyboard-response","33","289111","0.0-4.0-1.0-0.4","1","0","nqw56tpvpgyj4w0","","null","","sounds/induction/left_rev/ta_SWS.wav","","null","","","","","","","","","","","","","","","","","","","","","","","","","","","","","","","",""
"html-button-response","34","290341","0.0-4.0-1.0-1.4","1","0","nqw56tpvpgyj4w0","","1225.7000000476837","","Was the sound coming from the left or the right?","0","","","1","INDUCTION-JUDGMENT","left","0","","","","","","","","","","","","","","","","","","","","","","","","","","",""
"html-keyboard-response","35","291346","0.0-4.0-1.0-2.4","1","0","nqw56tpvpgyj4w0","","null","","<p style=""color:#054d00;""><b>Correct!</b></p>","","null","","","","","","","","","","","","","","","","","","","","","","","","","","","","","","","",""
"audio-keyboard-response","36","292151","0.0-4.0-1.0-0.5","1","0","nqw56tpvpgyj4w0","","null","","sounds/induction/left_rev/ta_SWS.wav","","null","","","","","","","","","","","","","","","","","","","","","","","","","","","","","","","",""
"html-button-response","37","293113","0.0-4.0-1.0-1.5","1","0","nqw56tpvpgyj4w0","","960.6000000238419","","Was the sound coming from the left or the right?","0","","","1","INDUCTION-JUDGMENT","left","0","","","","","","","","","","","","","","","","","","","","","","","","","","",""
"html-keyboard-response","38","294119","0.0-4.0-1.0-2.5","1","0","nqw56tpvpgyj4w0","","null","","<p style=""color:#054d00;""><b>Correct!</b></p>","","null","","","","","","","","","","","","","","","","","","","","","","","","","","","","","","","",""
"audio-keyboard-response","39","294924","0.0-4.0-1.0-0.6","1","0","nqw56tpvpgyj4w0","","null","","sounds/induction/right_rev/ti_SWS.wav","","null","","","","","","","","","","","","","","","","","","","","","","","","","","","","","","","",""
"html-button-response","40","295647","0.0-4.0-1.0-1.6","1","0","nqw56tpvpgyj4w0","","722.3000000119209","","Was the sound coming from the left or the right?","1","","","1","INDUCTION-JUDGMENT","right","1","","","","","","","","","","","","","","","","","","","","","","","","","","",""
"html-keyboard-response","41","296652","0.0-4.0-1.0-2.6","1","0","nqw56tpvpgyj4w0","","null","","<p style=""color:#054d00;""><b>Correct!</b></p>","","null","","","","","","","","","","","","","","","","","","","","","","","","","","","","","","","",""
"audio-keyboard-response","42","297457","0.0-4.0-1.0-0.7","1","0","nqw56tpvpgyj4w0","","null","","sounds/induction/left_rev/ko_SWS.wav","","null","","","","","","","","","","","","","","","","","","","","","","","","","","","","","","","",""
"html-button-response","43","298049","0.0-4.0-1.0-1.7","1","0","nqw56tpvpgyj4w0","","590.8999999761581","","Was the sound coming from the left or the right?","0","","","1","INDUCTION-JUDGMENT","left","0","","","","","","","","","","","","","","","","","","","","","","","","","","",""
"html-keyboard-response","44","299053","0.0-4.0-1.0-2.7","1","0","nqw56tpvpgyj4w0","","null","","<p style=""color:#054d00;""><b>Correct!</b></p>","","null","","","","","","","","","","","","","","","","","","","","","","","","","","","","","","","",""
"audio-keyboard-response","45","299857","0.0-4.0-1.0-0.8","1","0","nqw56tpvpgyj4w0","","null","","sounds/induction/left_rev/ge_SWS.wav","","null","","","","","","","","","","","","","","","","","","","","","","","","","","","","","","","",""
"html-button-response","46","300427","0.0-4.0-1.0-1.8","1","0","nqw56tpvpgyj4w0","","568.0999999642372","","Was the sound coming from the left or the right?","0","","","1","INDUCTION-JUDGMENT","left","0","","","","","","","","","","","","","","","","","","","","","","","","","","",""
"html-keyboard-response","47","301430","0.0-4.0-1.0-2.8","1","0","nqw56tpvpgyj4w0","","null","","<p style=""color:#054d00;""><b>Correct!</b></p>","","null","","","","","","","","","","","","","","","","","","","","","","","","","","","","","","","",""
"audio-keyboard-response","48","302235","0.0-4.0-1.0-0.9","1","0","nqw56tpvpgyj4w0","","null","","sounds/induction/left_rev/su_SWS.wav","","null","","","","","","","","","","","","","","","","","","","","","","","","","","","","","","","",""
"html-button-response","49","302829","0.0-4.0-1.0-1.9","1","0","nqw56tpvpgyj4w0","","592.1999999880791","","Was the sound coming from the left or the right?","0","","","1","INDUCTION-JUDGMENT","left","0","","","","","","","","","","","","","","","","","","","","","","","","","","",""
"html-keyboard-response","50","303835","0.0-4.0-1.0-2.9","1","0","nqw56tpvpgyj4w0","","null","","<p style=""color:#054d00;""><b>Correct!</b></p>","","null","","","","","","","","","","","","","","","","","","","","","","","","","","","","","","","",""
"audio-keyboard-response","51","304641","0.0-4.0-1.0-0.10","1","0","nqw56tpvpgyj4w0","","null","","sounds/induction/right_rev/ni_SWS.wav","","null","","","","","","","","","","","","","","","","","","","","","","","","","","","","","","","",""
"html-button-response","52","305107","0.0-4.0-1.0-1.10","1","0","nqw56tpvpgyj4w0","","464.7999999523163","","Was the sound coming from the left or the right?","1","","","1","INDUCTION-JUDGMENT","right","1","","","","","","","","","","","","","","","","","","","","","","","","","","",""
"html-keyboard-response","53","306112","0.0-4.0-1.0-2.10","1","0","nqw56tpvpgyj4w0","","null","","<p style=""color:#054d00;""><b>Correct!</b></p>","","null","","","","","","","","","","","","","","","","","","","","","","","","","","","","","","","",""
"audio-keyboard-response","54","306918","0.0-4.0-1.0-0.11","1","0","nqw56tpvpgyj4w0","","null","","sounds/induction/right_rev/ge_SWS.wav","","null","","","","","","","","","","","","","","","","","","","","","","","","","","","","","","","",""
"html-button-response","55","307839","0.0-4.0-1.0-1.11","1","0","nqw56tpvpgyj4w0","","920.3000000119209","","Was the sound coming from the left or the right?","1","","","1","INDUCTION-JUDGMENT","right","1","","","","","","","","","","","","","","","","","","","","","","","","","","",""
"html-keyboard-response","56","308843","0.0-4.0-1.0-2.11","1","0","nqw56tpvpgyj4w0","","null","","<p style=""color:#054d00;""><b>Correct!</b></p>","","null","","","","","","","","","","","","","","","","","","","","","","","","","","","","","","","",""
"audio-keyboard-response","57","309648","0.0-4.0-1.0-0.12","1","0","nqw56tpvpgyj4w0","","null","","sounds/induction/left_rev/ni_SWS.wav","","null","","","","","","","","","","","","","","","","","","","","","","","","","","","","","","","",""
"html-button-response","58","310630","0.0-4.0-1.0-1.12","1","0","nqw56tpvpgyj4w0","","980.8000000119209","","Was the sound coming from the left or the right?","0","","","1","INDUCTION-JUDGMENT","left","0","","","","","","","","","","","","","","","","","","","","","","","","","","",""
"html-keyboard-response","59","311632","0.0-4.0-1.0-2.12","1","0","nqw56tpvpgyj4w0","","null","","<p style=""color:#054d00;""><b>Correct!</b></p>","","null","","","","","","","","","","","","","","","","","","","","","","","","","","","","","","","",""
"audio-keyboard-response","60","312438","0.0-4.0-1.0-0.13","1","0","nqw56tpvpgyj4w0","","null","","sounds/induction/right_rev/fu_SWS.wav","","null","","","","","","","","","","","","","","","","","","","","","","","","","","","","","","","",""
"html-button-response","61","313206","0.0-4.0-1.0-1.13","1","0","nqw56tpvpgyj4w0","","767.5999999642372","","Was the sound coming from the left or the right?","1","","","1","INDUCTION-JUDGMENT","right","1","","","","","","","","","","","","","","","","","","","","","","","","","","",""
"html-keyboard-response","62","314208","0.0-4.0-1.0-2.13","1","0","nqw56tpvpgyj4w0","","null","","<p style=""color:#054d00;""><b>Correct!</b></p>","","null","","","","","","","","","","","","","","","","","","","","","","","","","","","","","","","",""
"audio-keyboard-response","63","315013","0.0-4.0-1.0-0.14","1","0","nqw56tpvpgyj4w0","","null","","sounds/induction/right_rev/fe_SWS.wav","","null","","","","","","","","","","","","","","","","","","","","","","","","","","","","","","","",""
"html-button-response","64","315948","0.0-4.0-1.0-1.14","1","0","nqw56tpvpgyj4w0","","934","","Was the sound coming from the left or the right?","1","","","1","INDUCTION-JUDGMENT","right","1","","","","","","","","","","","","","","","","","","","","","","","","","","",""
"html-keyboard-response","65","316954","0.0-4.0-1.0-2.14","1","0","nqw56tpvpgyj4w0","","null","","<p style=""color:#054d00;""><b>Correct!</b></p>","","null","","","","","","","","","","","","","","","","","","","","","","","","","","","","","","","",""
"audio-keyboard-response","66","317760","0.0-4.0-1.0-0.15","1","0","nqw56tpvpgyj4w0","","null","","sounds/induction/left_rev/fe_SWS.wav","","null","","","","","","","","","","","","","","","","","","","","","","","","","","","","","","","",""
"html-button-response","67","318382","0.0-4.0-1.0-1.15","1","0","nqw56tpvpgyj4w0","","621.0999999642372","","Was the sound coming from the left or the right?","0","","","1","INDUCTION-JUDGMENT","left","0","","","","","","","","","","","","","","","","","","","","","","","","","","",""
"html-keyboard-response","68","319384","0.0-4.0-1.0-2.15","1","0","nqw56tpvpgyj4w0","","null","","<p style=""color:#054d00;""><b>Correct!</b></p>","","null","","","","","","","","","","","","","","","","","","","","","","","","","","","","","","","",""
"audio-keyboard-response","69","320191","0.0-4.0-1.0-0.16","1","0","nqw56tpvpgyj4w0","","null","","sounds/induction/right_rev/ko_SWS.wav","","null","","","","","","","","","","","","","","","","","","","","","","","","","","","","","","","",""
"html-button-response","70","320686","0.0-4.0-1.0-1.16","1","0","nqw56tpvpgyj4w0","","493","","Was the sound coming from the left or the right?","1","","","1","INDUCTION-JUDGMENT","right","1","","","","","","","","","","","","","","","","","","","","","","","","","","",""
"html-keyboard-response","71","321690","0.0-4.0-1.0-2.16","1","0","nqw56tpvpgyj4w0","","null","","<p style=""color:#054d00;""><b>Correct!</b></p>","","null","","","","","","","","","","","","","","","","","","","","","","","","","","","","","","","",""
"audio-keyboard-response","72","322495","0.0-4.0-1.0-0.17","1","0","nqw56tpvpgyj4w0","","null","","sounds/induction/right_rev/ta_SWS.wav","","null","","","","","","","","","","","","","","","","","","","","","","","","","","","","","","","",""
"html-button-response","73","322914","0.0-4.0-1.0-1.17","1","0","nqw56tpvpgyj4w0","","417.39999997615814","","Was the sound coming from the left or the right?","1","","","1","INDUCTION-JUDGMENT","right","1","","","","","","","","","","","","","","","","","","","","","","","","","","",""
"html-keyboard-response","74","323919","0.0-4.0-1.0-2.17","1","0","nqw56tpvpgyj4w0","","null","","<p style=""color:#054d00;""><b>Correct!</b></p>","","null","","","","","","","","","","","","","","","","","","","","","","","","","","","","","","","",""
"audio-keyboard-response","75","324725","0.0-4.0-1.0-0.18","1","0","nqw56tpvpgyj4w0","","null","","sounds/induction/left_rev/fu_SWS.wav","","null","","","","","","","","","","","","","","","","","","","","","","","","","","","","","","","",""
"html-button-response","76","325177","0.0-4.0-1.0-1.18","1","0","nqw56tpvpgyj4w0","","450.7999999523163","","Was the sound coming from the left or the right?","0","","","1","INDUCTION-JUDGMENT","left","0","","","","","","","","","","","","","","","","","","","","","","","","","","",""
"html-keyboard-response","77","326178","0.0-4.0-1.0-2.18","1","0","nqw56tpvpgyj4w0","","null","","<p style=""color:#054d00;""><b>Correct!</b></p>","","null","","","","","","","","","","","","","","","","","","","","","","","","","","","","","","","",""
"audio-keyboard-response","78","326986","0.0-4.0-1.0-0.19","1","0","nqw56tpvpgyj4w0","","null","","sounds/induction/right_rev/ge_SWS.wav","","null","","","","","","","","","","","","","","","","","","","","","","","","","","","","","","","",""
"html-button-response","79","327530","0.0-4.0-1.0-1.19","1","0","nqw56tpvpgyj4w0","","542.5999999642372","","Was the sound coming from the left or the right?","1","","","1","INDUCTION-JUDGMENT","right","1","","","","","","","","","","","","","","","","","","","","","","","","","","",""
"html-keyboard-response","80","328532","0.0-4.0-1.0-2.19","1","0","nqw56tpvpgyj4w0","","null","","<p style=""color:#054d00;""><b>Correct!</b></p>","","null","","","","","","","","","","","","","","","","","","","","","","","","","","","","","","","",""
"audio-keyboard-response","81","329343","0.0-4.0-1.0-0.20","1","0","nqw56tpvpgyj4w0","","null","","sounds/induction/right_rev/me_SWS.wav","","null","","","","","","","","","","","","","","","","","","","","","","","","","","","","","","","",""
"html-button-response","82","329816","0.0-4.0-1.0-1.20","1","0","nqw56tpvpgyj4w0","","472","","Was the sound coming from the left or the right?","1","","","1","INDUCTION-JUDGMENT","right","1","","","","","","","","","","","","","","","","","","","","","","","","","","",""
"html-keyboard-response","83","330818","0.0-4.0-1.0-2.20","1","0","nqw56tpvpgyj4w0","","null","","<p style=""color:#054d00;""><b>Correct!</b></p>","","null","","","","","","","","","","","","","","","","","","","","","","","","","","","","","","","",""
"audio-keyboard-response","84","331620","0.0-4.0-1.0-0.21","1","0","nqw56tpvpgyj4w0","","null","","sounds/induction/left_rev/re_SWS.wav","","null","","","","","","","","","","","","","","","","","","","","","","","","","","","","","","","",""
"html-button-response","85","332095","0.0-4.0-1.0-1.21","1","0","nqw56tpvpgyj4w0","","472.39999997615814","","Was the sound coming from the left or the right?","0","","","1","INDUCTION-JUDGMENT","left","0","","","","","","","","","","","","","","","","","","","","","","","","","","",""
"html-keyboard-response","86","333097","0.0-4.0-1.0-2.21","1","0","nqw56tpvpgyj4w0","","null","","<p style=""color:#054d00;""><b>Correct!</b></p>","","null","","","","","","","","","","","","","","","","","","","","","","","","","","","","","","","",""
"audio-keyboard-response","87","333902","0.0-4.0-1.0-0.22","1","0","nqw56tpvpgyj4w0","","null","","sounds/induction/left_rev/pu_SWS.wav","","null","","","","","","","","","","","","","","","","","","","","","","","","","","","","","","","",""
"html-button-response","88","334447","0.0-4.0-1.0-1.22","1","0","nqw56tpvpgyj4w0","","543.8000000119209","","Was the sound coming from the left or the right?","0","","","1","INDUCTION-JUDGMENT","left","0","","","","","","","","","","","","","","","","","","","","","","","","","","",""
"html-keyboard-response","89","335452","0.0-4.0-1.0-2.22","1","0","nqw56tpvpgyj4w0","","null","","<p style=""color:#054d00;""><b>Correct!</b></p>","","null","","","","","","","","","","","","","","","","","","","","","","","","","","","","","","","",""
"audio-keyboard-response","90","336259","0.0-4.0-1.0-0.23","1","0","nqw56tpvpgyj4w0","","null","","sounds/induction/right_rev/su_SWS.wav","","null","","","","","","","","","","","","","","","","","","","","","","","","","","","","","","","",""
"html-button-response","91","336718","0.0-4.0-1.0-1.23","1","0","nqw56tpvpgyj4w0","","456.80000001192093","","Was the sound coming from the left or the right?","1","","","1","INDUCTION-JUDGMENT","right","1","","","","","","","","","","","","","","","","","","","","","","","","","","",""
"html-keyboard-response","92","337721","0.0-4.0-1.0-2.23","1","0","nqw56tpvpgyj4w0","","null","","<p style=""color:#054d00;""><b>Correct!</b></p>","","null","","","","","","","","","","","","","","","","","","","","","","","","","","","","","","","",""
"audio-keyboard-response","93","338526","0.0-4.0-1.0-0.24","1","0","nqw56tpvpgyj4w0","","null","","sounds/induction/left_rev/re_SWS.wav","","null","","","","","","","","","","","","","","","","","","","","","","","","","","","","","","","",""
"html-button-response","94","339054","0.0-4.0-1.0-1.24","1","0","nqw56tpvpgyj4w0","","526.7999999523163","","Was the sound coming from the left or the right?","0","","","1","INDUCTION-JUDGMENT","left","0","","","","","","","","","","","","","","","","","","","","","","","","","","",""
"html-keyboard-response","95","340056","0.0-4.0-1.0-2.24","1","0","nqw56tpvpgyj4w0","","null","","<p style=""color:#054d00;""><b>Correct!</b></p>","","null","","","","","","","","","","","","","","","","","","","","","","","","","","","","","","","",""
"audio-keyboard-response","96","340862","0.0-4.0-1.0-0.25","1","0","nqw56tpvpgyj4w0","","null","","sounds/induction/left_rev/ru_SWS.wav","","null","","","","","","","","","","","","","","","","","","","","","","","","","","","","","","","",""
"html-button-response","97","341291","0.0-4.0-1.0-1.25","1","0","nqw56tpvpgyj4w0","","428.0999999642372","","Was the sound coming from the left or the right?","0","","","1","INDUCTION-JUDGMENT","left","0","","","","","","","","","","","","","","","","","","","","","","","","","","",""
"html-keyboard-response","98","342296","0.0-4.0-1.0-2.25","1","0","nqw56tpvpgyj4w0","","null","","<p style=""color:#054d00;""><b>Correct!</b></p>","","null","","","","","","","","","","","","","","","","","","","","","","","","","","","","","","","",""
"audio-keyboard-response","99","343102","0.0-4.0-1.0-0.26","1","0","nqw56tpvpgyj4w0","","null","","sounds/induction/right_rev/re_SWS.wav","","null","","","","","","","","","","","","","","","","","","","","","","","","","","","","","","","",""
"html-button-response","100","343595","0.0-4.0-1.0-1.26","1","0","nqw56tpvpgyj4w0","","491.69999998807907","","Was the sound coming from the left or the right?","1","","","1","INDUCTION-JUDGMENT","right","1","","","","","","","","","","","","","","","","","","","","","","","","","","",""
"html-keyboard-response","101","344600","0.0-4.0-1.0-2.26","1","0","nqw56tpvpgyj4w0","","null","","<p style=""color:#054d00;""><b>Correct!</b></p>","","null","","","","","","","","","","","","","","","","","","","","","","","","","","","","","","","",""
"audio-keyboard-response","102","345405","0.0-4.0-1.0-0.27","1","0","nqw56tpvpgyj4w0","","null","","sounds/induction/left_rev/ni_SWS.wav","","null","","","","","","","","","","","","","","","","","","","","","","","","","","","","","","","",""
"html-button-response","103","345948","0.0-4.0-1.0-1.27","1","0","nqw56tpvpgyj4w0","","541.1999999880791","","Was the sound coming from the left or the right?","0","","","1","INDUCTION-JUDGMENT","left","0","","","","","","","","","","","","","","","","","","","","","","","","","","",""
"html-keyboard-response","104","346952","0.0-4.0-1.0-2.27","1","0","nqw56tpvpgyj4w0","","null","","<p style=""color:#054d00;""><b>Correct!</b></p>","","null","","","","","","","","","","","","","","","","","","","","","","","","","","","","","","","",""
"audio-keyboard-response","105","347757","0.0-4.0-1.0-0.28","1","0","nqw56tpvpgyj4w0","","null","","sounds/induction/right_rev/su_SWS.wav","","null","","","","","","","","","","","","","","","","","","","","","","","","","","","","","","","",""
"html-button-response","106","348350","0.0-4.0-1.0-1.28","1","0","nqw56tpvpgyj4w0","","591.6000000238419","","Was the sound coming from the left or the right?","1","","","1","INDUCTION-JUDGMENT","right","1","","","","","","","","","","","","","","","","","","","","","","","","","","",""
"html-keyboard-response","107","349352","0.0-4.0-1.0-2.28","1","0","nqw56tpvpgyj4w0","","null","","<p style=""color:#054d00;""><b>Correct!</b></p>","","null","","","","","","","","","","","","","","","","","","","","","","","","","","","","","","","",""
"audio-keyboard-response","108","350157","0.0-4.0-1.0-0.29","1","0","nqw56tpvpgyj4w0","","null","","sounds/induction/right_rev/ti_SWS.wav","","null","","","","","","","","","","","","","","","","","","","","","","","","","","","","","","","",""
"html-button-response","109","350554","0.0-4.0-1.0-1.29","1","0","nqw56tpvpgyj4w0","","395.5","","Was the sound coming from the left or the right?","1","","","1","INDUCTION-JUDGMENT","right","1","","","","","","","","","","","","","","","","","","","","","","","","","","",""
"html-keyboard-response","110","351560","0.0-4.0-1.0-2.29","1","0","nqw56tpvpgyj4w0","","null","","<p style=""color:#054d00;""><b>Correct!</b></p>","","null","","","","","","","","","","","","","","","","","","","","","","","","","","","","","","","",""
"audio-keyboard-response","111","352365","0.0-4.0-1.0-0.30","1","0","nqw56tpvpgyj4w0","","null","","sounds/induction/right_rev/pu_SWS.wav","","null","","","","","","","","","","","","","","","","","","","","","","","","","","","","","","","",""
"html-button-response","112","353493","0.0-4.0-1.0-1.30","1","0","nqw56tpvpgyj4w0","","1126.699999988079","","Was the sound coming from the left or the right?","1","","","1","INDUCTION-JUDGMENT","right","1","","","","","","","","","","","","","","","","","","","","","","","","","","",""
"html-keyboard-response","113","354498","0.0-4.0-1.0-2.30","1","0","nqw56tpvpgyj4w0","","null","","<p style=""color:#054d00;""><b>Correct!</b></p>","","null","","","","","","","","","","","","","","","","","","","","","","","","","","","","","","","",""
"audio-keyboard-response","114","355303","0.0-4.0-1.0-0.31","1","0","nqw56tpvpgyj4w0","","null","","sounds/induction/left_rev/fu_SWS.wav","","null","","","","","","","","","","","","","","","","","","","","","","","","","","","","","","","",""
"html-button-response","115","355780","0.0-4.0-1.0-1.31","1","0","nqw56tpvpgyj4w0","","475.0999999642372","","Was the sound coming from the left or the right?","0","","","1","INDUCTION-JUDGMENT","left","0","","","","","","","","","","","","","","","","","","","","","","","","","","",""
"html-keyboard-response","116","356786","0.0-4.0-1.0-2.31","1","0","nqw56tpvpgyj4w0","","null","","<p style=""color:#054d00;""><b>Correct!</b></p>","","null","","","","","","","","","","","","","","","","","","","","","","","","","","","","","","","",""
"audio-keyboard-response","117","357591","0.0-4.0-1.0-0.32","1","0","nqw56tpvpgyj4w0","","null","","sounds/induction/left_rev/me_SWS.wav","","null","","","","","","","","","","","","","","","","","","","","","","","","","","","","","","","",""
"html-button-response","118","358000","0.0-4.0-1.0-1.32","1","0","nqw56tpvpgyj4w0","","407.5999999642372","","Was the sound coming from the left or the right?","0","","","1","INDUCTION-JUDGMENT","left","0","","","","","","","","","","","","","","","","","","","","","","","","","","",""
"html-keyboard-response","119","359005","0.0-4.0-1.0-2.32","1","0","nqw56tpvpgyj4w0","","null","","<p style=""color:#054d00;""><b>Correct!</b></p>","","null","","","","","","","","","","","","","","","","","","","","","","","","","","","","","","","",""
"audio-keyboard-response","120","359810","0.0-4.0-1.0-0.33","1","0","nqw56tpvpgyj4w0","","null","","sounds/induction/right_rev/ni_SWS.wav","","null","","","","","","","","","","","","","","","","","","","","","","","","","","","","","","","",""
"html-button-response","121","360328","0.0-4.0-1.0-1.33","1","0","nqw56tpvpgyj4w0","","517.2000000476837","","Was the sound coming from the left or the right?","1","","","1","INDUCTION-JUDGMENT","right","1","","","","","","","","","","","","","","","","","","","","","","","","","","",""
"html-keyboard-response","122","361332","0.0-4.0-1.0-2.33","1","0","nqw56tpvpgyj4w0","","null","","<p style=""color:#054d00;""><b>Correct!</b></p>","","null","","","","","","","","","","","","","","","","","","","","","","","","","","","","","","","",""
"audio-keyboard-response","123","362135","0.0-4.0-1.0-0.34","1","0","nqw56tpvpgyj4w0","","null","","sounds/induction/left_rev/ru_SWS.wav","","null","","","","","","","","","","","","","","","","","","","","","","","","","","","","","","","",""
"html-button-response","124","362607","0.0-4.0-1.0-1.34","1","0","nqw56tpvpgyj4w0","","470.80000001192093","","Was the sound coming from the left or the right?","0","","","1","INDUCTION-JUDGMENT","left","0","","","","","","","","","","","","","","","","","","","","","","","","","","",""
"html-keyboard-response","125","363612","0.0-4.0-1.0-2.34","1","0","nqw56tpvpgyj4w0","","null","","<p style=""color:#054d00;""><b>Correct!</b></p>","","null","","","","","","","","","","","","","","","","","","","","","","","","","","","","","","","",""
"audio-keyboard-response","126","364417","0.0-4.0-1.0-0.35","1","0","nqw56tpvpgyj4w0","","null","","sounds/induction/left_rev/fe_SWS.wav","","null","","","","","","","","","","","","","","","","","","","","","","","","","","","","","","","",""
"html-button-response","127","365133","0.0-4.0-1.0-1.35","1","0","nqw56tpvpgyj4w0","","714.5","","Was the sound coming from the left or the right?","0","","","1","INDUCTION-JUDGMENT","left","0","","","","","","","","","","","","","","","","","","","","","","","","","","",""
"html-keyboard-response","128","366135","0.0-4.0-1.0-2.35","1","0","nqw56tpvpgyj4w0","","null","","<p style=""color:#054d00;""><b>Correct!</b></p>","","null","","","","","","","","","","","","","","","","","","","","","","","","","","","","","","","",""
"audio-keyboard-response","129","366940","0.0-4.0-1.0-0.36","1","0","nqw56tpvpgyj4w0","","null","","sounds/induction/right_rev/ru_SWS.wav","","null","","","","","","","","","","","","","","","","","","","","","","","","","","","","","","","",""
"html-button-response","130","367387","0.0-4.0-1.0-1.36","1","0","nqw56tpvpgyj4w0","","445.7000000476837","","Was the sound coming from the left or the right?","1","","","1","INDUCTION-JUDGMENT","right","1","","","","","","","","","","","","","","","","","","","","","","","","","","",""
"html-keyboard-response","131","368389","0.0-4.0-1.0-2.36","1","0","nqw56tpvpgyj4w0","","null","","<p style=""color:#054d00;""><b>Correct!</b></p>","","null","","","","","","","","","","","","","","","","","","","","","","","","","","","","","","","",""
"audio-keyboard-response","132","369196","0.0-4.0-1.0-0.37","1","0","nqw56tpvpgyj4w0","","null","","sounds/induction/right_rev/ko_SWS.wav","","null","","","","","","","","","","","","","","","","","","","","","","","","","","","","","","","",""
"html-button-response","133","370120","0.0-4.0-1.0-1.37","1","0","nqw56tpvpgyj4w0","","922.8000000119209","","Was the sound coming from the left or the right?","1","","","1","INDUCTION-JUDGMENT","right","1","","","","","","","","","","","","","","","","","","","","","","","","","","",""
"html-keyboard-response","134","371126","0.0-4.0-1.0-2.37","1","0","nqw56tpvpgyj4w0","","null","","<p style=""color:#054d00;""><b>Correct!</b></p>","","null","","","","","","","","","","","","","","","","","","","","","","","","","","","","","","","",""
"audio-keyboard-response","135","371937","0.0-4.0-1.0-0.38","1","0","nqw56tpvpgyj4w0","","null","","sounds/induction/left_rev/ge_SWS.wav","","null","","","","","","","","","","","","","","","","","","","","","","","","","","","","","","","",""
"html-button-response","136","372382","0.0-4.0-1.0-1.38","1","0","nqw56tpvpgyj4w0","","443.5","","Was the sound coming from the left or the right?","0","","","1","INDUCTION-JUDGMENT","left","0","","","","","","","","","","","","","","","","","","","","","","","","","","",""
"html-keyboard-response","137","373385","0.0-4.0-1.0-2.38","1","0","nqw56tpvpgyj4w0","","null","","<p style=""color:#054d00;""><b>Correct!</b></p>","","null","","","","","","","","","","","","","","","","","","","","","","","","","","","","","","","",""
"audio-keyboard-response","138","374187","0.0-4.0-1.0-0.39","1","0","nqw56tpvpgyj4w0","","null","","sounds/induction/left_rev/ko_SWS.wav","","null","","","","","","","","","","","","","","","","","","","","","","","","","","","","","","","",""
"html-button-response","139","374635","0.0-4.0-1.0-1.39","1","0","nqw56tpvpgyj4w0","","446.30000001192093","","Was the sound coming from the left or the right?","0","","","1","INDUCTION-JUDGMENT","left","0","","","","","","","","","","","","","","","","","","","","","","","","","","",""
"html-keyboard-response","140","375641","0.0-4.0-1.0-2.39","1","0","nqw56tpvpgyj4w0","","null","","<p style=""color:#054d00;""><b>Correct!</b></p>","","null","","","","","","","","","","","","","","","","","","","","","","","","","","","","","","","",""
"audio-keyboard-response","141","376448","0.0-4.0-1.0-0.40","1","0","nqw56tpvpgyj4w0","","null","","sounds/induction/left_rev/ti_SWS.wav","","null","","","","","","","","","","","","","","","","","","","","","","","","","","","","","","","",""
"html-button-response","142","376798","0.0-4.0-1.0-1.40","1","0","nqw56tpvpgyj4w0","","348.30000001192093","","Was the sound coming from the left or the right?","0","","","1","INDUCTION-JUDGMENT","left","0","","","","","","","","","","","","","","","","","","","","","","","","","","",""
"html-keyboard-response","143","377803","0.0-4.0-1.0-2.40","1","0","nqw56tpvpgyj4w0","","null","","<p style=""color:#054d00;""><b>Correct!</b></p>","","null","","","","","","","","","","","","","","","","","","","","","","","","","","","","","","","",""
"audio-keyboard-response","144","378608","0.0-4.0-1.0-0.41","1","0","nqw56tpvpgyj4w0","","null","","sounds/induction/right_rev/ru_SWS.wav","","null","","","","","","","","","","","","","","","","","","","","","","","","","","","","","","","",""
"html-button-response","145","379193","0.0-4.0-1.0-1.41","1","0","nqw56tpvpgyj4w0","","582.5","","Was the sound coming from the left or the right?","1","","","1","INDUCTION-JUDGMENT","right","1","","","","","","","","","","","","","","","","","","","","","","","","","","",""
"html-keyboard-response","146","380196","0.0-4.0-1.0-2.41","1","0","nqw56tpvpgyj4w0","","null","","<p style=""color:#054d00;""><b>Correct!</b></p>","","null","","","","","","","","","","","","","","","","","","","","","","","","","","","","","","","",""
"audio-keyboard-response","147","381003","0.0-4.0-1.0-0.42","1","0","nqw56tpvpgyj4w0","","null","","sounds/induction/right_rev/fu_SWS.wav","","null","","","","","","","","","","","","","","","","","","","","","","","","","","","","","","","",""
"html-button-response","148","381496","0.0-4.0-1.0-1.42","1","0","nqw56tpvpgyj4w0","","491.5","","Was the sound coming from the left or the right?","1","","","1","INDUCTION-JUDGMENT","right","1","","","","","","","","","","","","","","","","","","","","","","","","","","",""
"html-keyboard-response","149","382501","0.0-4.0-1.0-2.42","1","0","nqw56tpvpgyj4w0","","null","","<p style=""color:#054d00;""><b>Correct!</b></p>","","null","","","","","","","","","","","","","","","","","","","","","","","","","","","","","","","",""
"audio-keyboard-response","150","383306","0.0-4.0-1.0-0.43","1","0","nqw56tpvpgyj4w0","","null","","sounds/induction/left_rev/ti_SWS.wav","","null","","","","","","","","","","","","","","","","","","","","","","","","","","","","","","","",""
"html-button-response","151","383758","0.0-4.0-1.0-1.43","1","0","nqw56tpvpgyj4w0","","449.80000001192093","","Was the sound coming from the left or the right?","0","","","1","INDUCTION-JUDGMENT","left","0","","","","","","","","","","","","","","","","","","","","","","","","","","",""
"html-keyboard-response","152","384762","0.0-4.0-1.0-2.43","1","0","nqw56tpvpgyj4w0","","null","","<p style=""color:#054d00;""><b>Correct!</b></p>","","null","","","","","","","","","","","","","","","","","","","","","","","","","","","","","","","",""
"audio-keyboard-response","153","385568","0.0-4.0-1.0-0.44","1","0","nqw56tpvpgyj4w0","","null","","sounds/induction/right_rev/me_SWS.wav","","null","","","","","","","","","","","","","","","","","","","","","","","","","","","","","","","",""
"html-button-response","154","386103","0.0-4.0-1.0-1.44","1","0","nqw56tpvpgyj4w0","","533.8000000119209","","Was the sound coming from the left or the right?","1","","","1","INDUCTION-JUDGMENT","right","1","","","","","","","","","","","","","","","","","","","","","","","","","","",""
"html-keyboard-response","155","387107","0.0-4.0-1.0-2.44","1","0","nqw56tpvpgyj4w0","","null","","<p style=""color:#054d00;""><b>Correct!</b></p>","","null","","","","","","","","","","","","","","","","","","","","","","","","","","","","","","","",""
"audio-keyboard-response","156","387914","0.0-4.0-1.0-0.45","1","0","nqw56tpvpgyj4w0","","null","","sounds/induction/left_rev/me_SWS.wav","","null","","","","","","","","","","","","","","","","","","","","","","","","","","","","","","","",""
"html-button-response","157","388431","0.0-4.0-1.0-1.45","1","0","nqw56tpvpgyj4w0","","515","","Was the sound coming from the left or the right?","0","","","1","INDUCTION-JUDGMENT","left","0","","","","","","","","","","","","","","","","","","","","","","","","","","",""
"html-keyboard-response","158","389434","0.0-4.0-1.0-2.45","1","0","nqw56tpvpgyj4w0","","null","","<p style=""color:#054d00;""><b>Correct!</b></p>","","null","","","","","","","","","","","","","","","","","","","","","","","","","","","","","","","",""
"audio-keyboard-response","159","390239","0.0-4.0-1.0-0.46","1","0","nqw56tpvpgyj4w0","","null","","sounds/induction/right_rev/re_SWS.wav","","null","","","","","","","","","","","","","","","","","","","","","","","","","","","","","","","",""
"html-button-response","160","391320","0.0-4.0-1.0-1.46","1","0","nqw56tpvpgyj4w0","","1079","","Was the sound coming from the left or the right?","1","","","1","INDUCTION-JUDGMENT","right","1","","","","","","","","","","","","","","","","","","","","","","","","","","",""
"html-keyboard-response","161","392323","0.0-4.0-1.0-2.46","1","0","nqw56tpvpgyj4w0","","null","","<p style=""color:#054d00;""><b>Correct!</b></p>","","null","","","","","","","","","","","","","","","","","","","","","","","","","","","","","","","",""
"audio-keyboard-response","162","393130","0.0-4.0-1.0-0.47","1","0","nqw56tpvpgyj4w0","","null","","sounds/induction/right_rev/ta_SWS.wav","","null","","","","","","","","","","","","","","","","","","","","","","","","","","","","","","","",""
"html-button-response","163","393582","0.0-4.0-1.0-1.47","1","0","nqw56tpvpgyj4w0","","450.80000001192093","","Was the sound coming from the left or the right?","1","","","1","INDUCTION-JUDGMENT","right","1","","","","","","","","","","","","","","","","","","","","","","","","","","",""
"html-keyboard-response","164","394586","0.0-4.0-1.0-2.47","1","0","nqw56tpvpgyj4w0","","null","","<p style=""color:#054d00;""><b>Correct!</b></p>","","null","","","","","","","","","","","","","","","","","","","","","","","","","","","","","","","",""
"html-button-response","165","402107","0.0-5.0-0.0","1","0","nqw56tpvpgyj4w0","","7017.199999988079","","<p>Thank you for your answers.</p><p>You will now listen to similar sounds. The main difference is that the sounds will be longer.</p><p>Just as before, you will be asked to judge whether the sound was coming from the left or the right.</p><p>There are 10 of these longer sounds in total.","0","","","","","","","","","","","","","","","","","","","","","","","","","","","","","","","","",""
"audio-keyboard-response","166","404841","0.0-5.0-1.0-0.0","1","0","nqw56tpvpgyj4w0","","null","","sounds/sentences/right_rev/14_09_cfSWS.wav","","null","","","","","","","","","","","","","","","","","","","","","","","","","","","","","","","",""
"html-button-response","167","405935","0.0-5.0-1.0-1.0","1","0","nqw56tpvpgyj4w0","","1091.699999988079","","Was the sound coming from the left or the right?","1","","","1","INDUCTION-JUDGMENT","right","1","","","","","","","","","","","","","","","","","","","","","","","","","","",""
"html-keyboard-response","168","406937","0.0-5.0-1.0-2.0","1","0","nqw56tpvpgyj4w0","","null","","<p style=""color:#054d00;""><b>Correct!</b></p>","","null","","","","","","","","","","","","","","","","","","","","","","","","","","","","","","","",""
"html-button-response","169","408763","0.0-5.0-1.0-3.0","1","0","nqw56tpvpgyj4w0","","1324.7999999523163","","<p>Press the button below when you are ready to continue.</p>","0","","","","","","","","","","","","","","","","","","","","","","","","","","","","","","","","",""
"audio-keyboard-response","170","411315","0.0-5.0-1.0-0.1","1","0","nqw56tpvpgyj4w0","","null","","sounds/sentences/left_rev/14_04_cfSWS.wav","","null","","","","","","","","","","","","","","","","","","","","","","","","","","","","","","","",""
"html-button-response","171","412239","0.0-5.0-1.0-1.1","1","0","nqw56tpvpgyj4w0","","922.5999999642372","","Was the sound coming from the left or the right?","0","","","1","INDUCTION-JUDGMENT","left","0","","","","","","","","","","","","","","","","","","","","","","","","","","",""
"html-keyboard-response","172","413244","0.0-5.0-1.0-2.1","1","0","nqw56tpvpgyj4w0","","null","","<p style=""color:#054d00;""><b>Correct!</b></p>","","null","","","","","","","","","","","","","","","","","","","","","","","","","","","","","","","",""
"html-button-response","173","415138","0.0-5.0-1.0-3.1","1","0","nqw56tpvpgyj4w0","","1390.199999988079","","<p>Press the button below when you are ready to continue.</p>","0","","","","","","","","","","","","","","","","","","","","","","","","","","","","","","","","",""
"audio-keyboard-response","174","418029","0.0-5.0-1.0-0.2","1","0","nqw56tpvpgyj4w0","","null","","sounds/sentences/right_rev/14_07_cfSWS.wav","","null","","","","","","","","","","","","","","","","","","","","","","","","","","","","","","","",""
"html-button-response","175","418645","0.0-5.0-1.0-1.2","1","0","nqw56tpvpgyj4w0","","613.8999999761581","","Was the sound coming from the left or the right?","1","","","1","INDUCTION-JUDGMENT","right","1","","","","","","","","","","","","","","","","","","","","","","","","","","",""
"html-keyboard-response","176","419650","0.0-5.0-1.0-2.2","1","0","nqw56tpvpgyj4w0","","null","","<p style=""color:#054d00;""><b>Correct!</b></p>","","null","","","","","","","","","","","","","","","","","","","","","","","","","","","","","","","",""
"html-button-response","177","420997","0.0-5.0-1.0-3.2","1","0","nqw56tpvpgyj4w0","","843.7999999523163","","<p>Press the button below when you are ready to continue.</p>","0","","","","","","","","","","","","","","","","","","","","","","","","","","","","","","","","",""
"audio-keyboard-response","178","423821","0.0-5.0-1.0-0.3","1","0","nqw56tpvpgyj4w0","","null","","sounds/sentences/left_rev/14_02_cfSWS.wav","","null","","","","","","","","","","","","","","","","","","","","","","","","","","","","","","","",""
"html-button-response","179","424601","0.0-5.0-1.0-1.3","1","0","nqw56tpvpgyj4w0","","778.3000000119209","","Was the sound coming from the left or the right?","0","","","1","INDUCTION-JUDGMENT","left","0","","","","","","","","","","","","","","","","","","","","","","","","","","",""
"html-keyboard-response","180","425607","0.0-5.0-1.0-2.3","1","0","nqw56tpvpgyj4w0","","null","","<p style=""color:#054d00;""><b>Correct!</b></p>","","null","","","","","","","","","","","","","","","","","","","","","","","","","","","","","","","",""
"html-button-response","181","426725","0.0-5.0-1.0-3.3","1","0","nqw56tpvpgyj4w0","","614.1000000238419","","<p>Press the button below when you are ready to continue.</p>","0","","","","","","","","","","","","","","","","","","","","","","","","","","","","","","","","",""
"audio-keyboard-response","182","429484","0.0-5.0-1.0-0.4","1","0","nqw56tpvpgyj4w0","","null","","sounds/sentences/right_rev/14_08_cfSWS.wav","","null","","","","","","","","","","","","","","","","","","","","","","","","","","","","","","","",""
"html-button-response","183","430211","0.0-5.0-1.0-1.4","1","0","nqw56tpvpgyj4w0","","724.8000000119209","","Was the sound coming from the left or the right?","1","","","1","INDUCTION-JUDGMENT","right","1","","","","","","","","","","","","","","","","","","","","","","","","","","",""
"html-keyboard-response","184","431218","0.0-5.0-1.0-2.4","1","0","nqw56tpvpgyj4w0","","null","","<p style=""color:#054d00;""><b>Correct!</b></p>","","null","","","","","","","","","","","","","","","","","","","","","","","","","","","","","","","",""
"html-button-response","185","432388","0.0-5.0-1.0-3.4","1","0","nqw56tpvpgyj4w0","","667","","<p>Press the button below when you are ready to continue.</p>","0","","","","","","","","","","","","","","","","","","","","","","","","","","","","","","","","",""
"audio-keyboard-response","186","435377","0.0-5.0-1.0-0.5","1","0","nqw56tpvpgyj4w0","","null","","sounds/sentences/left_rev/14_05_cfSWS.wav","","null","","","","","","","","","","","","","","","","","","","","","","","","","","","","","","","",""
"html-button-response","187","436197","0.0-5.0-1.0-1.5","1","0","nqw56tpvpgyj4w0","","816.6000000238419","","Was the sound coming from the left or the right?","0","","","1","INDUCTION-JUDGMENT","left","0","","","","","","","","","","","","","","","","","","","","","","","","","","",""
"html-keyboard-response","188","437201","0.0-5.0-1.0-2.5","1","0","nqw56tpvpgyj4w0","","null","","<p style=""color:#054d00;""><b>Correct!</b></p>","","null","","","","","","","","","","","","","","","","","","","","","","","","","","","","","","","",""
"html-button-response","189","438399","0.0-5.0-1.0-3.5","1","0","nqw56tpvpgyj4w0","","695.3999999761581","","<p>Press the button below when you are ready to continue.</p>","0","","","","","","","","","","","","","","","","","","","","","","","","","","","","","","","","",""
"audio-keyboard-response","190","441147","0.0-5.0-1.0-0.6","1","0","nqw56tpvpgyj4w0","","null","","sounds/sentences/right_rev/14_06_cfSWS.wav","","null","","","","","","","","","","","","","","","","","","","","","","","","","","","","","","","",""
"html-button-response","191","442006","0.0-5.0-1.0-1.6","1","0","nqw56tpvpgyj4w0","","856","","Was the sound coming from the left or the right?","1","","","1","INDUCTION-JUDGMENT","right","1","","","","","","","","","","","","","","","","","","","","","","","","","","",""
"html-keyboard-response","192","443009","0.0-5.0-1.0-2.6","1","0","nqw56tpvpgyj4w0","","null","","<p style=""color:#054d00;""><b>Correct!</b></p>","","null","","","","","","","","","","","","","","","","","","","","","","","","","","","","","","","",""
"html-button-response","193","444325","0.0-5.0-1.0-3.6","1","0","nqw56tpvpgyj4w0","","813.7000000476837","","<p>Press the button below when you are ready to continue.</p>","0","","","","","","","","","","","","","","","","","","","","","","","","","","","","","","","","",""
"audio-keyboard-response","194","446912","0.0-5.0-1.0-0.7","1","0","nqw56tpvpgyj4w0","","null","","sounds/sentences/left_rev/14_03_cfSWS.wav","","null","","","","","","","","","","","","","","","","","","","","","","","","","","","","","","","",""
"html-button-response","195","447757","0.0-5.0-1.0-1.7","1","0","nqw56tpvpgyj4w0","","843.1999999880791","","Was the sound coming from the left or the right?","0","","","1","INDUCTION-JUDGMENT","left","0","","","","","","","","","","","","","","","","","","","","","","","","","","",""
"html-keyboard-response","196","448763","0.0-5.0-1.0-2.7","1","0","nqw56tpvpgyj4w0","","null","","<p style=""color:#054d00;""><b>Correct!</b></p>","","null","","","","","","","","","","","","","","","","","","","","","","","","","","","","","","","",""
"html-button-response","197","449886","0.0-5.0-1.0-3.7","1","0","nqw56tpvpgyj4w0","","620.5","","<p>Press the button below when you are ready to continue.</p>","0","","","","","","","","","","","","","","","","","","","","","","","","","","","","","","","","",""
"audio-keyboard-response","198","452906","0.0-5.0-1.0-0.8","1","0","nqw56tpvpgyj4w0","","null","","sounds/sentences/right_rev/14_10_cfSWS.wav","","null","","","","","","","","","","","","","","","","","","","","","","","","","","","","","","","",""
"html-button-response","199","453706","0.0-5.0-1.0-1.8","1","0","nqw56tpvpgyj4w0","","796.6000000238419","","Was the sound coming from the left or the right?","1","","","1","INDUCTION-JUDGMENT","right","1","","","","","","","","","","","","","","","","","","","","","","","","","","",""
"html-keyboard-response","200","454709","0.0-5.0-1.0-2.8","1","0","nqw56tpvpgyj4w0","","null","","<p style=""color:#054d00;""><b>Correct!</b></p>","","null","","","","","","","","","","","","","","","","","","","","","","","","","","","","","","","",""
"html-button-response","201","455975","0.0-5.0-1.0-3.8","1","0","nqw56tpvpgyj4w0","","764.1000000238419","","<p>Press the button below when you are ready to continue.</p>","0","","","","","","","","","","","","","","","","","","","","","","","","","","","","","","","","",""
"audio-keyboard-response","202","459098","0.0-5.0-1.0-0.9","1","0","nqw56tpvpgyj4w0","","null","","sounds/sentences/left_rev/14_01_cfSWS.wav","","null","","","","","","","","","","","","","","","","","","","","","","","","","","","","","","","",""
"html-button-response","203","459618","0.0-5.0-1.0-1.9","1","0","nqw56tpvpgyj4w0","","517.6999999880791","","Was the sound coming from the left or the right?","0","","","1","INDUCTION-JUDGMENT","left","0","","","","","","","","","","","","","","","","","","","","","","","","","","",""
"html-keyboard-response","204","460623","0.0-5.0-1.0-2.9","1","0","nqw56tpvpgyj4w0","","null","","<p style=""color:#054d00;""><b>Correct!</b></p>","","null","","","","","","","","","","","","","","","","","","","","","","","","","","","","","","","",""
"html-button-response","205","461715","0.0-5.0-1.0-3.9","1","0","nqw56tpvpgyj4w0","","589.5","","<p>Press the button below when you are ready to continue.</p>","0","","","","","","","","","","","","","","","","","","","","","","","","","","","","","","","","",""
"html-keyboard-response","206","1415747","0.0-6.0-0.0","1","0","nqw56tpvpgyj4w0","","953462.8000000119","","<p>In this part of the study, you will hear sounds similar to those you just heard.</p><p>Please focus on these sounds, as you may be asked questions about them later.</p><p>Occasionally, the sounds will pause for up to two seconds. When this happens, please press SPACEBAR as quickly as you can.</br>This helps ensure that you are paying attention to the sounds.</p><p>This part of the study will take about 12 minutes to complete, and you will be given the opportunity to take a couple of short breaks every few minutes.</p><p><strong>Press SPACEBAR to begin</strong></p>","","32","","","","","","","","","","","","","","","","","","","","","","","","","","","","","","","",""
"html-keyboard-response","207","1416754","0.0-6.0-1.0-0.0","1","0","nqw56tpvpgyj4w0","","null","","<p style=""font-size: 40px;"">+</p>","","null","","","","","","","","","","","","","","","","","","","","","","","","","","","","","","","",""
"html-keyboard-response","208","1601756","0.0-6.0-1.0-1.0","1","0","nqw56tpvpgyj4w0","","null","","","","null","","","SL-TRAIN","","","0","745.6999999880791","428.9000000357628","sounds/A/TRAIN/SEQ__10.mp3","2","","","","","","","","","","","","","","","","","","","","","",""
"html-button-response","209","1810421","0.0-6.0-1.0-2.0","1","0","nqw56tpvpgyj4w0","","208668.19999998808","","<p>You may take a short break if you wish.</p>","0","","","","","","","","","","","","","","","","","","","","","","","","","","","","","","","","",""
"html-keyboard-response","210","1811429","0.0-6.0-1.0-3.0","1","0","nqw56tpvpgyj4w0","","null","","<p style=""font-size: 40px;"">+</p>","","null","","","","","","","","","","","","","","","","","","","","","","","","","","","","","","","",""
"html-keyboard-response","211","1996432","0.0-6.0-1.0-4.0","1","0","nqw56tpvpgyj4w0","","null","","","","null","","","SL-TRAIN","","","0","593","611.8999999761581","sounds/A/TRAIN/SEQ__04.mp3","5","","","","","","","","","","","","","","","","","","","","","",""
"html-button-response","212","2032708","0.0-6.0-1.0-5.0","1","0","nqw56tpvpgyj4w0","","36276.59999996424","","<p>You may take a short break if you wish.</p>","0","","","","","","","","","","","","","","","","","","","","","","","","","","","","","","","","",""
"html-keyboard-response","213","2033710","0.0-6.0-1.0-6.0","1","0","nqw56tpvpgyj4w0","","null","","<p style=""font-size: 40px;"">+</p>","","null","","","","","","","","","","","","","","","","","","","","","","","","","","","","","","","",""
"html-keyboard-response","214","2218708","0.0-6.0-1.0-7.0","1","0","nqw56tpvpgyj4w0","","null","","","","null","","","SL-TRAIN","","","0","668.4000000357628","639.6000000238419","sounds/A/TRAIN/SEQ__07.mp3","10","","","","","","","","","","","","","","","","","","","","","",""
"html-button-response","215","2246898","0.0-6.0-1.0-8.0","1","0","nqw56tpvpgyj4w0","","28189.80000001192","","<p>You may take a short break if you wish.</p>","0","","","","","","","","","","","","","","","","","","","","","","","","","","","","","","","","",""
"html-keyboard-response","216","2247900","0.0-6.0-1.0-9.0","1","0","nqw56tpvpgyj4w0","","null","","<p style=""font-size: 40px;"">+</p>","","null","","","","","","","","","","","","","","","","","","","","","","","","","","","","","","","",""
"html-keyboard-response","217","2432898","0.0-6.0-1.0-10.0","1","0","nqw56tpvpgyj4w0","","null","","","","null","","","SL-TRAIN","","","0","711.6999999880791","1016.3000000119209","sounds/A/TRAIN/SEQ__03.mp3","8","","","","","","","","","","","","","","","","","","","","","",""
"html-button-response","218","2446391","0.0-6.0-1.0-11.0","1","0","nqw56tpvpgyj4w0","","13489.800000011921","","<p>You may take a short break if you wish.</p>","0","","","","","","","","","","","","","","","","","","","","","","","","","","","","","","","","",""
"html-button-response","219","2452194","0.0-7.0-0.0","1","0","nqw56tpvpgyj4w0","","5802.5","","<p>Welcome to the second part of the study. This is a <u>familiarity task</u>.</p><p>You will now hear short sounds and will be asked to rate how familiar they sound to you <b>based on what you heard in the previous part of the study</b>.</p><p>You will rate 12 sounds in total.</p>","0","","","","","","","","","","","","","","","","","","","","","","","","","","","","","","","","",""
"html-keyboard-response","220","2453200","0.0-7.0-1.0-0.0","1","0","nqw56tpvpgyj4w0","","null","","","","null","","","","","","","","","","","","","","","","","","","","","","","","","","","","","","","",""
"audio-keyboard-response","221","2454215","0.0-7.0-1.0-1.0","1","0","nqw56tpvpgyj4w0","","null","","sounds/A/FAM/N003.mp3","","null","","","","","","","","","","","","","","","","","","","","","","","","","","","","","","","",""
"html-keyboard-response","222","2458495","0.0-7.0-1.0-2.0","1","0","nqw56tpvpgyj4w0","","3778.900000035763","","<p>How familiar did this sound to you?</p><p>1&nbsp;&nbsp;&nbsp;&nbsp;&nbsp;&nbsp;&nbsp;&nbsp;&nbsp;&nbsp;&nbsp;&nbsp;&nbsp;&nbsp;&nbsp;&nbsp;&nbsp;&nbsp;&nbsp;2&nbsp;&nbsp;&nbsp;&nbsp;&nbsp;&nbsp;&nbsp;&nbsp;&nbsp;&nbsp;&nbsp;&nbsp;&nbsp;&nbsp;&nbsp;&nbsp;&nbsp;&nbsp;&nbsp;3&nbsp;&nbsp;&nbsp;&nbsp;&nbsp;&nbsp;&nbsp;&nbsp;&nbsp;&nbsp;&nbsp;&nbsp;&nbsp;&nbsp;&nbsp;&nbsp;&nbsp;&nbsp;&nbsp;4</p><p style=""font-size:14px"">Not at all familiar&nbsp;&nbsp;&nbsp;&nbsp;A little familiar&nbsp;&nbsp;&nbsp;Moderately familiar&nbsp;&nbsp;&nbsp;Extremely familiar</p><p>(press the corresponding number on your keyboard)</p>","","51","","","FAM-RESPONSE","","","","","","","","sounds/A/FAM/N003.mp3","nonword","","","","","","","","","","","","","","","","","","","",""
"html-keyboard-response","223","2460502","0.0-7.0-1.0-0.1","1","0","nqw56tpvpgyj4w0","","null","","","","null","","","","","","","","","","","","","","","","","","","","","","","","","","","","","","","",""
"audio-keyboard-response","224","2461446","0.0-7.0-1.0-1.1","1","0","nqw56tpvpgyj4w0","","null","","sounds/A/FAM/W004.mp3","","null","","","","","","","","","","","","","","","","","","","","","","","","","","","","","","","",""
"html-keyboard-response","225","2463152","0.0-7.0-1.0-2.1","1","0","nqw56tpvpgyj4w0","","1204.3999999761581","","<p>How familiar did this sound to you?</p><p>1&nbsp;&nbsp;&nbsp;&nbsp;&nbsp;&nbsp;&nbsp;&nbsp;&nbsp;&nbsp;&nbsp;&nbsp;&nbsp;&nbsp;&nbsp;&nbsp;&nbsp;&nbsp;&nbsp;2&nbsp;&nbsp;&nbsp;&nbsp;&nbsp;&nbsp;&nbsp;&nbsp;&nbsp;&nbsp;&nbsp;&nbsp;&nbsp;&nbsp;&nbsp;&nbsp;&nbsp;&nbsp;&nbsp;3&nbsp;&nbsp;&nbsp;&nbsp;&nbsp;&nbsp;&nbsp;&nbsp;&nbsp;&nbsp;&nbsp;&nbsp;&nbsp;&nbsp;&nbsp;&nbsp;&nbsp;&nbsp;&nbsp;4</p><p style=""font-size:14px"">Not at all familiar&nbsp;&nbsp;&nbsp;&nbsp;A little familiar&nbsp;&nbsp;&nbsp;Moderately familiar&nbsp;&nbsp;&nbsp;Extremely familiar</p><p>(press the corresponding number on your keyboard)</p>","","52","","","FAM-RESPONSE","","","","","","","","sounds/A/FAM/W004.mp3","word","","","","","","","","","","","","","","","","","","","",""
"html-keyboard-response","226","2465160","0.0-7.0-1.0-0.2","1","0","nqw56tpvpgyj4w0","","null","","","","null","","","","","","","","","","","","","","","","","","","","","","","","","","","","","","","",""
"audio-keyboard-response","227","2466102","0.0-7.0-1.0-1.2","1","0","nqw56tpvpgyj4w0","","null","","sounds/A/FAM/W003.mp3","","null","","","","","","","","","","","","","","","","","","","","","","","","","","","","","","","",""
"html-keyboard-response","228","2469880","0.0-7.0-1.0-2.2","1","0","nqw56tpvpgyj4w0","","3275.800000011921","","<p>How familiar did this sound to you?</p><p>1&nbsp;&nbsp;&nbsp;&nbsp;&nbsp;&nbsp;&nbsp;&nbsp;&nbsp;&nbsp;&nbsp;&nbsp;&nbsp;&nbsp;&nbsp;&nbsp;&nbsp;&nbsp;&nbsp;2&nbsp;&nbsp;&nbsp;&nbsp;&nbsp;&nbsp;&nbsp;&nbsp;&nbsp;&nbsp;&nbsp;&nbsp;&nbsp;&nbsp;&nbsp;&nbsp;&nbsp;&nbsp;&nbsp;3&nbsp;&nbsp;&nbsp;&nbsp;&nbsp;&nbsp;&nbsp;&nbsp;&nbsp;&nbsp;&nbsp;&nbsp;&nbsp;&nbsp;&nbsp;&nbsp;&nbsp;&nbsp;&nbsp;4</p><p style=""font-size:14px"">Not at all familiar&nbsp;&nbsp;&nbsp;&nbsp;A little familiar&nbsp;&nbsp;&nbsp;Moderately familiar&nbsp;&nbsp;&nbsp;Extremely familiar</p><p>(press the corresponding number on your keyboard)</p>","","51","","","FAM-RESPONSE","","","","","","","","sounds/A/FAM/W003.mp3","word","","","","","","","","","","","","","","","","","","","",""
"html-keyboard-response","229","2471883","0.0-7.0-1.0-0.3","1","0","nqw56tpvpgyj4w0","","null","","","","null","","","","","","","","","","","","","","","","","","","","","","","","","","","","","","","",""
"audio-keyboard-response","230","2472827","0.0-7.0-1.0-1.3","1","0","nqw56tpvpgyj4w0","","null","","sounds/A/FAM/P001.mp3","","null","","","","","","","","","","","","","","","","","","","","","","","","","","","","","","","",""
"html-keyboard-response","231","2474350","0.0-7.0-1.0-2.3","1","0","nqw56tpvpgyj4w0","","1017.8000000119209","","<p>How familiar did this sound to you?</p><p>1&nbsp;&nbsp;&nbsp;&nbsp;&nbsp;&nbsp;&nbsp;&nbsp;&nbsp;&nbsp;&nbsp;&nbsp;&nbsp;&nbsp;&nbsp;&nbsp;&nbsp;&nbsp;&nbsp;2&nbsp;&nbsp;&nbsp;&nbsp;&nbsp;&nbsp;&nbsp;&nbsp;&nbsp;&nbsp;&nbsp;&nbsp;&nbsp;&nbsp;&nbsp;&nbsp;&nbsp;&nbsp;&nbsp;3&nbsp;&nbsp;&nbsp;&nbsp;&nbsp;&nbsp;&nbsp;&nbsp;&nbsp;&nbsp;&nbsp;&nbsp;&nbsp;&nbsp;&nbsp;&nbsp;&nbsp;&nbsp;&nbsp;4</p><p style=""font-size:14px"">Not at all familiar&nbsp;&nbsp;&nbsp;&nbsp;A little familiar&nbsp;&nbsp;&nbsp;Moderately familiar&nbsp;&nbsp;&nbsp;Extremely familiar</p><p>(press the corresponding number on your keyboard)</p>","","51","","","FAM-RESPONSE","","","","","","","","sounds/A/FAM/P001.mp3","partword","","","","","","","","","","","","","","","","","","","",""
"html-keyboard-response","232","2476360","0.0-7.0-1.0-0.4","1","0","nqw56tpvpgyj4w0","","null","","","","null","","","","","","","","","","","","","","","","","","","","","","","","","","","","","","","",""
"audio-keyboard-response","233","2477301","0.0-7.0-1.0-1.4","1","0","nqw56tpvpgyj4w0","","null","","sounds/A/FAM/P002.mp3","","null","","","","","","","","","","","","","","","","","","","","","","","","","","","","","","","",""
"html-keyboard-response","234","2479720","0.0-7.0-1.0-2.4","1","0","nqw56tpvpgyj4w0","","1916.800000011921","","<p>How familiar did this sound to you?</p><p>1&nbsp;&nbsp;&nbsp;&nbsp;&nbsp;&nbsp;&nbsp;&nbsp;&nbsp;&nbsp;&nbsp;&nbsp;&nbsp;&nbsp;&nbsp;&nbsp;&nbsp;&nbsp;&nbsp;2&nbsp;&nbsp;&nbsp;&nbsp;&nbsp;&nbsp;&nbsp;&nbsp;&nbsp;&nbsp;&nbsp;&nbsp;&nbsp;&nbsp;&nbsp;&nbsp;&nbsp;&nbsp;&nbsp;3&nbsp;&nbsp;&nbsp;&nbsp;&nbsp;&nbsp;&nbsp;&nbsp;&nbsp;&nbsp;&nbsp;&nbsp;&nbsp;&nbsp;&nbsp;&nbsp;&nbsp;&nbsp;&nbsp;4</p><p style=""font-size:14px"">Not at all familiar&nbsp;&nbsp;&nbsp;&nbsp;A little familiar&nbsp;&nbsp;&nbsp;Moderately familiar&nbsp;&nbsp;&nbsp;Extremely familiar</p><p>(press the corresponding number on your keyboard)</p>","","50","","","FAM-RESPONSE","","","","","","","","sounds/A/FAM/P002.mp3","partword","","","","","","","","","","","","","","","","","","","",""
"html-keyboard-response","235","2481722","0.0-7.0-1.0-0.5","1","0","nqw56tpvpgyj4w0","","null","","","","null","","","","","","","","","","","","","","","","","","","","","","","","","","","","","","","",""
"audio-keyboard-response","236","2482666","0.0-7.0-1.0-1.5","1","0","nqw56tpvpgyj4w0","","null","","sounds/A/FAM/W002.mp3","","null","","","","","","","","","","","","","","","","","","","","","","","","","","","","","","","",""
"html-keyboard-response","237","2484400","0.0-7.0-1.0-2.5","1","0","nqw56tpvpgyj4w0","","1231.8999999761581","","<p>How familiar did this sound to you?</p><p>1&nbsp;&nbsp;&nbsp;&nbsp;&nbsp;&nbsp;&nbsp;&nbsp;&nbsp;&nbsp;&nbsp;&nbsp;&nbsp;&nbsp;&nbsp;&nbsp;&nbsp;&nbsp;&nbsp;2&nbsp;&nbsp;&nbsp;&nbsp;&nbsp;&nbsp;&nbsp;&nbsp;&nbsp;&nbsp;&nbsp;&nbsp;&nbsp;&nbsp;&nbsp;&nbsp;&nbsp;&nbsp;&nbsp;3&nbsp;&nbsp;&nbsp;&nbsp;&nbsp;&nbsp;&nbsp;&nbsp;&nbsp;&nbsp;&nbsp;&nbsp;&nbsp;&nbsp;&nbsp;&nbsp;&nbsp;&nbsp;&nbsp;4</p><p style=""font-size:14px"">Not at all familiar&nbsp;&nbsp;&nbsp;&nbsp;A little familiar&nbsp;&nbsp;&nbsp;Moderately familiar&nbsp;&nbsp;&nbsp;Extremely familiar</p><p>(press the corresponding number on your keyboard)</p>","","50","","","FAM-RESPONSE","","","","","","","","sounds/A/FAM/W002.mp3","word","","","","","","","","","","","","","","","","","","","",""
"html-keyboard-response","238","2486410","0.0-7.0-1.0-0.6","1","0","nqw56tpvpgyj4w0","","null","","","","null","","","","","","","","","","","","","","","","","","","","","","","","","","","","","","","",""
"audio-keyboard-response","239","2487354","0.0-7.0-1.0-1.6","1","0","nqw56tpvpgyj4w0","","null","","sounds/A/FAM/N002.mp3","","null","","","","","","","","","","","","","","","","","","","","","","","","","","","","","","","",""
"html-keyboard-response","240","2489059","0.0-7.0-1.0-2.6","1","0","nqw56tpvpgyj4w0","","1203.6000000238419","","<p>How familiar did this sound to you?</p><p>1&nbsp;&nbsp;&nbsp;&nbsp;&nbsp;&nbsp;&nbsp;&nbsp;&nbsp;&nbsp;&nbsp;&nbsp;&nbsp;&nbsp;&nbsp;&nbsp;&nbsp;&nbsp;&nbsp;2&nbsp;&nbsp;&nbsp;&nbsp;&nbsp;&nbsp;&nbsp;&nbsp;&nbsp;&nbsp;&nbsp;&nbsp;&nbsp;&nbsp;&nbsp;&nbsp;&nbsp;&nbsp;&nbsp;3&nbsp;&nbsp;&nbsp;&nbsp;&nbsp;&nbsp;&nbsp;&nbsp;&nbsp;&nbsp;&nbsp;&nbsp;&nbsp;&nbsp;&nbsp;&nbsp;&nbsp;&nbsp;&nbsp;4</p><p style=""font-size:14px"">Not at all familiar&nbsp;&nbsp;&nbsp;&nbsp;A little familiar&nbsp;&nbsp;&nbsp;Moderately familiar&nbsp;&nbsp;&nbsp;Extremely familiar</p><p>(press the corresponding number on your keyboard)</p>","","51","","","FAM-RESPONSE","","","","","","","","sounds/A/FAM/N002.mp3","nonword","","","","","","","","","","","","","","","","","","","",""
"html-keyboard-response","241","2491065","0.0-7.0-1.0-0.7","1","0","nqw56tpvpgyj4w0","","null","","","","null","","","","","","","","","","","","","","","","","","","","","","","","","","","","","","","",""
"audio-keyboard-response","242","2492009","0.0-7.0-1.0-1.7","1","0","nqw56tpvpgyj4w0","","null","","sounds/A/FAM/N001.mp3","","null","","","","","","","","","","","","","","","","","","","","","","","","","","","","","","","",""
"html-keyboard-response","243","2493524","0.0-7.0-1.0-2.7","1","0","nqw56tpvpgyj4w0","","1013.1999999880791","","<p>How familiar did this sound to you?</p><p>1&nbsp;&nbsp;&nbsp;&nbsp;&nbsp;&nbsp;&nbsp;&nbsp;&nbsp;&nbsp;&nbsp;&nbsp;&nbsp;&nbsp;&nbsp;&nbsp;&nbsp;&nbsp;&nbsp;2&nbsp;&nbsp;&nbsp;&nbsp;&nbsp;&nbsp;&nbsp;&nbsp;&nbsp;&nbsp;&nbsp;&nbsp;&nbsp;&nbsp;&nbsp;&nbsp;&nbsp;&nbsp;&nbsp;3&nbsp;&nbsp;&nbsp;&nbsp;&nbsp;&nbsp;&nbsp;&nbsp;&nbsp;&nbsp;&nbsp;&nbsp;&nbsp;&nbsp;&nbsp;&nbsp;&nbsp;&nbsp;&nbsp;4</p><p style=""font-size:14px"">Not at all familiar&nbsp;&nbsp;&nbsp;&nbsp;A little familiar&nbsp;&nbsp;&nbsp;Moderately familiar&nbsp;&nbsp;&nbsp;Extremely familiar</p><p>(press the corresponding number on your keyboard)</p>","","51","","","FAM-RESPONSE","","","","","","","","sounds/A/FAM/N001.mp3","nonword","","","","","","","","","","","","","","","","","","","",""
"html-keyboard-response","244","2495529","0.0-7.0-1.0-0.8","1","0","nqw56tpvpgyj4w0","","null","","","","null","","","","","","","","","","","","","","","","","","","","","","","","","","","","","","","",""
"audio-keyboard-response","245","2496473","0.0-7.0-1.0-1.8","1","0","nqw56tpvpgyj4w0","","null","","sounds/A/FAM/W001.mp3","","null","","","","","","","","","","","","","","","","","","","","","","","","","","","","","","","",""
"html-keyboard-response","246","2497787","0.0-7.0-1.0-2.8","1","0","nqw56tpvpgyj4w0","","809.4000000357628","","<p>How familiar did this sound to you?</p><p>1&nbsp;&nbsp;&nbsp;&nbsp;&nbsp;&nbsp;&nbsp;&nbsp;&nbsp;&nbsp;&nbsp;&nbsp;&nbsp;&nbsp;&nbsp;&nbsp;&nbsp;&nbsp;&nbsp;2&nbsp;&nbsp;&nbsp;&nbsp;&nbsp;&nbsp;&nbsp;&nbsp;&nbsp;&nbsp;&nbsp;&nbsp;&nbsp;&nbsp;&nbsp;&nbsp;&nbsp;&nbsp;&nbsp;3&nbsp;&nbsp;&nbsp;&nbsp;&nbsp;&nbsp;&nbsp;&nbsp;&nbsp;&nbsp;&nbsp;&nbsp;&nbsp;&nbsp;&nbsp;&nbsp;&nbsp;&nbsp;&nbsp;4</p><p style=""font-size:14px"">Not at all familiar&nbsp;&nbsp;&nbsp;&nbsp;A little familiar&nbsp;&nbsp;&nbsp;Moderately familiar&nbsp;&nbsp;&nbsp;Extremely familiar</p><p>(press the corresponding number on your keyboard)</p>","","52","","","FAM-RESPONSE","","","","","","","","sounds/A/FAM/W001.mp3","word","","","","","","","","","","","","","","","","","","","",""
"html-keyboard-response","247","2499797","0.0-7.0-1.0-0.9","1","0","nqw56tpvpgyj4w0","","null","","","","null","","","","","","","","","","","","","","","","","","","","","","","","","","","","","","","",""
"audio-keyboard-response","248","2500739","0.0-7.0-1.0-1.9","1","0","nqw56tpvpgyj4w0","","null","","sounds/A/FAM/P003.mp3","","null","","","","","","","","","","","","","","","","","","","","","","","","","","","","","","","",""
"html-keyboard-response","249","2501940","0.0-7.0-1.0-2.9","1","0","nqw56tpvpgyj4w0","","699.3999999761581","","<p>How familiar did this sound to you?</p><p>1&nbsp;&nbsp;&nbsp;&nbsp;&nbsp;&nbsp;&nbsp;&nbsp;&nbsp;&nbsp;&nbsp;&nbsp;&nbsp;&nbsp;&nbsp;&nbsp;&nbsp;&nbsp;&nbsp;2&nbsp;&nbsp;&nbsp;&nbsp;&nbsp;&nbsp;&nbsp;&nbsp;&nbsp;&nbsp;&nbsp;&nbsp;&nbsp;&nbsp;&nbsp;&nbsp;&nbsp;&nbsp;&nbsp;3&nbsp;&nbsp;&nbsp;&nbsp;&nbsp;&nbsp;&nbsp;&nbsp;&nbsp;&nbsp;&nbsp;&nbsp;&nbsp;&nbsp;&nbsp;&nbsp;&nbsp;&nbsp;&nbsp;4</p><p style=""font-size:14px"">Not at all familiar&nbsp;&nbsp;&nbsp;&nbsp;A little familiar&nbsp;&nbsp;&nbsp;Moderately familiar&nbsp;&nbsp;&nbsp;Extremely familiar</p><p>(press the corresponding number on your keyboard)</p>","","50","","","FAM-RESPONSE","","","","","","","","sounds/A/FAM/P003.mp3","partword","","","","","","","","","","","","","","","","","","","",""
"html-keyboard-response","250","2503946","0.0-7.0-1.0-0.10","1","0","nqw56tpvpgyj4w0","","null","","","","null","","","","","","","","","","","","","","","","","","","","","","","","","","","","","","","",""
"audio-keyboard-response","251","2504888","0.0-7.0-1.0-1.10","1","0","nqw56tpvpgyj4w0","","null","","sounds/A/FAM/N004.mp3","","null","","","","","","","","","","","","","","","","","","","","","","","","","","","","","","","",""
"html-keyboard-response","252","2505868","0.0-7.0-1.0-2.10","1","0","nqw56tpvpgyj4w0","","478.4000000357628","","<p>How familiar did this sound to you?</p><p>1&nbsp;&nbsp;&nbsp;&nbsp;&nbsp;&nbsp;&nbsp;&nbsp;&nbsp;&nbsp;&nbsp;&nbsp;&nbsp;&nbsp;&nbsp;&nbsp;&nbsp;&nbsp;&nbsp;2&nbsp;&nbsp;&nbsp;&nbsp;&nbsp;&nbsp;&nbsp;&nbsp;&nbsp;&nbsp;&nbsp;&nbsp;&nbsp;&nbsp;&nbsp;&nbsp;&nbsp;&nbsp;&nbsp;3&nbsp;&nbsp;&nbsp;&nbsp;&nbsp;&nbsp;&nbsp;&nbsp;&nbsp;&nbsp;&nbsp;&nbsp;&nbsp;&nbsp;&nbsp;&nbsp;&nbsp;&nbsp;&nbsp;4</p><p style=""font-size:14px"">Not at all familiar&nbsp;&nbsp;&nbsp;&nbsp;A little familiar&nbsp;&nbsp;&nbsp;Moderately familiar&nbsp;&nbsp;&nbsp;Extremely familiar</p><p>(press the corresponding number on your keyboard)</p>","","49","","","FAM-RESPONSE","","","","","","","","sounds/A/FAM/N004.mp3","nonword","","","","","","","","","","","","","","","","","","","",""
"html-keyboard-response","253","2507874","0.0-7.0-1.0-0.11","1","0","nqw56tpvpgyj4w0","","null","","","","null","","","","","","","","","","","","","","","","","","","","","","","","","","","","","","","",""
"audio-keyboard-response","254","2508819","0.0-7.0-1.0-1.11","1","0","nqw56tpvpgyj4w0","","null","","sounds/A/FAM/P004.mp3","","null","","","","","","","","","","","","","","","","","","","","","","","","","","","","","","","",""
"html-keyboard-response","255","2510285","0.0-7.0-1.0-2.11","1","0","nqw56tpvpgyj4w0","","964.0999999642372","","<p>How familiar did this sound to you?</p><p>1&nbsp;&nbsp;&nbsp;&nbsp;&nbsp;&nbsp;&nbsp;&nbsp;&nbsp;&nbsp;&nbsp;&nbsp;&nbsp;&nbsp;&nbsp;&nbsp;&nbsp;&nbsp;&nbsp;2&nbsp;&nbsp;&nbsp;&nbsp;&nbsp;&nbsp;&nbsp;&nbsp;&nbsp;&nbsp;&nbsp;&nbsp;&nbsp;&nbsp;&nbsp;&nbsp;&nbsp;&nbsp;&nbsp;3&nbsp;&nbsp;&nbsp;&nbsp;&nbsp;&nbsp;&nbsp;&nbsp;&nbsp;&nbsp;&nbsp;&nbsp;&nbsp;&nbsp;&nbsp;&nbsp;&nbsp;&nbsp;&nbsp;4</p><p style=""font-size:14px"">Not at all familiar&nbsp;&nbsp;&nbsp;&nbsp;A little familiar&nbsp;&nbsp;&nbsp;Moderately familiar&nbsp;&nbsp;&nbsp;Extremely familiar</p><p>(press the corresponding number on your keyboard)</p>","","50","","","FAM-RESPONSE","","","","","","","","sounds/A/FAM/P004.mp3","partword","","","","","","","","","","","","","","","","","","","",""
"html-button-response","256","2526147","0.0-8.0-0.0","1","0","nqw56tpvpgyj4w0","","14859.399999976158","","<p>You will now listen to longer sound sequences.</p><p>Each sound sequence will last about 16 seconds.</p><p>On each trial, you will be given a <u>TARGET SOUND</u>. Your task is to listen very carefully for this sound.</p><p>Every time you hear the <u>TARGET SOUND</u>, you will press the <b>SPACEBAR</b> as quickly and accurately as you can.</p>","0","","","","","","","","","","","","","","","","","","","","","","","","","","","","","","","","",""
"html-button-response","257","2535052","0.0-8.0-1.0","1","0","nqw56tpvpgyj4w0","","8647.799999952316","","<p>It is very important that you make your responses as quickly and accurately as possible.</p><p>To help you make your responses, you will be able to listen to the <u>TARGET SOUND</u> at the beginning of each trial.</p><p>There will be 36 total trials.</p><p><b>Note: This is meant to be a difficult task. We simply want you to try your best.</p>","0","","","","","","","","","","","","","","","","","","","","","","","","","","","","","","","","",""
"html-button-response","258","2536744","0.0-8.0-2.0-0.0","1","0","nqw56tpvpgyj4w0","","1433.800000011921","","<p>Trial 1 of 36</p>","0","","","","","","","","","","","","","","KO","sounds/syllables/ko_SWS.wav","5100,7800,10500,13200","3","","","","","","","","","","","","","","","",""
"html-keyboard-response","259","2540189","0.0-8.0-2.0-1.0","1","0","nqw56tpvpgyj4w0","","3444.399999976158","","","","80","","","","","","","","","","","","","KO","","5100,7800,10500,13200","3","","","","","","","","","","","","","","","",""
"audio-keyboard-response","260","2540554","0.0-8.0-2.0-2.0-0.0","1","0","nqw56tpvpgyj4w0","","null","","sounds/syllables/ko_SWS.wav","","null","","","","","","","","","","","","","","","","","","","","","","","","","","","","","","","",""
"html-keyboard-response","261","2542404","0.0-8.0-2.0-2.0-1.0","1","0","nqw56tpvpgyj4w0","","1849.699999988079","","<p>To replay the <u>TARGET SOUND</u>, press P.</p> When you are ready to begin, press SPACEBAR.","","80","","","","","","","","","","","","","","","","","","","","","","","","","","","","","","","",""
"audio-keyboard-response","262","2543208","0.0-8.0-2.0-2.1-0.1","1","0","nqw56tpvpgyj4w0","","null","","sounds/syllables/ko_SWS.wav","","null","","","","","","","","","","","","","","","","","","","","","","","","","","","","","","","",""
"html-keyboard-response","263","2543943","0.0-8.0-2.0-2.1-1.1","1","0","nqw56tpvpgyj4w0","","733.7000000476837","","<p>To replay the <u>TARGET SOUND</u>, press P.</p> When you are ready to begin, press SPACEBAR.","","32","","","","","","","","","","","","","","","","","","","","","","","","","","","","","","","",""
"audio-keyboard-response","264","2558892","0.0-8.0-2.0-3.0","1","0","nqw56tpvpgyj4w0","","1792","","sounds/A/TD/KO_04_TD.mp3","","32","","","TD_SUMMARY","","","","","","","","","","KO","","5100,7800,10500,13200","3","5100","7800","10500","13200","null","263.19999998807907","210","353.0999999642372","1795.3999999761581_3180.099999964237_4136.899999976158_5272_7256.5_8063.199999988079_10710_12229.5_13553.099999964237","2","","","","","",""
"html-button-response","265","2560645","0.0-8.0-2.0-0.1","1","0","nqw56tpvpgyj4w0","","1748.7999999523163","","<p>Trial 2 of 36</p>","0","","","","","","","","","","","","","","FE","sounds/syllables/fe_SWS.wav","4500,7200,10800,12600","1","","","","","","","","","","","","","","","",""
"html-keyboard-response","266","2562144","0.0-8.0-2.0-1.1","1","0","nqw56tpvpgyj4w0","","1497.699999988079","","","","80","","","","","","","","","","","","","FE","","4500,7200,10800,12600","1","","","","","","","","","","","","","","","",""
"audio-keyboard-response","267","2562450","0.0-8.0-2.0-2.2-0.2","1","0","nqw56tpvpgyj4w0","","null","","sounds/syllables/fe_SWS.wav","","null","","","","","","","","","","","","","","","","","","","","","","","","","","","","","","","",""
"html-keyboard-response","268","2563953","0.0-8.0-2.0-2.2-1.2","1","0","nqw56tpvpgyj4w0","","1501.6000000238419","","<p>To replay the <u>TARGET SOUND</u>, press P.</p> When you are ready to begin, press SPACEBAR.","","80","","","","","","","","","","","","","","","","","","","","","","","","","","","","","","","",""
"audio-keyboard-response","269","2564758","0.0-8.0-2.0-2.3-0.3","1","0","nqw56tpvpgyj4w0","","null","","sounds/syllables/fe_SWS.wav","","null","","","","","","","","","","","","","","","","","","","","","","","","","","","","","","","",""
"html-keyboard-response","270","2565580","0.0-8.0-2.0-2.3-1.3","1","0","nqw56tpvpgyj4w0","","821.2000000476837","","<p>To replay the <u>TARGET SOUND</u>, press P.</p> When you are ready to begin, press SPACEBAR.","","32","","","","","","","","","","","","","","","","","","","","","","","","","","","","","","","",""
"audio-keyboard-response","271","2580528","0.0-8.0-2.0-3.1","1","0","nqw56tpvpgyj4w0","","245","","sounds/A/TD/FE_05_TD.mp3","","32","","","TD_SUMMARY","","","","","","","","","","FE","","4500,7200,10800,12600","1","4500","7200","10800","12600","577.5","209.80000001192093","586.2000000476837","512.1000000238419","_________247.80000001192093_1578.800000011921_2701.5_4085.2000000476837_5077.5_6302.700000047684_7409.800000011921_8582.200000047684_10034.800000011921_10632_10923_11386.200000047684_12318.600000023842_13112.100000023842_14141.5","2","","","","","",""
"html-button-response","272","2583818","0.0-8.0-2.0-0.2","1","0","nqw56tpvpgyj4w0","","3285.600000023842","","<p>Trial 3 of 36</p>","0","","","","","","","","","","","","","","TI","sounds/syllables/ti_SWS.wav","3000,5700,7500,12000","2","","","","","","","","","","","","","","","",""
"html-keyboard-response","273","2584774","0.0-8.0-2.0-1.2","1","0","nqw56tpvpgyj4w0","","955","","","","80","","","","","","","","","","","","","TI","","3000,5700,7500,12000","2","","","","","","","","","","","","","","","",""
"audio-keyboard-response","274","2585077","0.0-8.0-2.0-2.4-0.4","1","0","nqw56tpvpgyj4w0","","null","","sounds/syllables/ti_SWS.wav","","null","","","","","","","","","","","","","","","","","","","","","","","","","","","","","","","",""
"html-keyboard-response","275","2585889","0.0-8.0-2.0-2.4-1.4","1","0","nqw56tpvpgyj4w0","","810.8999999761581","","<p>To replay the <u>TARGET SOUND</u>, press P.</p> When you are ready to begin, press SPACEBAR.","","80","","","","","","","","","","","","","","","","","","","","","","","","","","","","","","","",""
"audio-keyboard-response","276","2586693","0.0-8.0-2.0-2.5-0.5","1","0","nqw56tpvpgyj4w0","","null","","sounds/syllables/ti_SWS.wav","","null","","","","","","","","","","","","","","","","","","","","","","","","","","","","","","","",""
"html-keyboard-response","277","2587097","0.0-8.0-2.0-2.5-1.5","1","0","nqw56tpvpgyj4w0","","403.5","","<p>To replay the <u>TARGET SOUND</u>, press P.</p> When you are ready to begin, press SPACEBAR.","","32","","","","","","","","","","","","","","","","","","","","","","","","","","","","","","","",""
"audio-keyboard-response","278","2602047","0.0-8.0-2.0-3.2","1","0","nqw56tpvpgyj4w0","","357","","sounds/A/TD/TI_09_TD.mp3","","32","","","TD_SUMMARY","","","","","","","","","","TI","","3000,5700,7500,12000","2","3000","5700","7500","12000","498.5","764.1000000238419","961","null","________________________358.5_1233.800000011921_2684.199999988079_3498.5_4370.699999988079_5648_6464.100000023842_7262.600000023842_7926.600000023842_8461_9269.699999988079_10344.600000023842_11259.199999988079_12122_13520.600000023842_14362","2","","","","","",""
"html-button-response","279","2603208","0.0-8.0-2.0-0.3","1","0","nqw56tpvpgyj4w0","","1156.7999999523163","","<p>Trial 4 of 36</p>","0","","","","","","","","","","","","","","ME","sounds/syllables/me_SWS.wav","1500,6000,10500,12300","3","","","","","","","","","","","","","","","",""
"html-keyboard-response","280","2603969","0.0-8.0-2.0-1.3","1","0","nqw56tpvpgyj4w0","","759.6000000238419","","","","80","","","","","","","","","","","","","ME","","1500,6000,10500,12300","3","","","","","","","","","","","","","","","",""
"audio-keyboard-response","281","2604270","0.0-8.0-2.0-2.6-0.6","1","0","nqw56tpvpgyj4w0","","null","","sounds/syllables/me_SWS.wav","","null","","","","","","","","","","","","","","","","","","","","","","","","","","","","","","","",""
"html-keyboard-response","282","2605456","0.0-8.0-2.0-2.6-1.6","1","0","nqw56tpvpgyj4w0","","1185.199999988079","","<p>To replay the <u>TARGET SOUND</u>, press P.</p> When you are ready to begin, press SPACEBAR.","","80","","","","","","","","","","","","","","","","","","","","","","","","","","","","","","","",""
"audio-keyboard-response","283","2606259","0.0-8.0-2.0-2.7-0.7","1","0","nqw56tpvpgyj4w0","","null","","sounds/syllables/me_SWS.wav","","null","","","","","","","","","","","","","","","","","","","","","","","","","","","","","","","",""
"html-keyboard-response","284","2606675","0.0-8.0-2.0-2.7-1.7","1","0","nqw56tpvpgyj4w0","","414.69999998807907","","<p>To replay the <u>TARGET SOUND</u>, press P.</p> When you are ready to begin, press SPACEBAR.","","32","","","","","","","","","","","","","","","","","","","","","","","","","","","","","","","",""
"audio-keyboard-response","285","2621624","0.0-8.0-2.0-3.3","1","0","nqw56tpvpgyj4w0","","245","","sounds/A/TD/ME_01_TD.mp3","","32","","","TD_SUMMARY","","","","","","","","","","ME","","1500,6000,10500,12300","3","1500","6000","10500","12300","1017.8000000119209","354.10000002384186","null","690.6000000238419","________________________________________244.80000001192093_1330.800000011921_1999.9000000357628_2517.800000011921_3307.400000035763_4933_5805.600000023842_6056.600000023842_6354.100000023842_7553.300000011921_8246.100000023842_9836_12072.5_12490.200000047684_12990.600000023842","2","","","","","",""
"html-button-response","286","2624091","0.0-8.0-2.0-0.4","1","0","nqw56tpvpgyj4w0","","2464.100000023842","","<p>Trial 5 of 36</p>","0","","","","","","","","","","","","","","RE","sounds/syllables/re_SWS.wav","900,6300,9900,11700","1","","","","","","","","","","","","","","","",""
"html-keyboard-response","287","2625019","0.0-8.0-2.0-1.4","1","0","nqw56tpvpgyj4w0","","926.9000000357628","","","","80","","","","","","","","","","","","","RE","","900,6300,9900,11700","1","","","","","","","","","","","","","","","",""
"audio-keyboard-response","288","2625319","0.0-8.0-2.0-2.8-0.8","1","0","nqw56tpvpgyj4w0","","null","","sounds/syllables/re_SWS.wav","","null","","","","","","","","","","","","","","","","","","","","","","","","","","","","","","","",""
"html-keyboard-response","289","2625726","0.0-8.0-2.0-2.8-1.8","1","0","nqw56tpvpgyj4w0","","406.19999998807907","","<p>To replay the <u>TARGET SOUND</u>, press P.</p> When you are ready to begin, press SPACEBAR.","","80","","","","","","","","","","","","","","","","","","","","","","","","","","","","","","","",""
"audio-keyboard-response","290","2626535","0.0-8.0-2.0-2.9-0.9","1","0","nqw56tpvpgyj4w0","","null","","sounds/syllables/re_SWS.wav","","null","","","","","","","","","","","","","","","","","","","","","","","","","","","","","","","",""
"html-keyboard-response","291","2627208","0.0-8.0-2.0-2.9-1.9","1","0","nqw56tpvpgyj4w0","","672.3000000119209","","<p>To replay the <u>TARGET SOUND</u>, press P.</p> When you are ready to begin, press SPACEBAR.","","32","","","","","","","","","","","","","","","","","","","","","","","","","","","","","","","",""
"audio-keyboard-response","292","2642156","0.0-8.0-2.0-3.4","1","0","nqw56tpvpgyj4w0","","384","","sounds/A/TD/RE_08_TD.mp3","","32","","","TD_SUMMARY","","","","","","","","","","RE","","900,6300,9900,11700","1","900","6300","9900","11700","1175","981.5","963.4000000357628","948.3000000119209","_______________________________________________________384.2000000476837_1313.9000000357628_1780_2075_2819.900000035763_3880_4914.700000047684_5849.700000047684_6744.800000011921_6997_7281.5_8564.400000035763_10228.600000023842_10619.200000047684_10863.400000035763_12126.600000023842_12440.400000035763_12648.300000011921_13523.700000047684","2","","","","","",""
"html-button-response","293","2643188","0.0-8.0-2.0-0.5","1","0","nqw56tpvpgyj4w0","","1029.4000000357628","","<p>Trial 6 of 36</p>","0","","","","","","","","","","","","","","NI","sounds/syllables/ni_SWS.wav","2400,6900,9600,12300","3","","","","","","","","","","","","","","","",""
"html-keyboard-response","294","2645012","0.0-8.0-2.0-1.5","1","0","nqw56tpvpgyj4w0","","1823.300000011921","","","","80","","","","","","","","","","","","","NI","","2400,6900,9600,12300","3","","","","","","","","","","","","","","","",""
"audio-keyboard-response","295","2645318","0.0-8.0-2.0-2.10-0.10","1","0","nqw56tpvpgyj4w0","","null","","sounds/syllables/ni_SWS.wav","","null","","","","","","","","","","","","","","","","","","","","","","","","","","","","","","","",""
"html-keyboard-response","296","2646056","0.0-8.0-2.0-2.10-1.10","1","0","nqw56tpvpgyj4w0","","627.3999999761581","","<p>To replay the <u>TARGET SOUND</u>, press P.</p> When you are ready to begin, press SPACEBAR.","","80","","","","","","","","","","","","","","","","","","","","","","","","","","","","","","","",""
"audio-keyboard-response","297","2646857","0.0-8.0-2.0-2.11-0.11","1","0","nqw56tpvpgyj4w0","","null","","sounds/syllables/ni_SWS.wav","","null","","","","","","","","","","","","","","","","","","","","","","","","","","","","","","","",""
"html-keyboard-response","298","2647225","0.0-8.0-2.0-2.11-1.11","1","0","nqw56tpvpgyj4w0","","367.9000000357628","","<p>To replay the <u>TARGET SOUND</u>, press P.</p> When you are ready to begin, press SPACEBAR.","","32","","","","","","","","","","","","","","","","","","","","","","","","","","","","","","","",""
"audio-keyboard-response","299","2662174","0.0-8.0-2.0-3.5","1","0","nqw56tpvpgyj4w0","","1147","","sounds/A/TD/NI_10_TD.mp3","","32","","","TD_SUMMARY","","","","","","","","","","NI","","2400,6900,9600,12300","3","2400","6900","9600","12300","1059.699999988079","436.4000000357628","744.1999999880791","787.6000000238419","__________________________________________________________________________1149.800000011921_2884.800000011921_3459.699999988079_3756.699999988079_4953_6067.300000011921_7336.400000035763_8757.400000035763_10065.900000035763_10344.199999988079_12704_13087.600000023842_14188.600000023842","2","","","","","",""
"html-button-response","300","2663418","0.0-8.0-2.0-0.6","1","0","nqw56tpvpgyj4w0","","1241.4000000357628","","<p>Trial 7 of 36</p>","0","","","","","","","","","","","","","","TA","sounds/syllables/ta_SWS.wav","5400,7200,9000,12600","1","","","","","","","","","","","","","","","",""
"html-keyboard-response","301","2664651","0.0-8.0-2.0-1.6","1","0","nqw56tpvpgyj4w0","","1231.5","","","","80","","","","","","","","","","","","","TA","","5400,7200,9000,12600","1","","","","","","","","","","","","","","","",""
"audio-keyboard-response","302","2664952","0.0-8.0-2.0-2.12-0.12","1","0","nqw56tpvpgyj4w0","","null","","sounds/syllables/ta_SWS.wav","","null","","","","","","","","","","","","","","","","","","","","","","","","","","","","","","","",""
"html-keyboard-response","303","2665763","0.0-8.0-2.0-2.12-1.12","1","0","nqw56tpvpgyj4w0","","810.6000000238419","","<p>To replay the <u>TARGET SOUND</u>, press P.</p> When you are ready to begin, press SPACEBAR.","","80","","","","","","","","","","","","","","","","","","","","","","","","","","","","","","","",""
"audio-keyboard-response","304","2666568","0.0-8.0-2.0-2.13-0.13","1","0","nqw56tpvpgyj4w0","","null","","sounds/syllables/ta_SWS.wav","","null","","","","","","","","","","","","","","","","","","","","","","","","","","","","","","","",""
"html-keyboard-response","305","2666783","0.0-8.0-2.0-2.13-1.13","1","0","nqw56tpvpgyj4w0","","214.19999998807907","","<p>To replay the <u>TARGET SOUND</u>, press P.</p> When you are ready to begin, press SPACEBAR.","","32","","","","","","","","","","","","","","","","","","","","","","","","","","","","","","","",""
"audio-keyboard-response","306","2681730","0.0-8.0-2.0-3.6","1","0","nqw56tpvpgyj4w0","","624","","sounds/A/TD/TA_09_TD.mp3","","32","","","TD_SUMMARY","","","","","","","","","","TA","","5400,7200,9000,12600","1","5400","7200","9000","12600","391.60000002384186","444.60000002384186","403.2000000476837","1080.1000000238419","_______________________________________________________________________________________622.9000000357628_3256.900000035763_5791.600000023842_6983.100000023842_7644.600000023842_9403.200000047684_11871.5_13680.100000023842","2","","","","","",""
"html-button-response","307","2682658","0.0-8.0-2.0-0.7","1","0","nqw56tpvpgyj4w0","","925.0999999642372","","<p>Trial 8 of 36</p>","0","","","","","","","","","","","","","","PU","sounds/syllables/pu_SWS.wav","2100,8400,11100,12900","2","","","","","","","","","","","","","","","",""
"html-keyboard-response","308","2683848","0.0-8.0-2.0-1.7","1","0","nqw56tpvpgyj4w0","","1189","","","","80","","","","","","","","","","","","","PU","","2100,8400,11100,12900","2","","","","","","","","","","","","","","","",""
"audio-keyboard-response","309","2684151","0.0-8.0-2.0-2.14-0.14","1","0","nqw56tpvpgyj4w0","","null","","sounds/syllables/pu_SWS.wav","","null","","","","","","","","","","","","","","","","","","","","","","","","","","","","","","","",""
"html-keyboard-response","310","2684744","0.0-8.0-2.0-2.14-1.14","1","0","nqw56tpvpgyj4w0","","592.5","","<p>To replay the <u>TARGET SOUND</u>, press P.</p> When you are ready to begin, press SPACEBAR.","","32","","","","","","","","","","","","","","","","","","","","","","","","","","","","","","","",""
"audio-keyboard-response","311","2699696","0.0-8.0-2.0-3.7","1","0","nqw56tpvpgyj4w0","","1152","","sounds/A/TD/PU_09_TD.mp3","","32","","","TD_SUMMARY","","","","","","","","","","PU","","2100,8400,11100,12900","2","2100","8400","11100","12900","415.5","null","null","463.7000000476837","_______________________________________________________________________________________________1154.300000011921_2325.900000035763_2515.5_4349.5_8152.200000047684_11022.800000011921_13065.200000047684_13363.700000047684_14172.200000047684","1","","","","","",""
"html-button-response","312","2700628","0.0-8.0-2.0-0.8","1","0","nqw56tpvpgyj4w0","","929","","<p>Trial 9 of 36</p>","0","","","","","","","","","","","","","","KO","sounds/syllables/ko_SWS.wav","3300,6900,11400,13200","3","","","","","","","","","","","","","","","",""
"html-keyboard-response","313","2701264","0.0-8.0-2.0-1.8","1","0","nqw56tpvpgyj4w0","","633.3999999761581","","","","80","","","","","","","","","","","","","KO","","3300,6900,11400,13200","3","","","","","","","","","","","","","","","",""
"audio-keyboard-response","314","2701568","0.0-8.0-2.0-2.15-0.15","1","0","nqw56tpvpgyj4w0","","null","","sounds/syllables/ko_SWS.wav","","null","","","","","","","","","","","","","","","","","","","","","","","","","","","","","","","",""
"html-keyboard-response","315","2702671","0.0-8.0-2.0-2.15-1.15","1","0","nqw56tpvpgyj4w0","","1102.699999988079","","<p>To replay the <u>TARGET SOUND</u>, press P.</p> When you are ready to begin, press SPACEBAR.","","80","","","","","","","","","","","","","","","","","","","","","","","","","","","","","","","",""
"audio-keyboard-response","316","2703472","0.0-8.0-2.0-2.16-0.16","1","0","nqw56tpvpgyj4w0","","null","","sounds/syllables/ko_SWS.wav","","null","","","","","","","","","","","","","","","","","","","","","","","","","","","","","","","",""
"html-keyboard-response","317","2703954","0.0-8.0-2.0-2.16-1.16","1","0","nqw56tpvpgyj4w0","","481.39999997615814","","<p>To replay the <u>TARGET SOUND</u>, press P.</p> When you are ready to begin, press SPACEBAR.","","32","","","","","","","","","","","","","","","","","","","","","","","","","","","","","","","",""
"audio-keyboard-response","318","2718900","0.0-8.0-2.0-3.8","1","0","nqw56tpvpgyj4w0","","2224","","sounds/A/TD/KO_06_TD.mp3","","32","","","TD_SUMMARY","","","","","","","","","","KO","","3300,6900,11400,13200","3","3300","6900","11400","13200","346.60000002384186","352.9000000357628","379.5","500.9000000357628","________________________________________________________________________________________________________2223_3646.600000023842_7252.900000035763_11779.5_13700.900000035763","2","","","","","",""
"html-button-response","319","2720055","0.0-8.0-2.0-0.9","1","0","nqw56tpvpgyj4w0","","1152.199999988079","","<p>Trial 10 of 36</p>","0","","","","","","","","","","","","","","GE","sounds/syllables/ge_SWS.wav","2100,3900,5700,11100","2","","","","","","","","","","","","","","","",""
"html-keyboard-response","320","2720757","0.0-8.0-2.0-1.9","1","0","nqw56tpvpgyj4w0","","700","","","","80","","","","","","","","","","","","","GE","","2100,3900,5700,11100","2","","","","","","","","","","","","","","","",""
"audio-keyboard-response","321","2721060","0.0-8.0-2.0-2.17-0.17","1","0","nqw56tpvpgyj4w0","","null","","sounds/syllables/ge_SWS.wav","","null","","","","","","","","","","","","","","","","","","","","","","","","","","","","","","","",""
"html-keyboard-response","322","2722246","0.0-8.0-2.0-2.17-1.17","1","0","nqw56tpvpgyj4w0","","1184.8999999761581","","<p>To replay the <u>TARGET SOUND</u>, press P.</p> When you are ready to begin, press SPACEBAR.","","80","","","","","","","","","","","","","","","","","","","","","","","","","","","","","","","",""
"audio-keyboard-response","323","2723054","0.0-8.0-2.0-2.18-0.18","1","0","nqw56tpvpgyj4w0","","null","","sounds/syllables/ge_SWS.wav","","null","","","","","","","","","","","","","","","","","","","","","","","","","","","","","","","",""
"html-keyboard-response","324","2723359","0.0-8.0-2.0-2.18-1.18","1","0","nqw56tpvpgyj4w0","","304","","<p>To replay the <u>TARGET SOUND</u>, press P.</p> When you are ready to begin, press SPACEBAR.","","32","","","","","","","","","","","","","","","","","","","","","","","","","","","","","","","",""
"audio-keyboard-response","325","2738307","0.0-8.0-2.0-3.9","1","0","nqw56tpvpgyj4w0","","363","","sounds/A/TD/GE_02_TD.mp3","","32","","","TD_SUMMARY","","","","","","","","","","GE","","2100,3900,5700,11100","2","2100","3900","5700","11100","null","689.8000000119209","688.6000000238419","null","_____________________________________________________________________________________________________________365.4000000357628_2057.5_4353.900000035763_4589.800000011921_5781.700000047684_6000.600000023842_6388.600000023842_7768.400000035763_8207.5_9210.800000011921_9874_10560.600000023842_13079.300000011921","2","","","","","",""
"html-button-response","326","2739467","0.0-8.0-2.0-0.10","1","0","nqw56tpvpgyj4w0","","1157.5","","<p>Trial 11 of 36</p>","0","","","","","","","","","","","","","","GE","sounds/syllables/ge_SWS.wav","3000,6600,10200,12000","2","","","","","","","","","","","","","","","",""
"html-keyboard-response","327","2740647","0.0-8.0-2.0-1.10","1","0","nqw56tpvpgyj4w0","","1178.800000011921","","","","80","","","","","","","","","","","","","GE","","3000,6600,10200,12000","2","","","","","","","","","","","","","","","",""
"audio-keyboard-response","328","2740952","0.0-8.0-2.0-2.19-0.19","1","0","nqw56tpvpgyj4w0","","null","","sounds/syllables/ge_SWS.wav","","null","","","","","","","","","","","","","","","","","","","","","","","","","","","","","","","",""
"html-keyboard-response","329","2741724","0.0-8.0-2.0-2.19-1.19","1","0","nqw56tpvpgyj4w0","","771.5999999642372","","<p>To replay the <u>TARGET SOUND</u>, press P.</p> When you are ready to begin, press SPACEBAR.","","80","","","","","","","","","","","","","","","","","","","","","","","","","","","","","","","",""
"audio-keyboard-response","330","2742530","0.0-8.0-2.0-2.20-0.20","1","0","nqw56tpvpgyj4w0","","null","","sounds/syllables/ge_SWS.wav","","null","","","","","","","","","","","","","","","","","","","","","","","","","","","","","","","",""
"html-keyboard-response","331","2742994","0.0-8.0-2.0-2.20-1.20","1","0","nqw56tpvpgyj4w0","","463.4000000357628","","<p>To replay the <u>TARGET SOUND</u>, press P.</p> When you are ready to begin, press SPACEBAR.","","32","","","","","","","","","","","","","","","","","","","","","","","","","","","","","","","",""
