"trial_type","trial_index","time_elapsed","internal_node_id","counterbalance","lang_instruct","ParticipantID","view_history","rt","url","stimulus","button_pressed","key_press","correctRESP","correct","designation","location","correctanswer","timeouts","pause_rt01","pause_rt02","train_file","numKeyPress","sound","fam_type","SYLLABLE","EXEMPLAR","TD_LOCS","TD_TYPE","TDLOC_01","TDLOC_02","TDLOC_03","TDLOC_04","TD_RT_01","TD_RT_02","TD_RT_03","TD_RT_04","TD_SUBJ_RTs","number_of_plays","responses","slider_start","response","question_order","syllable","syllable_type"
"pavlovia","0","4","0.0-0.0","2","0","crt4qpezpdve32k","","","","","","","","","","","","","","","","","","","","","","","","","","","","","","","","","","","","","",""
"instructions","1","7865","0.0-1.0","2","0","crt4qpezpdve32k","[{""page_index"":0,""viewing_time"":2327.099999964237},{""page_index"":1,""viewing_time"":5529.600000023842}]","7859.899999976158","","","","","","","","","","","","","","","","","","","","","","","","","","","","","","","","","","","",""
"external-html","2","32716","0.0-2.0","2","0","crt4qpezpdve32k","","24639.69999998808","consent/consent.html","","","","","","","","","","","","","","","","","","","","","","","","","","","","","","","","","","",""
"html-button-response","3","61646","0.0-3.0-0.0-0.0","2","0","crt4qpezpdve32k","","28928.30000001192","","<p>Welcome to the study. You will first complete a short volume calibration and headphone check.</p><p>Please make sure you are in a quiet listening environment, that you are wearing headphones, and that your computer's volume is turned on.<p></p>","0","","","","","","","","","","","","","","","","","","","","","","","","","","","","","","","","",""
"html-button-response","4","66279","0.0-3.0-0.0-1.0","2","0","crt4qpezpdve32k","","4379.899999976158","","<p>The volume calibration will be first.</p><p>You will hear a thirty-second noise. Please adjust your computer's volume so that this noise is being presented at a comfortable level.<p></p>","0","","","","","","","","","","","","","","","","","","","","","","","","","","","","","","","","",""
"audio-button-response","5","88466","0.0-3.0-0.0-2.0","2","0","crt4qpezpdve32k","","21734","","audCalib/volumetest.mp3","0","","","","","","","","","","","","","","","","","","","","","","","","","","","","","","","","",""
"html-button-response","6","130744","0.0-3.0-1.0-0.0","2","0","crt4qpezpdve32k","","42276.90000003576","","<p>You will now complete a short headphone check.</p><p>On each trial, you will hear three tones. One of these tones will be quieter than the others. Your task is to identify whether the quiet tone occured first, second, or third.</p><p>There are six trials in total.<p></p>","0","","","","","","","","","","","","","","","","","","","","","","","","","","","","","","","","",""
"html-keyboard-response","7","131504","0.0-3.0-1.0-1.0-0.0","2","0","crt4qpezpdve32k","","null","","<div style=""font-size:60px;"">+</div>","","null","","","","","","","","","","","","","","","","","","","","","","","","","","","","","","","",""
"audio-button-response","8","136452","0.0-3.0-1.0-1.0-1.0","2","0","crt4qpezpdve32k","","4499","","audCalib/t2_1.mp3","1","","1","1","headphone-test","","","","","","","","","","","","","","","","","","","","","","","","","","","","",""
"html-keyboard-response","9","137212","0.0-3.0-1.0-1.0-0.1","2","0","crt4qpezpdve32k","","null","","<div style=""font-size:60px;"">+</div>","","null","","","","","","","","","","","","","","","","","","","","","","","","","","","","","","","",""
"audio-button-response","10","141482","0.0-3.0-1.0-1.0-1.1","2","0","crt4qpezpdve32k","","4272","","audCalib/t1_2.mp3","0","","0","1","headphone-test","","","","","","","","","","","","","","","","","","","","","","","","","","","","",""
"html-keyboard-response","11","142240","0.0-3.0-1.0-1.0-0.2","2","0","crt4qpezpdve32k","","null","","<div style=""font-size:60px;"">+</div>","","null","","","","","","","","","","","","","","","","","","","","","","","","","","","","","","","",""
"audio-button-response","12","146358","0.0-3.0-1.0-1.0-1.2","2","0","crt4qpezpdve32k","","4122","","audCalib/t1_1.mp3","0","","0","1","headphone-test","","","","","","","","","","","","","","","","","","","","","","","","","","","","",""
"html-keyboard-response","13","147111","0.0-3.0-1.0-1.0-0.3","2","0","crt4qpezpdve32k","","null","","<div style=""font-size:60px;"">+</div>","","null","","","","","","","","","","","","","","","","","","","","","","","","","","","","","","","",""
"audio-button-response","14","151283","0.0-3.0-1.0-1.0-1.3","2","0","crt4qpezpdve32k","","4174","","audCalib/t3_1.mp3","2","","2","1","headphone-test","","","","","","","","","","","","","","","","","","","","","","","","","","","","",""
"html-keyboard-response","15","152035","0.0-3.0-1.0-1.0-0.4","2","0","crt4qpezpdve32k","","null","","<div style=""font-size:60px;"">+</div>","","null","","","","","","","","","","","","","","","","","","","","","","","","","","","","","","","",""
"audio-button-response","16","156079","0.0-3.0-1.0-1.0-1.4","2","0","crt4qpezpdve32k","","4040","","audCalib/t3_2.mp3","2","","2","1","headphone-test","","","","","","","","","","","","","","","","","","","","","","","","","","","","",""
"html-keyboard-response","17","156834","0.0-3.0-1.0-1.0-0.5","2","0","crt4qpezpdve32k","","null","","<div style=""font-size:60px;"">+</div>","","null","","","","","","","","","","","","","","","","","","","","","","","","","","","","","","","",""
"audio-button-response","18","160761","0.0-3.0-1.0-1.0-1.5","2","0","crt4qpezpdve32k","","3918","","audCalib/t2_2.mp3","1","","1","1","headphone-test","","","","","","","","","","","","","","","","","","","","","","","","","","","","",""
"html-button-response","19","162375","0.0-3.0-2.0","2","0","crt4qpezpdve32k","","1361","","<p>The volume calibration and headphone check are now complete.</p>","0","","","","","","","","","","","","","","","","","","","","","","","","","","","","","","","","",""
"instructions","20","184117","0.0-4.0-0.0","2","0","crt4qpezpdve32k","[{""page_index"":0,""viewing_time"":1275.3999999761581},{""page_index"":1,""viewing_time"":9651.900000035763},{""page_index"":2,""viewing_time"":10813.399999976158}]","21741","","","","","","","","","","","","","","","","","","","","","","","","","","","","","","","","","","","",""
"audio-keyboard-response","21","184417","0.0-4.0-1.0-0.0","2","0","crt4qpezpdve32k","","null","","sounds/induction/left_rev/ti_SWS.wav","","null","","","","","","","","","","","","","","","","","","","","","","","","","","","","","","","",""
"html-button-response","22","186168","0.0-4.0-1.0-1.0","2","0","crt4qpezpdve32k","","1750","","Was the sound coming from the left or the right?","0","","","1","INDUCTION-JUDGMENT","left","0","","","","","","","","","","","","","","","","","","","","","","","","","","",""
"html-keyboard-response","23","187170","0.0-4.0-1.0-2.0","2","0","crt4qpezpdve32k","","null","","<p style=""color:#054d00;""><b>Correct!</b></p>","","null","","","","","","","","","","","","","","","","","","","","","","","","","","","","","","","",""
"audio-keyboard-response","24","187973","0.0-4.0-1.0-0.1","2","0","crt4qpezpdve32k","","null","","sounds/induction/left_rev/su_SWS.wav","","null","","","","","","","","","","","","","","","","","","","","","","","","","","","","","","","",""
"html-button-response","25","189898","0.0-4.0-1.0-1.1","2","0","crt4qpezpdve32k","","1924.199999988079","","Was the sound coming from the left or the right?","0","","","1","INDUCTION-JUDGMENT","left","0","","","","","","","","","","","","","","","","","","","","","","","","","","",""
"html-keyboard-response","26","190902","0.0-4.0-1.0-2.1","2","0","crt4qpezpdve32k","","null","","<p style=""color:#054d00;""><b>Correct!</b></p>","","null","","","","","","","","","","","","","","","","","","","","","","","","","","","","","","","",""
"audio-keyboard-response","27","191708","0.0-4.0-1.0-0.2","2","0","crt4qpezpdve32k","","null","","sounds/induction/right_rev/ti_SWS.wav","","null","","","","","","","","","","","","","","","","","","","","","","","","","","","","","","","",""
"html-button-response","28","192610","0.0-4.0-1.0-1.2","2","0","crt4qpezpdve32k","","900.8999999761581","","Was the sound coming from the left or the right?","1","","","1","INDUCTION-JUDGMENT","right","1","","","","","","","","","","","","","","","","","","","","","","","","","","",""
"html-keyboard-response","29","193614","0.0-4.0-1.0-2.2","2","0","crt4qpezpdve32k","","null","","<p style=""color:#054d00;""><b>Correct!</b></p>","","null","","","","","","","","","","","","","","","","","","","","","","","","","","","","","","","",""
"audio-keyboard-response","30","194419","0.0-4.0-1.0-0.3","2","0","crt4qpezpdve32k","","null","","sounds/induction/left_rev/ko_SWS.wav","","null","","","","","","","","","","","","","","","","","","","","","","","","","","","","","","","",""
"html-button-response","31","194992","0.0-4.0-1.0-1.3","2","0","crt4qpezpdve32k","","571.9000000357628","","Was the sound coming from the left or the right?","0","","","1","INDUCTION-JUDGMENT","left","0","","","","","","","","","","","","","","","","","","","","","","","","","","",""
"html-keyboard-response","32","195997","0.0-4.0-1.0-2.3","2","0","crt4qpezpdve32k","","null","","<p style=""color:#054d00;""><b>Correct!</b></p>","","null","","","","","","","","","","","","","","","","","","","","","","","","","","","","","","","",""
"audio-keyboard-response","33","196799","0.0-4.0-1.0-0.4","2","0","crt4qpezpdve32k","","null","","sounds/induction/right_rev/me_SWS.wav","","null","","","","","","","","","","","","","","","","","","","","","","","","","","","","","","","",""
"html-button-response","34","197316","0.0-4.0-1.0-1.4","2","0","crt4qpezpdve32k","","516.8000000119209","","Was the sound coming from the left or the right?","1","","","1","INDUCTION-JUDGMENT","right","1","","","","","","","","","","","","","","","","","","","","","","","","","","",""
"html-keyboard-response","35","198318","0.0-4.0-1.0-2.4","2","0","crt4qpezpdve32k","","null","","<p style=""color:#054d00;""><b>Correct!</b></p>","","null","","","","","","","","","","","","","","","","","","","","","","","","","","","","","","","",""
"audio-keyboard-response","36","199122","0.0-4.0-1.0-0.5","2","0","crt4qpezpdve32k","","null","","sounds/induction/right_rev/su_SWS.wav","","null","","","","","","","","","","","","","","","","","","","","","","","","","","","","","","","",""
"html-button-response","37","199892","0.0-4.0-1.0-1.5","2","0","crt4qpezpdve32k","","768.8000000119209","","Was the sound coming from the left or the right?","1","","","1","INDUCTION-JUDGMENT","right","1","","","","","","","","","","","","","","","","","","","","","","","","","","",""
"html-keyboard-response","38","200893","0.0-4.0-1.0-2.5","2","0","crt4qpezpdve32k","","null","","<p style=""color:#054d00;""><b>Correct!</b></p>","","null","","","","","","","","","","","","","","","","","","","","","","","","","","","","","","","",""
"audio-keyboard-response","39","201693","0.0-4.0-1.0-0.6","2","0","crt4qpezpdve32k","","null","","sounds/induction/left_rev/me_SWS.wav","","null","","","","","","","","","","","","","","","","","","","","","","","","","","","","","","","",""
"html-button-response","40","202386","0.0-4.0-1.0-1.6","2","0","crt4qpezpdve32k","","691.8000000119209","","Was the sound coming from the left or the right?","0","","","1","INDUCTION-JUDGMENT","left","0","","","","","","","","","","","","","","","","","","","","","","","","","","",""
"html-keyboard-response","41","203389","0.0-4.0-1.0-2.6","2","0","crt4qpezpdve32k","","null","","<p style=""color:#054d00;""><b>Correct!</b></p>","","null","","","","","","","","","","","","","","","","","","","","","","","","","","","","","","","",""
"audio-keyboard-response","42","204195","0.0-4.0-1.0-0.7","2","0","crt4qpezpdve32k","","null","","sounds/induction/left_rev/re_SWS.wav","","null","","","","","","","","","","","","","","","","","","","","","","","","","","","","","","","",""
"html-button-response","43","205106","0.0-4.0-1.0-1.7","2","0","crt4qpezpdve32k","","910.1999999880791","","Was the sound coming from the left or the right?","0","","","1","INDUCTION-JUDGMENT","left","0","","","","","","","","","","","","","","","","","","","","","","","","","","",""
"html-keyboard-response","44","206111","0.0-4.0-1.0-2.7","2","0","crt4qpezpdve32k","","null","","<p style=""color:#054d00;""><b>Correct!</b></p>","","null","","","","","","","","","","","","","","","","","","","","","","","","","","","","","","","",""
"audio-keyboard-response","45","206917","0.0-4.0-1.0-0.8","2","0","crt4qpezpdve32k","","null","","sounds/induction/left_rev/fu_SWS.wav","","null","","","","","","","","","","","","","","","","","","","","","","","","","","","","","","","",""
"html-button-response","46","208157","0.0-4.0-1.0-1.8","2","0","crt4qpezpdve32k","","1239.199999988079","","Was the sound coming from the left or the right?","0","","","1","INDUCTION-JUDGMENT","left","0","","","","","","","","","","","","","","","","","","","","","","","","","","",""
"html-keyboard-response","47","209161","0.0-4.0-1.0-2.8","2","0","crt4qpezpdve32k","","null","","<p style=""color:#054d00;""><b>Correct!</b></p>","","null","","","","","","","","","","","","","","","","","","","","","","","","","","","","","","","",""
"audio-keyboard-response","48","209963","0.0-4.0-1.0-0.9","2","0","crt4qpezpdve32k","","null","","sounds/induction/left_rev/ru_SWS.wav","","null","","","","","","","","","","","","","","","","","","","","","","","","","","","","","","","",""
"html-button-response","49","210709","0.0-4.0-1.0-1.9","2","0","crt4qpezpdve32k","","744.5","","Was the sound coming from the left or the right?","0","","","1","INDUCTION-JUDGMENT","left","0","","","","","","","","","","","","","","","","","","","","","","","","","","",""
"html-keyboard-response","50","211714","0.0-4.0-1.0-2.9","2","0","crt4qpezpdve32k","","null","","<p style=""color:#054d00;""><b>Correct!</b></p>","","null","","","","","","","","","","","","","","","","","","","","","","","","","","","","","","","",""
"audio-keyboard-response","51","212518","0.0-4.0-1.0-0.10","2","0","crt4qpezpdve32k","","null","","sounds/induction/left_rev/ko_SWS.wav","","null","","","","","","","","","","","","","","","","","","","","","","","","","","","","","","","",""
"html-button-response","52","213218","0.0-4.0-1.0-1.10","2","0","crt4qpezpdve32k","","699.6000000238419","","Was the sound coming from the left or the right?","0","","","1","INDUCTION-JUDGMENT","left","0","","","","","","","","","","","","","","","","","","","","","","","","","","",""
"html-keyboard-response","53","214222","0.0-4.0-1.0-2.10","2","0","crt4qpezpdve32k","","null","","<p style=""color:#054d00;""><b>Correct!</b></p>","","null","","","","","","","","","","","","","","","","","","","","","","","","","","","","","","","",""
"audio-keyboard-response","54","215025","0.0-4.0-1.0-0.11","2","0","crt4qpezpdve32k","","null","","sounds/induction/left_rev/ge_SWS.wav","","null","","","","","","","","","","","","","","","","","","","","","","","","","","","","","","","",""
"html-button-response","55","215777","0.0-4.0-1.0-1.11","2","0","crt4qpezpdve32k","","751.2000000476837","","Was the sound coming from the left or the right?","0","","","1","INDUCTION-JUDGMENT","left","0","","","","","","","","","","","","","","","","","","","","","","","","","","",""
"html-keyboard-response","56","216781","0.0-4.0-1.0-2.11","2","0","crt4qpezpdve32k","","null","","<p style=""color:#054d00;""><b>Correct!</b></p>","","null","","","","","","","","","","","","","","","","","","","","","","","","","","","","","","","",""
"audio-keyboard-response","57","217585","0.0-4.0-1.0-0.12","2","0","crt4qpezpdve32k","","null","","sounds/induction/left_rev/fe_SWS.wav","","null","","","","","","","","","","","","","","","","","","","","","","","","","","","","","","","",""
"html-button-response","58","218176","0.0-4.0-1.0-1.12","2","0","crt4qpezpdve32k","","589.8000000119209","","Was the sound coming from the left or the right?","0","","","1","INDUCTION-JUDGMENT","left","0","","","","","","","","","","","","","","","","","","","","","","","","","","",""
"html-keyboard-response","59","219179","0.0-4.0-1.0-2.12","2","0","crt4qpezpdve32k","","null","","<p style=""color:#054d00;""><b>Correct!</b></p>","","null","","","","","","","","","","","","","","","","","","","","","","","","","","","","","","","",""
"audio-keyboard-response","60","219983","0.0-4.0-1.0-0.13","2","0","crt4qpezpdve32k","","null","","sounds/induction/right_rev/ta_SWS.wav","","null","","","","","","","","","","","","","","","","","","","","","","","","","","","","","","","",""
"html-button-response","61","220711","0.0-4.0-1.0-1.13","2","0","crt4qpezpdve32k","","727.3000000119209","","Was the sound coming from the left or the right?","1","","","1","INDUCTION-JUDGMENT","right","1","","","","","","","","","","","","","","","","","","","","","","","","","","",""
"html-keyboard-response","62","221716","0.0-4.0-1.0-2.13","2","0","crt4qpezpdve32k","","null","","<p style=""color:#054d00;""><b>Correct!</b></p>","","null","","","","","","","","","","","","","","","","","","","","","","","","","","","","","","","",""
"audio-keyboard-response","63","222520","0.0-4.0-1.0-0.14","2","0","crt4qpezpdve32k","","null","","sounds/induction/right_rev/fe_SWS.wav","","null","","","","","","","","","","","","","","","","","","","","","","","","","","","","","","","",""
"html-button-response","64","223100","0.0-4.0-1.0-1.14","2","0","crt4qpezpdve32k","","578.8000000119209","","Was the sound coming from the left or the right?","1","","","1","INDUCTION-JUDGMENT","right","1","","","","","","","","","","","","","","","","","","","","","","","","","","",""
"html-keyboard-response","65","224101","0.0-4.0-1.0-2.14","2","0","crt4qpezpdve32k","","null","","<p style=""color:#054d00;""><b>Correct!</b></p>","","null","","","","","","","","","","","","","","","","","","","","","","","","","","","","","","","",""
"audio-keyboard-response","66","224900","0.0-4.0-1.0-0.15","2","0","crt4qpezpdve32k","","null","","sounds/induction/left_rev/ta_SWS.wav","","null","","","","","","","","","","","","","","","","","","","","","","","","","","","","","","","",""
"html-button-response","67","225659","0.0-4.0-1.0-1.15","2","0","crt4qpezpdve32k","","757.6999999880791","","Was the sound coming from the left or the right?","0","","","1","INDUCTION-JUDGMENT","left","0","","","","","","","","","","","","","","","","","","","","","","","","","","",""
"html-keyboard-response","68","226661","0.0-4.0-1.0-2.15","2","0","crt4qpezpdve32k","","null","","<p style=""color:#054d00;""><b>Correct!</b></p>","","null","","","","","","","","","","","","","","","","","","","","","","","","","","","","","","","",""
"audio-keyboard-response","69","227466","0.0-4.0-1.0-0.16","2","0","crt4qpezpdve32k","","null","","sounds/induction/right_rev/pu_SWS.wav","","null","","","","","","","","","","","","","","","","","","","","","","","","","","","","","","","",""
"html-button-response","70","228169","0.0-4.0-1.0-1.16","2","0","crt4qpezpdve32k","","701","","Was the sound coming from the left or the right?","1","","","1","INDUCTION-JUDGMENT","right","1","","","","","","","","","","","","","","","","","","","","","","","","","","",""
"html-keyboard-response","71","229175","0.0-4.0-1.0-2.16","2","0","crt4qpezpdve32k","","null","","<p style=""color:#054d00;""><b>Correct!</b></p>","","null","","","","","","","","","","","","","","","","","","","","","","","","","","","","","","","",""
"audio-keyboard-response","72","229980","0.0-4.0-1.0-0.17","2","0","crt4qpezpdve32k","","null","","sounds/induction/left_rev/me_SWS.wav","","null","","","","","","","","","","","","","","","","","","","","","","","","","","","","","","","",""
"html-button-response","73","230614","0.0-4.0-1.0-1.17","2","0","crt4qpezpdve32k","","634","","Was the sound coming from the left or the right?","0","","","1","INDUCTION-JUDGMENT","left","0","","","","","","","","","","","","","","","","","","","","","","","","","","",""
"html-keyboard-response","74","231616","0.0-4.0-1.0-2.17","2","0","crt4qpezpdve32k","","null","","<p style=""color:#054d00;""><b>Correct!</b></p>","","null","","","","","","","","","","","","","","","","","","","","","","","","","","","","","","","",""
"audio-keyboard-response","75","232418","0.0-4.0-1.0-0.18","2","0","crt4qpezpdve32k","","null","","sounds/induction/left_rev/pu_SWS.wav","","null","","","","","","","","","","","","","","","","","","","","","","","","","","","","","","","",""
"html-button-response","76","232971","0.0-4.0-1.0-1.18","2","0","crt4qpezpdve32k","","552.7000000476837","","Was the sound coming from the left or the right?","0","","","1","INDUCTION-JUDGMENT","left","0","","","","","","","","","","","","","","","","","","","","","","","","","","",""
"html-keyboard-response","77","233977","0.0-4.0-1.0-2.18","2","0","crt4qpezpdve32k","","null","","<p style=""color:#054d00;""><b>Correct!</b></p>","","null","","","","","","","","","","","","","","","","","","","","","","","","","","","","","","","",""
"audio-keyboard-response","78","234781","0.0-4.0-1.0-0.19","2","0","crt4qpezpdve32k","","null","","sounds/induction/right_rev/fu_SWS.wav","","null","","","","","","","","","","","","","","","","","","","","","","","","","","","","","","","",""
"html-button-response","79","235426","0.0-4.0-1.0-1.19","2","0","crt4qpezpdve32k","","645","","Was the sound coming from the left or the right?","1","","","1","INDUCTION-JUDGMENT","right","1","","","","","","","","","","","","","","","","","","","","","","","","","","",""
"html-keyboard-response","80","236427","0.0-4.0-1.0-2.19","2","0","crt4qpezpdve32k","","null","","<p style=""color:#054d00;""><b>Correct!</b></p>","","null","","","","","","","","","","","","","","","","","","","","","","","","","","","","","","","",""
"audio-keyboard-response","81","237226","0.0-4.0-1.0-0.20","2","0","crt4qpezpdve32k","","null","","sounds/induction/right_rev/su_SWS.wav","","null","","","","","","","","","","","","","","","","","","","","","","","","","","","","","","","",""
"html-button-response","82","237968","0.0-4.0-1.0-1.20","2","0","crt4qpezpdve32k","","741.6999999880791","","Was the sound coming from the left or the right?","1","","","1","INDUCTION-JUDGMENT","right","1","","","","","","","","","","","","","","","","","","","","","","","","","","",""
"html-keyboard-response","83","238974","0.0-4.0-1.0-2.20","2","0","crt4qpezpdve32k","","null","","<p style=""color:#054d00;""><b>Correct!</b></p>","","null","","","","","","","","","","","","","","","","","","","","","","","","","","","","","","","",""
"audio-keyboard-response","84","239779","0.0-4.0-1.0-0.21","2","0","crt4qpezpdve32k","","null","","sounds/induction/left_rev/su_SWS.wav","","null","","","","","","","","","","","","","","","","","","","","","","","","","","","","","","","",""
"html-button-response","85","240956","0.0-4.0-1.0-1.21","2","0","crt4qpezpdve32k","","1176.800000011921","","Was the sound coming from the left or the right?","0","","","1","INDUCTION-JUDGMENT","left","0","","","","","","","","","","","","","","","","","","","","","","","","","","",""
"html-keyboard-response","86","241962","0.0-4.0-1.0-2.21","2","0","crt4qpezpdve32k","","null","","<p style=""color:#054d00;""><b>Correct!</b></p>","","null","","","","","","","","","","","","","","","","","","","","","","","","","","","","","","","",""
"audio-keyboard-response","87","242768","0.0-4.0-1.0-0.22","2","0","crt4qpezpdve32k","","null","","sounds/induction/left_rev/ni_SWS.wav","","null","","","","","","","","","","","","","","","","","","","","","","","","","","","","","","","",""
"html-button-response","88","243467","0.0-4.0-1.0-1.22","2","0","crt4qpezpdve32k","","698.1000000238419","","Was the sound coming from the left or the right?","0","","","1","INDUCTION-JUDGMENT","left","0","","","","","","","","","","","","","","","","","","","","","","","","","","",""
"html-keyboard-response","89","244471","0.0-4.0-1.0-2.22","2","0","crt4qpezpdve32k","","null","","<p style=""color:#054d00;""><b>Correct!</b></p>","","null","","","","","","","","","","","","","","","","","","","","","","","","","","","","","","","",""
"audio-keyboard-response","90","245275","0.0-4.0-1.0-0.23","2","0","crt4qpezpdve32k","","null","","sounds/induction/left_rev/fe_SWS.wav","","null","","","","","","","","","","","","","","","","","","","","","","","","","","","","","","","",""
"html-button-response","91","245832","0.0-4.0-1.0-1.23","2","0","crt4qpezpdve32k","","555.7000000476837","","Was the sound coming from the left or the right?","0","","","1","INDUCTION-JUDGMENT","left","0","","","","","","","","","","","","","","","","","","","","","","","","","","",""
"html-keyboard-response","92","246836","0.0-4.0-1.0-2.23","2","0","crt4qpezpdve32k","","null","","<p style=""color:#054d00;""><b>Correct!</b></p>","","null","","","","","","","","","","","","","","","","","","","","","","","","","","","","","","","",""
"audio-keyboard-response","93","247638","0.0-4.0-1.0-0.24","2","0","crt4qpezpdve32k","","null","","sounds/induction/left_rev/fu_SWS.wav","","null","","","","","","","","","","","","","","","","","","","","","","","","","","","","","","","",""
"html-button-response","94","248189","0.0-4.0-1.0-1.24","2","0","crt4qpezpdve32k","","549.7000000476837","","Was the sound coming from the left or the right?","0","","","1","INDUCTION-JUDGMENT","left","0","","","","","","","","","","","","","","","","","","","","","","","","","","",""
"html-keyboard-response","95","249191","0.0-4.0-1.0-2.24","2","0","crt4qpezpdve32k","","null","","<p style=""color:#054d00;""><b>Correct!</b></p>","","null","","","","","","","","","","","","","","","","","","","","","","","","","","","","","","","",""
"audio-keyboard-response","96","249996","0.0-4.0-1.0-0.25","2","0","crt4qpezpdve32k","","null","","sounds/induction/right_rev/pu_SWS.wav","","null","","","","","","","","","","","","","","","","","","","","","","","","","","","","","","","",""
"html-button-response","97","250868","0.0-4.0-1.0-1.25","2","0","crt4qpezpdve32k","","872","","Was the sound coming from the left or the right?","1","","","1","INDUCTION-JUDGMENT","right","1","","","","","","","","","","","","","","","","","","","","","","","","","","",""
"html-keyboard-response","98","251872","0.0-4.0-1.0-2.25","2","0","crt4qpezpdve32k","","null","","<p style=""color:#054d00;""><b>Correct!</b></p>","","null","","","","","","","","","","","","","","","","","","","","","","","","","","","","","","","",""
"audio-keyboard-response","99","252677","0.0-4.0-1.0-0.26","2","0","crt4qpezpdve32k","","null","","sounds/induction/right_rev/ko_SWS.wav","","null","","","","","","","","","","","","","","","","","","","","","","","","","","","","","","","",""
"html-button-response","100","253274","0.0-4.0-1.0-1.26","2","0","crt4qpezpdve32k","","595.5999999642372","","Was the sound coming from the left or the right?","1","","","1","INDUCTION-JUDGMENT","right","1","","","","","","","","","","","","","","","","","","","","","","","","","","",""
"html-keyboard-response","101","254277","0.0-4.0-1.0-2.26","2","0","crt4qpezpdve32k","","null","","<p style=""color:#054d00;""><b>Correct!</b></p>","","null","","","","","","","","","","","","","","","","","","","","","","","","","","","","","","","",""
"audio-keyboard-response","102","255080","0.0-4.0-1.0-0.27","2","0","crt4qpezpdve32k","","null","","sounds/induction/right_rev/ru_SWS.wav","","null","","","","","","","","","","","","","","","","","","","","","","","","","","","","","","","",""
"html-button-response","103","255639","0.0-4.0-1.0-1.27","2","0","crt4qpezpdve32k","","557.8000000119209","","Was the sound coming from the left or the right?","1","","","1","INDUCTION-JUDGMENT","right","1","","","","","","","","","","","","","","","","","","","","","","","","","","",""
"html-keyboard-response","104","256644","0.0-4.0-1.0-2.27","2","0","crt4qpezpdve32k","","null","","<p style=""color:#054d00;""><b>Correct!</b></p>","","null","","","","","","","","","","","","","","","","","","","","","","","","","","","","","","","",""
"audio-keyboard-response","105","257450","0.0-4.0-1.0-0.28","2","0","crt4qpezpdve32k","","null","","sounds/induction/left_rev/ni_SWS.wav","","null","","","","","","","","","","","","","","","","","","","","","","","","","","","","","","","",""
"html-button-response","106","258166","0.0-4.0-1.0-1.28","2","0","crt4qpezpdve32k","","715.4000000357628","","Was the sound coming from the left or the right?","0","","","1","INDUCTION-JUDGMENT","left","0","","","","","","","","","","","","","","","","","","","","","","","","","","",""
"html-keyboard-response","107","259172","0.0-4.0-1.0-2.28","2","0","crt4qpezpdve32k","","null","","<p style=""color:#054d00;""><b>Correct!</b></p>","","null","","","","","","","","","","","","","","","","","","","","","","","","","","","","","","","",""
"audio-keyboard-response","108","259975","0.0-4.0-1.0-0.29","2","0","crt4qpezpdve32k","","null","","sounds/induction/right_rev/ge_SWS.wav","","null","","","","","","","","","","","","","","","","","","","","","","","","","","","","","","","",""
"html-button-response","109","260562","0.0-4.0-1.0-1.29","2","0","crt4qpezpdve32k","","587","","Was the sound coming from the left or the right?","1","","","1","INDUCTION-JUDGMENT","right","1","","","","","","","","","","","","","","","","","","","","","","","","","","",""
"html-keyboard-response","110","261567","0.0-4.0-1.0-2.29","2","0","crt4qpezpdve32k","","null","","<p style=""color:#054d00;""><b>Correct!</b></p>","","null","","","","","","","","","","","","","","","","","","","","","","","","","","","","","","","",""
"audio-keyboard-response","111","262372","0.0-4.0-1.0-0.30","2","0","crt4qpezpdve32k","","null","","sounds/induction/right_rev/ni_SWS.wav","","null","","","","","","","","","","","","","","","","","","","","","","","","","","","","","","","",""
"html-button-response","112","262960","0.0-4.0-1.0-1.30","2","0","crt4qpezpdve32k","","586.8000000119209","","Was the sound coming from the left or the right?","1","","","1","INDUCTION-JUDGMENT","right","1","","","","","","","","","","","","","","","","","","","","","","","","","","",""
"html-keyboard-response","113","263964","0.0-4.0-1.0-2.30","2","0","crt4qpezpdve32k","","null","","<p style=""color:#054d00;""><b>Correct!</b></p>","","null","","","","","","","","","","","","","","","","","","","","","","","","","","","","","","","",""
"audio-keyboard-response","114","264770","0.0-4.0-1.0-0.31","2","0","crt4qpezpdve32k","","null","","sounds/induction/right_rev/re_SWS.wav","","null","","","","","","","","","","","","","","","","","","","","","","","","","","","","","","","",""
"html-button-response","115","265285","0.0-4.0-1.0-1.31","2","0","crt4qpezpdve32k","","514.1000000238419","","Was the sound coming from the left or the right?","1","","","1","INDUCTION-JUDGMENT","right","1","","","","","","","","","","","","","","","","","","","","","","","","","","",""
"html-keyboard-response","116","266288","0.0-4.0-1.0-2.31","2","0","crt4qpezpdve32k","","null","","<p style=""color:#054d00;""><b>Correct!</b></p>","","null","","","","","","","","","","","","","","","","","","","","","","","","","","","","","","","",""
"audio-keyboard-response","117","267087","0.0-4.0-1.0-0.32","2","0","crt4qpezpdve32k","","null","","sounds/induction/right_rev/me_SWS.wav","","null","","","","","","","","","","","","","","","","","","","","","","","","","","","","","","","",""
"html-button-response","118","267739","0.0-4.0-1.0-1.32","2","0","crt4qpezpdve32k","","651.3000000119209","","Was the sound coming from the left or the right?","1","","","1","INDUCTION-JUDGMENT","right","1","","","","","","","","","","","","","","","","","","","","","","","","","","",""
"html-keyboard-response","119","268742","0.0-4.0-1.0-2.32","2","0","crt4qpezpdve32k","","null","","<p style=""color:#054d00;""><b>Correct!</b></p>","","null","","","","","","","","","","","","","","","","","","","","","","","","","","","","","","","",""
"audio-keyboard-response","120","269548","0.0-4.0-1.0-0.33","2","0","crt4qpezpdve32k","","null","","sounds/induction/right_rev/fe_SWS.wav","","null","","","","","","","","","","","","","","","","","","","","","","","","","","","","","","","",""
"html-button-response","121","270201","0.0-4.0-1.0-1.33","2","0","crt4qpezpdve32k","","651.3000000119209","","Was the sound coming from the left or the right?","1","","","1","INDUCTION-JUDGMENT","right","1","","","","","","","","","","","","","","","","","","","","","","","","","","",""
"html-keyboard-response","122","271203","0.0-4.0-1.0-2.33","2","0","crt4qpezpdve32k","","null","","<p style=""color:#054d00;""><b>Correct!</b></p>","","null","","","","","","","","","","","","","","","","","","","","","","","","","","","","","","","",""
"audio-keyboard-response","123","272004","0.0-4.0-1.0-0.34","2","0","crt4qpezpdve32k","","null","","sounds/induction/right_rev/ti_SWS.wav","","null","","","","","","","","","","","","","","","","","","","","","","","","","","","","","","","",""
"html-button-response","124","273860","0.0-4.0-1.0-1.34","2","0","crt4qpezpdve32k","","1855.199999988079","","Was the sound coming from the left or the right?","1","","","1","INDUCTION-JUDGMENT","right","1","","","","","","","","","","","","","","","","","","","","","","","","","","",""
"html-keyboard-response","125","274866","0.0-4.0-1.0-2.34","2","0","crt4qpezpdve32k","","null","","<p style=""color:#054d00;""><b>Correct!</b></p>","","null","","","","","","","","","","","","","","","","","","","","","","","","","","","","","","","",""
"audio-keyboard-response","126","275670","0.0-4.0-1.0-0.35","2","0","crt4qpezpdve32k","","null","","sounds/induction/left_rev/ta_SWS.wav","","null","","","","","","","","","","","","","","","","","","","","","","","","","","","","","","","",""
"html-button-response","127","276396","0.0-4.0-1.0-1.35","2","0","crt4qpezpdve32k","","725.5","","Was the sound coming from the left or the right?","0","","","1","INDUCTION-JUDGMENT","left","0","","","","","","","","","","","","","","","","","","","","","","","","","","",""
"html-keyboard-response","128","277399","0.0-4.0-1.0-2.35","2","0","crt4qpezpdve32k","","null","","<p style=""color:#054d00;""><b>Correct!</b></p>","","null","","","","","","","","","","","","","","","","","","","","","","","","","","","","","","","",""
"audio-keyboard-response","129","278203","0.0-4.0-1.0-0.36","2","0","crt4qpezpdve32k","","null","","sounds/induction/right_rev/ko_SWS.wav","","null","","","","","","","","","","","","","","","","","","","","","","","","","","","","","","","",""
"html-button-response","130","278737","0.0-4.0-1.0-1.36","2","0","crt4qpezpdve32k","","532.9000000357628","","Was the sound coming from the left or the right?","1","","","1","INDUCTION-JUDGMENT","right","1","","","","","","","","","","","","","","","","","","","","","","","","","","",""
"html-keyboard-response","131","279737","0.0-4.0-1.0-2.36","2","0","crt4qpezpdve32k","","null","","<p style=""color:#054d00;""><b>Correct!</b></p>","","null","","","","","","","","","","","","","","","","","","","","","","","","","","","","","","","",""
"audio-keyboard-response","132","280535","0.0-4.0-1.0-0.37","2","0","crt4qpezpdve32k","","null","","sounds/induction/left_rev/ge_SWS.wav","","null","","","","","","","","","","","","","","","","","","","","","","","","","","","","","","","",""
"html-button-response","133","281142","0.0-4.0-1.0-1.37","2","0","crt4qpezpdve32k","","606.6000000238419","","Was the sound coming from the left or the right?","0","","","1","INDUCTION-JUDGMENT","left","0","","","","","","","","","","","","","","","","","","","","","","","","","","",""
"html-keyboard-response","134","282145","0.0-4.0-1.0-2.37","2","0","crt4qpezpdve32k","","null","","<p style=""color:#054d00;""><b>Correct!</b></p>","","null","","","","","","","","","","","","","","","","","","","","","","","","","","","","","","","",""
"audio-keyboard-response","135","282950","0.0-4.0-1.0-0.38","2","0","crt4qpezpdve32k","","null","","sounds/induction/left_rev/ti_SWS.wav","","null","","","","","","","","","","","","","","","","","","","","","","","","","","","","","","","",""
"html-button-response","136","283500","0.0-4.0-1.0-1.38","2","0","crt4qpezpdve32k","","549.6999999880791","","Was the sound coming from the left or the right?","0","","","1","INDUCTION-JUDGMENT","left","0","","","","","","","","","","","","","","","","","","","","","","","","","","",""
"html-keyboard-response","137","284502","0.0-4.0-1.0-2.38","2","0","crt4qpezpdve32k","","null","","<p style=""color:#054d00;""><b>Correct!</b></p>","","null","","","","","","","","","","","","","","","","","","","","","","","","","","","","","","","",""
"audio-keyboard-response","138","285301","0.0-4.0-1.0-0.39","2","0","crt4qpezpdve32k","","null","","sounds/induction/left_rev/pu_SWS.wav","","null","","","","","","","","","","","","","","","","","","","","","","","","","","","","","","","",""
"html-button-response","139","286253","0.0-4.0-1.0-1.39","2","0","crt4qpezpdve32k","","950.6999999880791","","Was the sound coming from the left or the right?","0","","","1","INDUCTION-JUDGMENT","left","0","","","","","","","","","","","","","","","","","","","","","","","","","","",""
"html-keyboard-response","140","287256","0.0-4.0-1.0-2.39","2","0","crt4qpezpdve32k","","null","","<p style=""color:#054d00;""><b>Correct!</b></p>","","null","","","","","","","","","","","","","","","","","","","","","","","","","","","","","","","",""
"audio-keyboard-response","141","288058","0.0-4.0-1.0-0.40","2","0","crt4qpezpdve32k","","null","","sounds/induction/left_rev/ru_SWS.wav","","null","","","","","","","","","","","","","","","","","","","","","","","","","","","","","","","",""
"html-button-response","142","288748","0.0-4.0-1.0-1.40","2","0","crt4qpezpdve32k","","688.6999999880791","","Was the sound coming from the left or the right?","0","","","1","INDUCTION-JUDGMENT","left","0","","","","","","","","","","","","","","","","","","","","","","","","","","",""
"html-keyboard-response","143","289750","0.0-4.0-1.0-2.40","2","0","crt4qpezpdve32k","","null","","<p style=""color:#054d00;""><b>Correct!</b></p>","","null","","","","","","","","","","","","","","","","","","","","","","","","","","","","","","","",""
"audio-keyboard-response","144","290554","0.0-4.0-1.0-0.41","2","0","crt4qpezpdve32k","","null","","sounds/induction/right_rev/ni_SWS.wav","","null","","","","","","","","","","","","","","","","","","","","","","","","","","","","","","","",""
"html-button-response","145","292857","0.0-4.0-1.0-1.41","2","0","crt4qpezpdve32k","","2301.7000000476837","","Was the sound coming from the left or the right?","1","","","1","INDUCTION-JUDGMENT","right","1","","","","","","","","","","","","","","","","","","","","","","","","","","",""
"html-keyboard-response","146","293862","0.0-4.0-1.0-2.41","2","0","crt4qpezpdve32k","","null","","<p style=""color:#054d00;""><b>Correct!</b></p>","","null","","","","","","","","","","","","","","","","","","","","","","","","","","","","","","","",""
"audio-keyboard-response","147","294667","0.0-4.0-1.0-0.42","2","0","crt4qpezpdve32k","","null","","sounds/induction/right_rev/fu_SWS.wav","","null","","","","","","","","","","","","","","","","","","","","","","","","","","","","","","","",""
"html-button-response","148","304593","0.0-4.0-1.0-1.42","2","0","crt4qpezpdve32k","","9925.599999964237","","Was the sound coming from the left or the right?","1","","","1","INDUCTION-JUDGMENT","right","1","","","","","","","","","","","","","","","","","","","","","","","","","","",""
"html-keyboard-response","149","305599","0.0-4.0-1.0-2.42","2","0","crt4qpezpdve32k","","null","","<p style=""color:#054d00;""><b>Correct!</b></p>","","null","","","","","","","","","","","","","","","","","","","","","","","","","","","","","","","",""
"audio-keyboard-response","150","306406","0.0-4.0-1.0-0.43","2","0","crt4qpezpdve32k","","null","","sounds/induction/right_rev/ta_SWS.wav","","null","","","","","","","","","","","","","","","","","","","","","","","","","","","","","","","",""
"html-button-response","151","307362","0.0-4.0-1.0-1.43","2","0","crt4qpezpdve32k","","955.2000000476837","","Was the sound coming from the left or the right?","1","","","1","INDUCTION-JUDGMENT","right","1","","","","","","","","","","","","","","","","","","","","","","","","","","",""
"html-keyboard-response","152","308367","0.0-4.0-1.0-2.43","2","0","crt4qpezpdve32k","","null","","<p style=""color:#054d00;""><b>Correct!</b></p>","","null","","","","","","","","","","","","","","","","","","","","","","","","","","","","","","","",""
"audio-keyboard-response","153","309170","0.0-4.0-1.0-0.44","2","0","crt4qpezpdve32k","","null","","sounds/induction/right_rev/ru_SWS.wav","","null","","","","","","","","","","","","","","","","","","","","","","","","","","","","","","","",""
"html-button-response","154","309575","0.0-4.0-1.0-1.44","2","0","crt4qpezpdve32k","","404.60000002384186","","Was the sound coming from the left or the right?","1","","","1","INDUCTION-JUDGMENT","right","1","","","","","","","","","","","","","","","","","","","","","","","","","","",""
"html-keyboard-response","155","310579","0.0-4.0-1.0-2.44","2","0","crt4qpezpdve32k","","null","","<p style=""color:#054d00;""><b>Correct!</b></p>","","null","","","","","","","","","","","","","","","","","","","","","","","","","","","","","","","",""
"audio-keyboard-response","156","311387","0.0-4.0-1.0-0.45","2","0","crt4qpezpdve32k","","null","","sounds/induction/right_rev/ge_SWS.wav","","null","","","","","","","","","","","","","","","","","","","","","","","","","","","","","","","",""
"html-button-response","157","311811","0.0-4.0-1.0-1.45","2","0","crt4qpezpdve32k","","422.69999998807907","","Was the sound coming from the left or the right?","1","","","1","INDUCTION-JUDGMENT","right","1","","","","","","","","","","","","","","","","","","","","","","","","","","",""
"html-keyboard-response","158","312813","0.0-4.0-1.0-2.45","2","0","crt4qpezpdve32k","","null","","<p style=""color:#054d00;""><b>Correct!</b></p>","","null","","","","","","","","","","","","","","","","","","","","","","","","","","","","","","","",""
"audio-keyboard-response","159","313617","0.0-4.0-1.0-0.46","2","0","crt4qpezpdve32k","","null","","sounds/induction/left_rev/re_SWS.wav","","null","","","","","","","","","","","","","","","","","","","","","","","","","","","","","","","",""
"html-button-response","160","314256","0.0-4.0-1.0-1.46","2","0","crt4qpezpdve32k","","638.6999999880791","","Was the sound coming from the left or the right?","0","","","1","INDUCTION-JUDGMENT","left","0","","","","","","","","","","","","","","","","","","","","","","","","","","",""
"html-keyboard-response","161","315261","0.0-4.0-1.0-2.46","2","0","crt4qpezpdve32k","","null","","<p style=""color:#054d00;""><b>Correct!</b></p>","","null","","","","","","","","","","","","","","","","","","","","","","","","","","","","","","","",""
"audio-keyboard-response","162","316061","0.0-4.0-1.0-0.47","2","0","crt4qpezpdve32k","","null","","sounds/induction/right_rev/re_SWS.wav","","null","","","","","","","","","","","","","","","","","","","","","","","","","","","","","","","",""
"html-button-response","163","316841","0.0-4.0-1.0-1.47","2","0","crt4qpezpdve32k","","779","","Was the sound coming from the left or the right?","0","","","0","INDUCTION-JUDGMENT","right","1","","","","","","","","","","","","","","","","","","","","","","","","","","",""
"html-keyboard-response","164","317842","0.0-4.0-1.0-2.47","2","0","crt4qpezpdve32k","","null","","<p style=""color:#690000;""><b>Incorrect!</b></p>","","null","","","","","","","","","","","","","","","","","","","","","","","","","","","","","","","",""
"html-button-response","165","331151","0.0-5.0-0.0","2","0","crt4qpezpdve32k","","12808.199999988079","","<p>Thank you for your answers.</p><p>You will now listen to similar sounds. The main difference is that the sounds will be longer.</p><p>Just as before, you will be asked to judge whether the sound was coming from the left or the right.</p><p>There are 10 of these longer sounds in total.","0","","","","","","","","","","","","","","","","","","","","","","","","","","","","","","","","",""
"audio-keyboard-response","166","333963","0.0-5.0-1.0-0.0","2","0","crt4qpezpdve32k","","null","","sounds/sentences/left_rev/14_02_cfSWS.wav","","null","","","","","","","","","","","","","","","","","","","","","","","","","","","","","","","",""
"html-button-response","167","335269","0.0-5.0-1.0-1.0","2","0","crt4qpezpdve32k","","1304.699999988079","","Was the sound coming from the left or the right?","0","","","1","INDUCTION-JUDGMENT","left","0","","","","","","","","","","","","","","","","","","","","","","","","","","",""
"html-keyboard-response","168","336271","0.0-5.0-1.0-2.0","2","0","crt4qpezpdve32k","","null","","<p style=""color:#054d00;""><b>Correct!</b></p>","","null","","","","","","","","","","","","","","","","","","","","","","","","","","","","","","","",""
"html-button-response","169","339275","0.0-5.0-1.0-3.0","2","0","crt4qpezpdve32k","","2497.800000011921","","<p>Press the button below when you are ready to continue.</p>","0","","","","","","","","","","","","","","","","","","","","","","","","","","","","","","","","",""
"audio-keyboard-response","170","342008","0.0-5.0-1.0-0.1","2","0","crt4qpezpdve32k","","null","","sounds/sentences/right_rev/14_09_cfSWS.wav","","null","","","","","","","","","","","","","","","","","","","","","","","","","","","","","","","",""
"html-button-response","171","342624","0.0-5.0-1.0-1.1","2","0","crt4qpezpdve32k","","615.7000000476837","","Was the sound coming from the left or the right?","1","","","1","INDUCTION-JUDGMENT","right","1","","","","","","","","","","","","","","","","","","","","","","","","","","",""
"html-keyboard-response","172","343627","0.0-5.0-1.0-2.1","2","0","crt4qpezpdve32k","","null","","<p style=""color:#054d00;""><b>Correct!</b></p>","","null","","","","","","","","","","","","","","","","","","","","","","","","","","","","","","","",""
"html-button-response","173","344893","0.0-5.0-1.0-3.1","2","0","crt4qpezpdve32k","","760.8999999761581","","<p>Press the button below when you are ready to continue.</p>","0","","","","","","","","","","","","","","","","","","","","","","","","","","","","","","","","",""
"audio-keyboard-response","174","348014","0.0-5.0-1.0-0.2","2","0","crt4qpezpdve32k","","null","","sounds/sentences/left_rev/14_01_cfSWS.wav","","null","","","","","","","","","","","","","","","","","","","","","","","","","","","","","","","",""
"html-button-response","175","348638","0.0-5.0-1.0-1.2","2","0","crt4qpezpdve32k","","622.6999999880791","","Was the sound coming from the left or the right?","0","","","1","INDUCTION-JUDGMENT","left","0","","","","","","","","","","","","","","","","","","","","","","","","","","",""
"html-keyboard-response","176","349641","0.0-5.0-1.0-2.2","2","0","crt4qpezpdve32k","","null","","<p style=""color:#054d00;""><b>Correct!</b></p>","","null","","","","","","","","","","","","","","","","","","","","","","","","","","","","","","","",""
"html-button-response","177","350761","0.0-5.0-1.0-3.2","2","0","crt4qpezpdve32k","","615.5","","<p>Press the button below when you are ready to continue.</p>","0","","","","","","","","","","","","","","","","","","","","","","","","","","","","","","","","",""
"audio-keyboard-response","178","353348","0.0-5.0-1.0-0.3","2","0","crt4qpezpdve32k","","null","","sounds/sentences/left_rev/14_03_cfSWS.wav","","null","","","","","","","","","","","","","","","","","","","","","","","","","","","","","","","",""
"html-button-response","179","353821","0.0-5.0-1.0-1.3","2","0","crt4qpezpdve32k","","471.9000000357628","","Was the sound coming from the left or the right?","0","","","1","INDUCTION-JUDGMENT","left","0","","","","","","","","","","","","","","","","","","","","","","","","","","",""
"html-keyboard-response","180","354824","0.0-5.0-1.0-2.3","2","0","crt4qpezpdve32k","","null","","<p style=""color:#054d00;""><b>Correct!</b></p>","","null","","","","","","","","","","","","","","","","","","","","","","","","","","","","","","","",""
"html-button-response","181","355783","0.0-5.0-1.0-3.3","2","0","crt4qpezpdve32k","","453.60000002384186","","<p>Press the button below when you are ready to continue.</p>","0","","","","","","","","","","","","","","","","","","","","","","","","","","","","","","","","",""
"audio-keyboard-response","182","358677","0.0-5.0-1.0-0.4","2","0","crt4qpezpdve32k","","null","","sounds/sentences/right_rev/14_07_cfSWS.wav","","null","","","","","","","","","","","","","","","","","","","","","","","","","","","","","","","",""
"html-button-response","183","359124","0.0-5.0-1.0-1.4","2","0","crt4qpezpdve32k","","446.2000000476837","","Was the sound coming from the left or the right?","1","","","1","INDUCTION-JUDGMENT","right","1","","","","","","","","","","","","","","","","","","","","","","","","","","",""
"html-keyboard-response","184","360128","0.0-5.0-1.0-2.4","2","0","crt4qpezpdve32k","","null","","<p style=""color:#054d00;""><b>Correct!</b></p>","","null","","","","","","","","","","","","","","","","","","","","","","","","","","","","","","","",""
"html-button-response","185","360925","0.0-5.0-1.0-3.4","2","0","crt4qpezpdve32k","","295","","<p>Press the button below when you are ready to continue.</p>","0","","","","","","","","","","","","","","","","","","","","","","","","","","","","","","","","",""
"audio-keyboard-response","186","363946","0.0-5.0-1.0-0.5","2","0","crt4qpezpdve32k","","null","","sounds/sentences/right_rev/14_10_cfSWS.wav","","null","","","","","","","","","","","","","","","","","","","","","","","","","","","","","","","",""
"html-button-response","187","364308","0.0-5.0-1.0-1.5","2","0","crt4qpezpdve32k","","359.80000001192093","","Was the sound coming from the left or the right?","1","","","1","INDUCTION-JUDGMENT","right","1","","","","","","","","","","","","","","","","","","","","","","","","","","",""
"html-keyboard-response","188","365309","0.0-5.0-1.0-2.5","2","0","crt4qpezpdve32k","","null","","<p style=""color:#054d00;""><b>Correct!</b></p>","","null","","","","","","","","","","","","","","","","","","","","","","","","","","","","","","","",""
"html-button-response","189","366123","0.0-5.0-1.0-3.5","2","0","crt4qpezpdve32k","","309.69999998807907","","<p>Press the button below when you are ready to continue.</p>","0","","","","","","","","","","","","","","","","","","","","","","","","","","","","","","","","",""
"audio-keyboard-response","190","368679","0.0-5.0-1.0-0.6","2","0","crt4qpezpdve32k","","null","","sounds/sentences/left_rev/14_04_cfSWS.wav","","null","","","","","","","","","","","","","","","","","","","","","","","","","","","","","","","",""
"html-button-response","191","369168","0.0-5.0-1.0-1.6","2","0","crt4qpezpdve32k","","487.5","","Was the sound coming from the left or the right?","0","","","1","INDUCTION-JUDGMENT","left","0","","","","","","","","","","","","","","","","","","","","","","","","","","",""
"html-keyboard-response","192","370172","0.0-5.0-1.0-2.6","2","0","crt4qpezpdve32k","","null","","<p style=""color:#054d00;""><b>Correct!</b></p>","","null","","","","","","","","","","","","","","","","","","","","","","","","","","","","","","","",""
"html-button-response","193","371250","0.0-5.0-1.0-3.6","2","0","crt4qpezpdve32k","","572.9000000357628","","<p>Press the button below when you are ready to continue.</p>","0","","","","","","","","","","","","","","","","","","","","","","","","","","","","","","","","",""
"audio-keyboard-response","194","374238","0.0-5.0-1.0-0.7","2","0","crt4qpezpdve32k","","null","","sounds/sentences/left_rev/14_05_cfSWS.wav","","null","","","","","","","","","","","","","","","","","","","","","","","","","","","","","","","",""
"html-button-response","195","374802","0.0-5.0-1.0-1.7","2","0","crt4qpezpdve32k","","562.8000000119209","","Was the sound coming from the left or the right?","0","","","1","INDUCTION-JUDGMENT","left","0","","","","","","","","","","","","","","","","","","","","","","","","","","",""
"html-keyboard-response","196","375808","0.0-5.0-1.0-2.7","2","0","crt4qpezpdve32k","","null","","<p style=""color:#054d00;""><b>Correct!</b></p>","","null","","","","","","","","","","","","","","","","","","","","","","","","","","","","","","","",""
"html-button-response","197","376957","0.0-5.0-1.0-3.7","2","0","crt4qpezpdve32k","","647.3000000119209","","<p>Press the button below when you are ready to continue.</p>","0","","","","","","","","","","","","","","","","","","","","","","","","","","","","","","","","",""
"audio-keyboard-response","198","379700","0.0-5.0-1.0-0.8","2","0","crt4qpezpdve32k","","null","","sounds/sentences/right_rev/14_06_cfSWS.wav","","null","","","","","","","","","","","","","","","","","","","","","","","","","","","","","","","",""
"html-button-response","199","380299","0.0-5.0-1.0-1.8","2","0","crt4qpezpdve32k","","598.2999999523163","","Was the sound coming from the left or the right?","1","","","1","INDUCTION-JUDGMENT","right","1","","","","","","","","","","","","","","","","","","","","","","","","","","",""
"html-keyboard-response","200","381301","0.0-5.0-1.0-2.8","2","0","crt4qpezpdve32k","","null","","<p style=""color:#054d00;""><b>Correct!</b></p>","","null","","","","","","","","","","","","","","","","","","","","","","","","","","","","","","","",""
"html-button-response","201","382199","0.0-5.0-1.0-3.8","2","0","crt4qpezpdve32k","","395.19999998807907","","<p>Press the button below when you are ready to continue.</p>","0","","","","","","","","","","","","","","","","","","","","","","","","","","","","","","","","",""
"audio-keyboard-response","202","384959","0.0-5.0-1.0-0.9","2","0","crt4qpezpdve32k","","null","","sounds/sentences/right_rev/14_08_cfSWS.wav","","null","","","","","","","","","","","","","","","","","","","","","","","","","","","","","","","",""
"html-button-response","203","385864","0.0-5.0-1.0-1.9","2","0","crt4qpezpdve32k","","904.4000000357628","","Was the sound coming from the left or the right?","1","","","1","INDUCTION-JUDGMENT","right","1","","","","","","","","","","","","","","","","","","","","","","","","","","",""
"html-keyboard-response","204","386867","0.0-5.0-1.0-2.9","2","0","crt4qpezpdve32k","","null","","<p style=""color:#054d00;""><b>Correct!</b></p>","","null","","","","","","","","","","","","","","","","","","","","","","","","","","","","","","","",""
"html-button-response","205","387915","0.0-5.0-1.0-3.9","2","0","crt4qpezpdve32k","","541.8999999761581","","<p>Press the button below when you are ready to continue.</p>","0","","","","","","","","","","","","","","","","","","","","","","","","","","","","","","","","",""
"html-keyboard-response","206","401594","0.0-6.0-0.0","2","0","crt4qpezpdve32k","","13174.100000023842","","<p>In this part of the study, you will hear sounds similar to those you just heard.</p><p>Please focus on these sounds, as you may be asked questions about them later.</p><p>Occasionally, the sounds will pause for up to two seconds. When this happens, please press SPACEBAR as quickly as you can.</br>This helps ensure that you are paying attention to the sounds.</p><p>This part of the study will take about 12 minutes to complete, and you will be given the opportunity to take a couple of short breaks every few minutes.</p><p><strong>Press SPACEBAR to begin</strong></p>","","32","","","","","","","","","","","","","","","","","","","","","","","","","","","","","","","",""
"html-keyboard-response","207","402599","0.0-6.0-1.0-0.0","2","0","crt4qpezpdve32k","","null","","<p style=""font-size: 40px;"">+</p>","","null","","","","","","","","","","","","","","","","","","","","","","","","","","","","","","","",""
"html-keyboard-response","208","587607","0.0-6.0-1.0-1.0","2","0","crt4qpezpdve32k","","null","","","","null","","","SL-TRAIN","","","0","769.5","1050.5","sounds/B/TRAIN/SEQ__03.mp3","2","","","","","","","","","","","","","","","","","","","","","",""
"html-button-response","209","590011","0.0-6.0-1.0-2.0","2","0","crt4qpezpdve32k","","2402.899999976158","","<p>You may take a short break if you wish.</p>","0","","","","","","","","","","","","","","","","","","","","","","","","","","","","","","","","",""
"html-keyboard-response","210","591014","0.0-6.0-1.0-3.0","2","0","crt4qpezpdve32k","","null","","<p style=""font-size: 40px;"">+</p>","","null","","","","","","","","","","","","","","","","","","","","","","","","","","","","","","","",""
"html-keyboard-response","211","776020","0.0-6.0-1.0-4.0","2","0","crt4qpezpdve32k","","null","","","","null","","","SL-TRAIN","","","0","696.4000000357628","983","sounds/B/TRAIN/SEQ__10.mp3","9","","","","","","","","","","","","","","","","","","","","","",""
"html-button-response","212","797847","0.0-6.0-1.0-5.0","2","0","crt4qpezpdve32k","","21825","","<p>You may take a short break if you wish.</p>","0","","","","","","","","","","","","","","","","","","","","","","","","","","","","","","","","",""
"html-keyboard-response","213","798850","0.0-6.0-1.0-6.0","2","0","crt4qpezpdve32k","","null","","<p style=""font-size: 40px;"">+</p>","","null","","","","","","","","","","","","","","","","","","","","","","","","","","","","","","","",""
"html-keyboard-response","214","983863","0.0-6.0-1.0-7.0","2","0","crt4qpezpdve32k","","null","","","","null","","","SL-TRAIN","","","2","null","null","sounds/B/TRAIN/SEQ__01.mp3","2","","","","","","","","","","","","","","","","","","","","","",""
"html-button-response","215","993056","0.0-6.0-1.0-8.0","2","0","crt4qpezpdve32k","","9181.699999988079","","<p>You may take a short break if you wish.</p>","0","","","","","","","","","","","","","","","","","","","","","","","","","","","","","","","","",""
"html-keyboard-response","216","994060","0.0-6.0-1.0-9.0","2","0","crt4qpezpdve32k","","null","","<p style=""font-size: 40px;"">+</p>","","null","","","","","","","","","","","","","","","","","","","","","","","","","","","","","","","",""
"html-keyboard-response","217","1179071","0.0-6.0-1.0-10.0","2","0","crt4qpezpdve32k","","null","","","","null","","","SL-TRAIN","","","0","974.3000000119209","822.4000000357628","sounds/B/TRAIN/SEQ__09.mp3","8","","","","","","","","","","","","","","","","","","","","","",""
"html-button-response","218","1180932","0.0-6.0-1.0-11.0","2","0","crt4qpezpdve32k","","1860.699999988079","","<p>You may take a short break if you wish.</p>","0","","","","","","","","","","","","","","","","","","","","","","","","","","","","","","","","",""
"html-button-response","219","1206498","0.0-7.0-0.0","2","0","crt4qpezpdve32k","","25564.5","","<p>Welcome to the second part of the study. This is a <u>familiarity task</u>.</p><p>You will now hear short sounds and will be asked to rate how familiar they sound to you <b>based on what you heard in the previous part of the study</b>.</p><p>You will rate 12 sounds in total.</p>","0","","","","","","","","","","","","","","","","","","","","","","","","","","","","","","","","",""
"html-keyboard-response","220","1207501","0.0-7.0-1.0-0.0","2","0","crt4qpezpdve32k","","null","","","","null","","","","","","","","","","","","","","","","","","","","","","","","","","","","","","","",""
"audio-keyboard-response","221","1209004","0.0-7.0-1.0-1.0","2","0","crt4qpezpdve32k","","null","","sounds/B/FAM/W003.mp3","","null","","","","","","","","","","","","","","","","","","","","","","","","","","","","","","","",""
"html-keyboard-response","222","1212487","0.0-7.0-1.0-2.0","2","0","crt4qpezpdve32k","","2982.5","","<p>How familiar did this sound to you?</p><p>1&nbsp;&nbsp;&nbsp;&nbsp;&nbsp;&nbsp;&nbsp;&nbsp;&nbsp;&nbsp;&nbsp;&nbsp;&nbsp;&nbsp;&nbsp;&nbsp;&nbsp;&nbsp;&nbsp;2&nbsp;&nbsp;&nbsp;&nbsp;&nbsp;&nbsp;&nbsp;&nbsp;&nbsp;&nbsp;&nbsp;&nbsp;&nbsp;&nbsp;&nbsp;&nbsp;&nbsp;&nbsp;&nbsp;3&nbsp;&nbsp;&nbsp;&nbsp;&nbsp;&nbsp;&nbsp;&nbsp;&nbsp;&nbsp;&nbsp;&nbsp;&nbsp;&nbsp;&nbsp;&nbsp;&nbsp;&nbsp;&nbsp;4</p><p style=""font-size:14px"">Not at all familiar&nbsp;&nbsp;&nbsp;&nbsp;A little familiar&nbsp;&nbsp;&nbsp;Moderately familiar&nbsp;&nbsp;&nbsp;Extremely familiar</p><p>(press the corresponding number on your keyboard)</p>","","52","","","FAM-RESPONSE","","","","","","","","sounds/B/FAM/W003.mp3","word","","","","","","","","","","","","","","","","","","","",""
"html-keyboard-response","223","1214497","0.0-7.0-1.0-0.1","2","0","crt4qpezpdve32k","","null","","","","null","","","","","","","","","","","","","","","","","","","","","","","","","","","","","","","",""
"audio-keyboard-response","224","1215433","0.0-7.0-1.0-1.1","2","0","crt4qpezpdve32k","","null","","sounds/B/FAM/N001.mp3","","null","","","","","","","","","","","","","","","","","","","","","","","","","","","","","","","",""
"html-keyboard-response","225","1217343","0.0-7.0-1.0-2.1","2","0","crt4qpezpdve32k","","1406.1000000238419","","<p>How familiar did this sound to you?</p><p>1&nbsp;&nbsp;&nbsp;&nbsp;&nbsp;&nbsp;&nbsp;&nbsp;&nbsp;&nbsp;&nbsp;&nbsp;&nbsp;&nbsp;&nbsp;&nbsp;&nbsp;&nbsp;&nbsp;2&nbsp;&nbsp;&nbsp;&nbsp;&nbsp;&nbsp;&nbsp;&nbsp;&nbsp;&nbsp;&nbsp;&nbsp;&nbsp;&nbsp;&nbsp;&nbsp;&nbsp;&nbsp;&nbsp;3&nbsp;&nbsp;&nbsp;&nbsp;&nbsp;&nbsp;&nbsp;&nbsp;&nbsp;&nbsp;&nbsp;&nbsp;&nbsp;&nbsp;&nbsp;&nbsp;&nbsp;&nbsp;&nbsp;4</p><p style=""font-size:14px"">Not at all familiar&nbsp;&nbsp;&nbsp;&nbsp;A little familiar&nbsp;&nbsp;&nbsp;Moderately familiar&nbsp;&nbsp;&nbsp;Extremely familiar</p><p>(press the corresponding number on your keyboard)</p>","","50","","","FAM-RESPONSE","","","","","","","","sounds/B/FAM/N001.mp3","nonword","","","","","","","","","","","","","","","","","","","",""
"html-keyboard-response","226","1219350","0.0-7.0-1.0-0.2","2","0","crt4qpezpdve32k","","null","","","","null","","","","","","","","","","","","","","","","","","","","","","","","","","","","","","","",""
"audio-keyboard-response","227","1220286","0.0-7.0-1.0-1.2","2","0","crt4qpezpdve32k","","null","","sounds/B/FAM/W002.mp3","","null","","","","","","","","","","","","","","","","","","","","","","","","","","","","","","","",""
"html-keyboard-response","228","1221742","0.0-7.0-1.0-2.2","2","0","crt4qpezpdve32k","","950.8000000119209","","<p>How familiar did this sound to you?</p><p>1&nbsp;&nbsp;&nbsp;&nbsp;&nbsp;&nbsp;&nbsp;&nbsp;&nbsp;&nbsp;&nbsp;&nbsp;&nbsp;&nbsp;&nbsp;&nbsp;&nbsp;&nbsp;&nbsp;2&nbsp;&nbsp;&nbsp;&nbsp;&nbsp;&nbsp;&nbsp;&nbsp;&nbsp;&nbsp;&nbsp;&nbsp;&nbsp;&nbsp;&nbsp;&nbsp;&nbsp;&nbsp;&nbsp;3&nbsp;&nbsp;&nbsp;&nbsp;&nbsp;&nbsp;&nbsp;&nbsp;&nbsp;&nbsp;&nbsp;&nbsp;&nbsp;&nbsp;&nbsp;&nbsp;&nbsp;&nbsp;&nbsp;4</p><p style=""font-size:14px"">Not at all familiar&nbsp;&nbsp;&nbsp;&nbsp;A little familiar&nbsp;&nbsp;&nbsp;Moderately familiar&nbsp;&nbsp;&nbsp;Extremely familiar</p><p>(press the corresponding number on your keyboard)</p>","","50","","","FAM-RESPONSE","","","","","","","","sounds/B/FAM/W002.mp3","word","","","","","","","","","","","","","","","","","","","",""
"html-keyboard-response","229","1223750","0.0-7.0-1.0-0.3","2","0","crt4qpezpdve32k","","null","","","","null","","","","","","","","","","","","","","","","","","","","","","","","","","","","","","","",""
"audio-keyboard-response","230","1224688","0.0-7.0-1.0-1.3","2","0","crt4qpezpdve32k","","null","","sounds/B/FAM/P003.mp3","","null","","","","","","","","","","","","","","","","","","","","","","","","","","","","","","","",""
"html-keyboard-response","231","1227528","0.0-7.0-1.0-2.3","2","0","crt4qpezpdve32k","","2338.100000023842","","<p>How familiar did this sound to you?</p><p>1&nbsp;&nbsp;&nbsp;&nbsp;&nbsp;&nbsp;&nbsp;&nbsp;&nbsp;&nbsp;&nbsp;&nbsp;&nbsp;&nbsp;&nbsp;&nbsp;&nbsp;&nbsp;&nbsp;2&nbsp;&nbsp;&nbsp;&nbsp;&nbsp;&nbsp;&nbsp;&nbsp;&nbsp;&nbsp;&nbsp;&nbsp;&nbsp;&nbsp;&nbsp;&nbsp;&nbsp;&nbsp;&nbsp;3&nbsp;&nbsp;&nbsp;&nbsp;&nbsp;&nbsp;&nbsp;&nbsp;&nbsp;&nbsp;&nbsp;&nbsp;&nbsp;&nbsp;&nbsp;&nbsp;&nbsp;&nbsp;&nbsp;4</p><p style=""font-size:14px"">Not at all familiar&nbsp;&nbsp;&nbsp;&nbsp;A little familiar&nbsp;&nbsp;&nbsp;Moderately familiar&nbsp;&nbsp;&nbsp;Extremely familiar</p><p>(press the corresponding number on your keyboard)</p>","","51","","","FAM-RESPONSE","","","","","","","","sounds/B/FAM/P003.mp3","partword","","","","","","","","","","","","","","","","","","","",""
"html-keyboard-response","232","1229535","0.0-7.0-1.0-0.4","2","0","crt4qpezpdve32k","","null","","","","null","","","","","","","","","","","","","","","","","","","","","","","","","","","","","","","",""
"audio-keyboard-response","233","1230474","0.0-7.0-1.0-1.4","2","0","crt4qpezpdve32k","","null","","sounds/B/FAM/N004.mp3","","null","","","","","","","","","","","","","","","","","","","","","","","","","","","","","","","",""
"html-keyboard-response","234","1232770","0.0-7.0-1.0-2.4","2","0","crt4qpezpdve32k","","1790.5","","<p>How familiar did this sound to you?</p><p>1&nbsp;&nbsp;&nbsp;&nbsp;&nbsp;&nbsp;&nbsp;&nbsp;&nbsp;&nbsp;&nbsp;&nbsp;&nbsp;&nbsp;&nbsp;&nbsp;&nbsp;&nbsp;&nbsp;2&nbsp;&nbsp;&nbsp;&nbsp;&nbsp;&nbsp;&nbsp;&nbsp;&nbsp;&nbsp;&nbsp;&nbsp;&nbsp;&nbsp;&nbsp;&nbsp;&nbsp;&nbsp;&nbsp;3&nbsp;&nbsp;&nbsp;&nbsp;&nbsp;&nbsp;&nbsp;&nbsp;&nbsp;&nbsp;&nbsp;&nbsp;&nbsp;&nbsp;&nbsp;&nbsp;&nbsp;&nbsp;&nbsp;4</p><p style=""font-size:14px"">Not at all familiar&nbsp;&nbsp;&nbsp;&nbsp;A little familiar&nbsp;&nbsp;&nbsp;Moderately familiar&nbsp;&nbsp;&nbsp;Extremely familiar</p><p>(press the corresponding number on your keyboard)</p>","","50","","","FAM-RESPONSE","","","","","","","","sounds/B/FAM/N004.mp3","nonword","","","","","","","","","","","","","","","","","","","",""
"html-keyboard-response","235","1234781","0.0-7.0-1.0-0.5","2","0","crt4qpezpdve32k","","null","","","","null","","","","","","","","","","","","","","","","","","","","","","","","","","","","","","","",""
"audio-keyboard-response","236","1235715","0.0-7.0-1.0-1.5","2","0","crt4qpezpdve32k","","null","","sounds/B/FAM/P004.mp3","","null","","","","","","","","","","","","","","","","","","","","","","","","","","","","","","","",""
"html-keyboard-response","237","1236759","0.0-7.0-1.0-2.5","2","0","crt4qpezpdve32k","","539.5","","<p>How familiar did this sound to you?</p><p>1&nbsp;&nbsp;&nbsp;&nbsp;&nbsp;&nbsp;&nbsp;&nbsp;&nbsp;&nbsp;&nbsp;&nbsp;&nbsp;&nbsp;&nbsp;&nbsp;&nbsp;&nbsp;&nbsp;2&nbsp;&nbsp;&nbsp;&nbsp;&nbsp;&nbsp;&nbsp;&nbsp;&nbsp;&nbsp;&nbsp;&nbsp;&nbsp;&nbsp;&nbsp;&nbsp;&nbsp;&nbsp;&nbsp;3&nbsp;&nbsp;&nbsp;&nbsp;&nbsp;&nbsp;&nbsp;&nbsp;&nbsp;&nbsp;&nbsp;&nbsp;&nbsp;&nbsp;&nbsp;&nbsp;&nbsp;&nbsp;&nbsp;4</p><p style=""font-size:14px"">Not at all familiar&nbsp;&nbsp;&nbsp;&nbsp;A little familiar&nbsp;&nbsp;&nbsp;Moderately familiar&nbsp;&nbsp;&nbsp;Extremely familiar</p><p>(press the corresponding number on your keyboard)</p>","","52","","","FAM-RESPONSE","","","","","","","","sounds/B/FAM/P004.mp3","partword","","","","","","","","","","","","","","","","","","","",""
"html-keyboard-response","238","1238767","0.0-7.0-1.0-0.6","2","0","crt4qpezpdve32k","","null","","","","null","","","","","","","","","","","","","","","","","","","","","","","","","","","","","","","",""
"audio-keyboard-response","239","1239705","0.0-7.0-1.0-1.6","2","0","crt4qpezpdve32k","","null","","sounds/B/FAM/W001.mp3","","null","","","","","","","","","","","","","","","","","","","","","","","","","","","","","","","",""
"html-keyboard-response","240","1241033","0.0-7.0-1.0-2.6","2","0","crt4qpezpdve32k","","825.0999999642372","","<p>How familiar did this sound to you?</p><p>1&nbsp;&nbsp;&nbsp;&nbsp;&nbsp;&nbsp;&nbsp;&nbsp;&nbsp;&nbsp;&nbsp;&nbsp;&nbsp;&nbsp;&nbsp;&nbsp;&nbsp;&nbsp;&nbsp;2&nbsp;&nbsp;&nbsp;&nbsp;&nbsp;&nbsp;&nbsp;&nbsp;&nbsp;&nbsp;&nbsp;&nbsp;&nbsp;&nbsp;&nbsp;&nbsp;&nbsp;&nbsp;&nbsp;3&nbsp;&nbsp;&nbsp;&nbsp;&nbsp;&nbsp;&nbsp;&nbsp;&nbsp;&nbsp;&nbsp;&nbsp;&nbsp;&nbsp;&nbsp;&nbsp;&nbsp;&nbsp;&nbsp;4</p><p style=""font-size:14px"">Not at all familiar&nbsp;&nbsp;&nbsp;&nbsp;A little familiar&nbsp;&nbsp;&nbsp;Moderately familiar&nbsp;&nbsp;&nbsp;Extremely familiar</p><p>(press the corresponding number on your keyboard)</p>","","52","","","FAM-RESPONSE","","","","","","","","sounds/B/FAM/W001.mp3","word","","","","","","","","","","","","","","","","","","","",""
"html-keyboard-response","241","1243041","0.0-7.0-1.0-0.7","2","0","crt4qpezpdve32k","","null","","","","null","","","","","","","","","","","","","","","","","","","","","","","","","","","","","","","",""
"audio-keyboard-response","242","1243986","0.0-7.0-1.0-1.7","2","0","crt4qpezpdve32k","","null","","sounds/B/FAM/P001.mp3","","null","","","","","","","","","","","","","","","","","","","","","","","","","","","","","","","",""
"html-keyboard-response","243","1246253","0.0-7.0-1.0-2.7","2","0","crt4qpezpdve32k","","1762.6000000238419","","<p>How familiar did this sound to you?</p><p>1&nbsp;&nbsp;&nbsp;&nbsp;&nbsp;&nbsp;&nbsp;&nbsp;&nbsp;&nbsp;&nbsp;&nbsp;&nbsp;&nbsp;&nbsp;&nbsp;&nbsp;&nbsp;&nbsp;2&nbsp;&nbsp;&nbsp;&nbsp;&nbsp;&nbsp;&nbsp;&nbsp;&nbsp;&nbsp;&nbsp;&nbsp;&nbsp;&nbsp;&nbsp;&nbsp;&nbsp;&nbsp;&nbsp;3&nbsp;&nbsp;&nbsp;&nbsp;&nbsp;&nbsp;&nbsp;&nbsp;&nbsp;&nbsp;&nbsp;&nbsp;&nbsp;&nbsp;&nbsp;&nbsp;&nbsp;&nbsp;&nbsp;4</p><p style=""font-size:14px"">Not at all familiar&nbsp;&nbsp;&nbsp;&nbsp;A little familiar&nbsp;&nbsp;&nbsp;Moderately familiar&nbsp;&nbsp;&nbsp;Extremely familiar</p><p>(press the corresponding number on your keyboard)</p>","","50","","","FAM-RESPONSE","","","","","","","","sounds/B/FAM/P001.mp3","partword","","","","","","","","","","","","","","","","","","","",""
"html-keyboard-response","244","1248260","0.0-7.0-1.0-0.8","2","0","crt4qpezpdve32k","","null","","","","null","","","","","","","","","","","","","","","","","","","","","","","","","","","","","","","",""
"audio-keyboard-response","245","1249204","0.0-7.0-1.0-1.8","2","0","crt4qpezpdve32k","","null","","sounds/B/FAM/P002.mp3","","null","","","","","","","","","","","","","","","","","","","","","","","","","","","","","","","",""
"html-keyboard-response","246","1250507","0.0-7.0-1.0-2.8","2","0","crt4qpezpdve32k","","799.9000000357628","","<p>How familiar did this sound to you?</p><p>1&nbsp;&nbsp;&nbsp;&nbsp;&nbsp;&nbsp;&nbsp;&nbsp;&nbsp;&nbsp;&nbsp;&nbsp;&nbsp;&nbsp;&nbsp;&nbsp;&nbsp;&nbsp;&nbsp;2&nbsp;&nbsp;&nbsp;&nbsp;&nbsp;&nbsp;&nbsp;&nbsp;&nbsp;&nbsp;&nbsp;&nbsp;&nbsp;&nbsp;&nbsp;&nbsp;&nbsp;&nbsp;&nbsp;3&nbsp;&nbsp;&nbsp;&nbsp;&nbsp;&nbsp;&nbsp;&nbsp;&nbsp;&nbsp;&nbsp;&nbsp;&nbsp;&nbsp;&nbsp;&nbsp;&nbsp;&nbsp;&nbsp;4</p><p style=""font-size:14px"">Not at all familiar&nbsp;&nbsp;&nbsp;&nbsp;A little familiar&nbsp;&nbsp;&nbsp;Moderately familiar&nbsp;&nbsp;&nbsp;Extremely familiar</p><p>(press the corresponding number on your keyboard)</p>","","50","","","FAM-RESPONSE","","","","","","","","sounds/B/FAM/P002.mp3","partword","","","","","","","","","","","","","","","","","","","",""
"html-keyboard-response","247","1252516","0.0-7.0-1.0-0.9","2","0","crt4qpezpdve32k","","null","","","","null","","","","","","","","","","","","","","","","","","","","","","","","","","","","","","","",""
"audio-keyboard-response","248","1253455","0.0-7.0-1.0-1.9","2","0","crt4qpezpdve32k","","null","","sounds/B/FAM/N003.mp3","","null","","","","","","","","","","","","","","","","","","","","","","","","","","","","","","","",""
"html-keyboard-response","249","1254273","0.0-7.0-1.0-2.9","2","0","crt4qpezpdve32k","","314.0999999642372","","<p>How familiar did this sound to you?</p><p>1&nbsp;&nbsp;&nbsp;&nbsp;&nbsp;&nbsp;&nbsp;&nbsp;&nbsp;&nbsp;&nbsp;&nbsp;&nbsp;&nbsp;&nbsp;&nbsp;&nbsp;&nbsp;&nbsp;2&nbsp;&nbsp;&nbsp;&nbsp;&nbsp;&nbsp;&nbsp;&nbsp;&nbsp;&nbsp;&nbsp;&nbsp;&nbsp;&nbsp;&nbsp;&nbsp;&nbsp;&nbsp;&nbsp;3&nbsp;&nbsp;&nbsp;&nbsp;&nbsp;&nbsp;&nbsp;&nbsp;&nbsp;&nbsp;&nbsp;&nbsp;&nbsp;&nbsp;&nbsp;&nbsp;&nbsp;&nbsp;&nbsp;4</p><p style=""font-size:14px"">Not at all familiar&nbsp;&nbsp;&nbsp;&nbsp;A little familiar&nbsp;&nbsp;&nbsp;Moderately familiar&nbsp;&nbsp;&nbsp;Extremely familiar</p><p>(press the corresponding number on your keyboard)</p>","","52","","","FAM-RESPONSE","","","","","","","","sounds/B/FAM/N003.mp3","nonword","","","","","","","","","","","","","","","","","","","",""
"html-keyboard-response","250","1256280","0.0-7.0-1.0-0.10","2","0","crt4qpezpdve32k","","null","","","","null","","","","","","","","","","","","","","","","","","","","","","","","","","","","","","","",""
"audio-keyboard-response","251","1257219","0.0-7.0-1.0-1.10","2","0","crt4qpezpdve32k","","null","","sounds/B/FAM/N002.mp3","","null","","","","","","","","","","","","","","","","","","","","","","","","","","","","","","","",""
"html-keyboard-response","252","1260115","0.0-7.0-1.0-2.10","2","0","crt4qpezpdve32k","","2395","","<p>How familiar did this sound to you?</p><p>1&nbsp;&nbsp;&nbsp;&nbsp;&nbsp;&nbsp;&nbsp;&nbsp;&nbsp;&nbsp;&nbsp;&nbsp;&nbsp;&nbsp;&nbsp;&nbsp;&nbsp;&nbsp;&nbsp;2&nbsp;&nbsp;&nbsp;&nbsp;&nbsp;&nbsp;&nbsp;&nbsp;&nbsp;&nbsp;&nbsp;&nbsp;&nbsp;&nbsp;&nbsp;&nbsp;&nbsp;&nbsp;&nbsp;3&nbsp;&nbsp;&nbsp;&nbsp;&nbsp;&nbsp;&nbsp;&nbsp;&nbsp;&nbsp;&nbsp;&nbsp;&nbsp;&nbsp;&nbsp;&nbsp;&nbsp;&nbsp;&nbsp;4</p><p style=""font-size:14px"">Not at all familiar&nbsp;&nbsp;&nbsp;&nbsp;A little familiar&nbsp;&nbsp;&nbsp;Moderately familiar&nbsp;&nbsp;&nbsp;Extremely familiar</p><p>(press the corresponding number on your keyboard)</p>","","51","","","FAM-RESPONSE","","","","","","","","sounds/B/FAM/N002.mp3","nonword","","","","","","","","","","","","","","","","","","","",""
"html-keyboard-response","253","1262120","0.0-7.0-1.0-0.11","2","0","crt4qpezpdve32k","","null","","","","null","","","","","","","","","","","","","","","","","","","","","","","","","","","","","","","",""
"audio-keyboard-response","254","1263058","0.0-7.0-1.0-1.11","2","0","crt4qpezpdve32k","","null","","sounds/B/FAM/W004.mp3","","null","","","","","","","","","","","","","","","","","","","","","","","","","","","","","","","",""
"html-keyboard-response","255","1264817","0.0-7.0-1.0-2.11","2","0","crt4qpezpdve32k","","1252.7999999523163","","<p>How familiar did this sound to you?</p><p>1&nbsp;&nbsp;&nbsp;&nbsp;&nbsp;&nbsp;&nbsp;&nbsp;&nbsp;&nbsp;&nbsp;&nbsp;&nbsp;&nbsp;&nbsp;&nbsp;&nbsp;&nbsp;&nbsp;2&nbsp;&nbsp;&nbsp;&nbsp;&nbsp;&nbsp;&nbsp;&nbsp;&nbsp;&nbsp;&nbsp;&nbsp;&nbsp;&nbsp;&nbsp;&nbsp;&nbsp;&nbsp;&nbsp;3&nbsp;&nbsp;&nbsp;&nbsp;&nbsp;&nbsp;&nbsp;&nbsp;&nbsp;&nbsp;&nbsp;&nbsp;&nbsp;&nbsp;&nbsp;&nbsp;&nbsp;&nbsp;&nbsp;4</p><p style=""font-size:14px"">Not at all familiar&nbsp;&nbsp;&nbsp;&nbsp;A little familiar&nbsp;&nbsp;&nbsp;Moderately familiar&nbsp;&nbsp;&nbsp;Extremely familiar</p><p>(press the corresponding number on your keyboard)</p>","","51","","","FAM-RESPONSE","","","","","","","","sounds/B/FAM/W004.mp3","word","","","","","","","","","","","","","","","","","","","",""
"html-button-response","256","1273952","0.0-8.0-0.0","2","0","crt4qpezpdve32k","","8130.100000023842","","<p>You will now listen to longer sound sequences.</p><p>Each sound sequence will last about 16 seconds.</p><p>On each trial, you will be given a <u>TARGET SOUND</u>. Your task is to listen very carefully for this sound.</p><p>Every time you hear the <u>TARGET SOUND</u>, you will press the <b>SPACEBAR</b> as quickly and accurately as you can.</p>","0","","","","","","","","","","","","","","","","","","","","","","","","","","","","","","","","",""
"html-button-response","257","1285740","0.0-8.0-1.0","2","0","crt4qpezpdve32k","","11529.399999976158","","<p>It is very important that you make your responses as quickly and accurately as possible.</p><p>To help you make your responses, you will be able to listen to the <u>TARGET SOUND</u> at the beginning of each trial.</p><p>There will be 36 total trials.</p><p><b>Note: This is meant to be a difficult task. We simply want you to try your best.</p>","0","","","","","","","","","","","","","","","","","","","","","","","","","","","","","","","","",""
"html-button-response","258","1287176","0.0-8.0-2.0-0.0","2","0","crt4qpezpdve32k","","1180.4000000357628","","<p>Trial 1 of 36</p>","0","","","","","","","","","","","","","","FE","sounds/syllables/fe_SWS.wav","1500,4200,7800,12300","3","","","","","","","","","","","","","","","",""
"html-keyboard-response","259","1289368","0.0-8.0-2.0-1.0","2","0","crt4qpezpdve32k","","2190.7999999523163","","","","80","","","","","","","","","","","","","FE","","1500,4200,7800,12300","3","","","","","","","","","","","","","","","",""
"audio-keyboard-response","260","1289664","0.0-8.0-2.0-2.0-0.0","2","0","crt4qpezpdve32k","","null","","sounds/syllables/fe_SWS.wav","","null","","","","","","","","","","","","","","","","","","","","","","","","","","","","","","","",""
"html-keyboard-response","261","1291924","0.0-8.0-2.0-2.0-1.0","2","0","crt4qpezpdve32k","","2259","","<p>To replay the <u>TARGET SOUND</u>, press P.</p> When you are ready to begin, press SPACEBAR.","","80","","","","","","","","","","","","","","","","","","","","","","","","","","","","","","","",""
"audio-keyboard-response","262","1292728","0.0-8.0-2.0-2.1-0.1","2","0","crt4qpezpdve32k","","null","","sounds/syllables/fe_SWS.wav","","null","","","","","","","","","","","","","","","","","","","","","","","","","","","","","","","",""
"html-keyboard-response","263","1293512","0.0-8.0-2.0-2.1-1.1","2","0","crt4qpezpdve32k","","781.8999999761581","","<p>To replay the <u>TARGET SOUND</u>, press P.</p> When you are ready to begin, press SPACEBAR.","","32","","","","","","","","","","","","","","","","","","","","","","","","","","","","","","","",""
"audio-keyboard-response","264","1308464","0.0-8.0-2.0-3.0","2","0","crt4qpezpdve32k","","981","","sounds/B/TD/FE_08_TD.mp3","","32","","","TD_SUMMARY","","","","","","","","","","FE","","1500,4200,7800,12300","3","1500","4200","7800","12300","null","1024.2000000476837","877.6000000238419","null","985.9000000357628_4151.200000047684_5224.200000047684_6765.600000023842_8677.600000023842_9700.100000023842_11732.400000035763","2","","","","","",""
"html-button-response","265","1309556","0.0-8.0-2.0-0.1","2","0","crt4qpezpdve32k","","1090","","<p>Trial 2 of 36</p>","0","","","","","","","","","","","","","","GE","sounds/syllables/ge_SWS.wav","5400,7200,10800,12600","1","","","","","","","","","","","","","","","",""
"html-keyboard-response","266","1310738","0.0-8.0-2.0-1.1","2","0","crt4qpezpdve32k","","1181.0999999642372","","","","80","","","","","","","","","","","","","GE","","5400,7200,10800,12600","1","","","","","","","","","","","","","","","",""
"audio-keyboard-response","267","1311036","0.0-8.0-2.0-2.2-0.2","2","0","crt4qpezpdve32k","","null","","sounds/syllables/ge_SWS.wav","","null","","","","","","","","","","","","","","","","","","","","","","","","","","","","","","","",""
"html-keyboard-response","268","1312317","0.0-8.0-2.0-2.2-1.2","2","0","crt4qpezpdve32k","","1280.699999988079","","<p>To replay the <u>TARGET SOUND</u>, press P.</p> When you are ready to begin, press SPACEBAR.","","32","","","","","","","","","","","","","","","","","","","","","","","","","","","","","","","",""
"audio-keyboard-response","269","1327270","0.0-8.0-2.0-3.1","2","0","crt4qpezpdve32k","","5869","","sounds/B/TD/GE_05_TD.mp3","","32","","","TD_SUMMARY","","","","","","","","","","GE","","5400,7200,10800,12600","1","5400","7200","10800","12600","467.5","577","null","956.8000000119209","_______5867.5_7777_10970_13556.800000011921","1","","","","","",""
"html-button-response","270","1328642","0.0-8.0-2.0-0.2","2","0","crt4qpezpdve32k","","1370.1000000238419","","<p>Trial 3 of 36</p>","0","","","","","","","","","","","","","","RU","sounds/syllables/ru_SWS.wav","2400,5100,11400,13200","3","","","","","","","","","","","","","","","",""
"html-keyboard-response","271","1330007","0.0-8.0-2.0-1.2","2","0","crt4qpezpdve32k","","1364.7000000476837","","","","80","","","","","","","","","","","","","RU","","2400,5100,11400,13200","3","","","","","","","","","","","","","","","",""
"audio-keyboard-response","272","1330304","0.0-8.0-2.0-2.3-0.3","2","0","crt4qpezpdve32k","","null","","sounds/syllables/ru_SWS.wav","","null","","","","","","","","","","","","","","","","","","","","","","","","","","","","","","","",""
"html-keyboard-response","273","1331180","0.0-8.0-2.0-2.3-1.3","2","0","crt4qpezpdve32k","","874.8999999761581","","<p>To replay the <u>TARGET SOUND</u>, press P.</p> When you are ready to begin, press SPACEBAR.","","32","","","","","","","","","","","","","","","","","","","","","","","","","","","","","","","",""
"audio-keyboard-response","274","1346133","0.0-8.0-2.0-3.2","2","0","crt4qpezpdve32k","","598","","sounds/B/TD/RU_05_TD.mp3","","32","","","TD_SUMMARY","","","","","","","","","","RU","","2400,5100,11400,13200","3","2400","5100","11400","13200","null","null","null","null","___________602.8999999761581_1668.3999999761581_4539.600000023842_7790.399999976158_10026.100000023842_11433.399999976158_12969.600000023842","1","","","","","",""
"html-button-response","275","1347421","0.0-8.0-2.0-0.3","2","0","crt4qpezpdve32k","","1286.1000000238419","","<p>Trial 4 of 36</p>","0","","","","","","","","","","","","","","RE","sounds/syllables/re_SWS.wav","1500,3300,6000,13200","3","","","","","","","","","","","","","","","",""
"html-keyboard-response","276","1353595","0.0-8.0-2.0-1.3","2","0","crt4qpezpdve32k","","6173.600000023842","","","","80","","","","","","","","","","","","","RE","","1500,3300,6000,13200","3","","","","","","","","","","","","","","","",""
"audio-keyboard-response","277","1353894","0.0-8.0-2.0-2.4-0.4","2","0","crt4qpezpdve32k","","null","","sounds/syllables/re_SWS.wav","","null","","","","","","","","","","","","","","","","","","","","","","","","","","","","","","","",""
"html-keyboard-response","278","1355541","0.0-8.0-2.0-2.4-1.4","2","0","crt4qpezpdve32k","","1646","","<p>To replay the <u>TARGET SOUND</u>, press P.</p> When you are ready to begin, press SPACEBAR.","","32","","","","","","","","","","","","","","","","","","","","","","","","","","","","","","","",""
"audio-keyboard-response","279","1370493","0.0-8.0-2.0-3.3","2","0","crt4qpezpdve32k","","2148","","sounds/B/TD/RE_01_TD.mp3","","32","","","TD_SUMMARY","","","","","","","","","","RE","","1500,3300,6000,13200","3","1500","3300","6000","13200","646.7999999523163","null","null","774.0999999642372","__________________2146.7999999523163_4528.5_7205.099999964237_10073.899999976158_13974.099999964237","1","","","","","",""
"html-button-response","280","1371742","0.0-8.0-2.0-0.4","2","0","crt4qpezpdve32k","","1247.5","","<p>Trial 5 of 36</p>","0","","","","","","","","","","","","","","FE","sounds/syllables/fe_SWS.wav","3300,6900,9600,12300","3","","","","","","","","","","","","","","","",""
"html-keyboard-response","281","1372754","0.0-8.0-2.0-1.4","2","0","crt4qpezpdve32k","","1011.4000000357628","","","","80","","","","","","","","","","","","","FE","","3300,6900,9600,12300","3","","","","","","","","","","","","","","","",""
"audio-keyboard-response","282","1373053","0.0-8.0-2.0-2.5-0.5","2","0","crt4qpezpdve32k","","null","","sounds/syllables/fe_SWS.wav","","null","","","","","","","","","","","","","","","","","","","","","","","","","","","","","","","",""
"html-keyboard-response","283","1373666","0.0-8.0-2.0-2.5-1.5","2","0","crt4qpezpdve32k","","613.1000000238419","","<p>To replay the <u>TARGET SOUND</u>, press P.</p> When you are ready to begin, press SPACEBAR.","","32","","","","","","","","","","","","","","","","","","","","","","","","","","","","","","","",""
"audio-keyboard-response","284","1388615","0.0-8.0-2.0-3.4","2","0","crt4qpezpdve32k","","679","","sounds/B/TD/FE_07_TD.mp3","","32","","","TD_SUMMARY","","","","","","","","","","FE","","3300,6900,9600,12300","3","3300","6900","9600","12300","748.8999999761581","769.0999999642372","null","null","_______________________679.3999999761581_2494.899999976158_4048.899999976158_7669.099999964237_11599.099999964237_12311.099999964237_14238.699999988079","1","","","","","",""
"html-button-response","285","1389744","0.0-8.0-2.0-0.5","2","0","crt4qpezpdve32k","","1127.5999999642372","","<p>Trial 6 of 36</p>","0","","","","","","","","","","","","","","TI","sounds/syllables/ti_SWS.wav","1800,6300,10800,12600","1","","","","","","","","","","","","","","","",""
"html-keyboard-response","286","1390831","0.0-8.0-2.0-1.5","2","0","crt4qpezpdve32k","","1085.8999999761581","","","","80","","","","","","","","","","","","","TI","","1800,6300,10800,12600","1","","","","","","","","","","","","","","","",""
"audio-keyboard-response","287","1391128","0.0-8.0-2.0-2.6-0.6","2","0","crt4qpezpdve32k","","null","","sounds/syllables/ti_SWS.wav","","null","","","","","","","","","","","","","","","","","","","","","","","","","","","","","","","",""
"html-keyboard-response","288","1392474","0.0-8.0-2.0-2.6-1.6","2","0","crt4qpezpdve32k","","1345.300000011921","","<p>To replay the <u>TARGET SOUND</u>, press P.</p> When you are ready to begin, press SPACEBAR.","","32","","","","","","","","","","","","","","","","","","","","","","","","","","","","","","","",""
"audio-keyboard-response","289","1407421","0.0-8.0-2.0-3.5","2","0","crt4qpezpdve32k","","1289","","sounds/B/TD/TI_01_TD.mp3","","32","","","TD_SUMMARY","","","","","","","","","","TI","","1800,6300,10800,12600","1","1800","6300","10800","12600","635.1999999880791","997.6999999880791","859.5","null","______________________________1285.1000000238419_2435.199999988079_3557.800000011921_4908_6208.899999976158_7014.300000011921_7297.699999988079_8365.100000023842_10614.600000023842_11659.5","1","","","","","",""
"html-button-response","290","1408310","0.0-8.0-2.0-0.6","2","0","crt4qpezpdve32k","","887.7000000476837","","<p>Trial 7 of 36</p>","0","","","","","","","","","","","","","","GE","sounds/syllables/ge_SWS.wav","3600,6300,9000,11700","1","","","","","","","","","","","","","","","",""
"html-keyboard-response","291","1409293","0.0-8.0-2.0-1.6","2","0","crt4qpezpdve32k","","982.6999999880791","","","","80","","","","","","","","","","","","","GE","","3600,6300,9000,11700","1","","","","","","","","","","","","","","","",""
"audio-keyboard-response","292","1409592","0.0-8.0-2.0-2.7-0.7","2","0","crt4qpezpdve32k","","null","","sounds/syllables/ge_SWS.wav","","null","","","","","","","","","","","","","","","","","","","","","","","","","","","","","","","",""
"html-keyboard-response","293","1410028","0.0-8.0-2.0-2.7-1.7","2","0","crt4qpezpdve32k","","434.80000001192093","","<p>To replay the <u>TARGET SOUND</u>, press P.</p> When you are ready to begin, press SPACEBAR.","","32","","","","","","","","","","","","","","","","","","","","","","","","","","","","","","","",""
"audio-keyboard-response","294","1424975","0.0-8.0-2.0-3.6","2","0","crt4qpezpdve32k","","4510","","sounds/B/TD/GE_08_TD.mp3","","32","","","TD_SUMMARY","","","","","","","","","","GE","","3600,6300,9000,11700","1","3600","6300","9000","11700","905.6000000238419","539.6999999880791","1086.5","651","________________________________________4505.600000023842_5036.300000011921_6839.699999988079_7970.600000023842_9746.100000023842_10086.5_12165.5_12351_12987.900000035763","1","","","","","",""
"html-button-response","295","1426043","0.0-8.0-2.0-0.7","2","0","crt4qpezpdve32k","","1066.300000011921","","<p>Trial 8 of 36</p>","0","","","","","","","","","","","","","","FE","sounds/syllables/fe_SWS.wav","1500,3300,6000,8700","3","","","","","","","","","","","","","","","",""
"html-keyboard-response","296","1427255","0.0-8.0-2.0-1.7","2","0","crt4qpezpdve32k","","1209.7999999523163","","","","80","","","","","","","","","","","","","FE","","1500,3300,6000,8700","3","","","","","","","","","","","","","","","",""
"audio-keyboard-response","297","1427552","0.0-8.0-2.0-2.8-0.8","2","0","crt4qpezpdve32k","","null","","sounds/syllables/fe_SWS.wav","","null","","","","","","","","","","","","","","","","","","","","","","","","","","","","","","","",""
"html-keyboard-response","298","1428037","0.0-8.0-2.0-2.8-1.8","2","0","crt4qpezpdve32k","","483.89999997615814","","<p>To replay the <u>TARGET SOUND</u>, press P.</p> When you are ready to begin, press SPACEBAR.","","32","","","","","","","","","","","","","","","","","","","","","","","","","","","","","","","",""
"audio-keyboard-response","299","1442987","0.0-8.0-2.0-3.7","2","0","crt4qpezpdve32k","","766","","sounds/B/TD/FE_02_TD.mp3","","32","","","TD_SUMMARY","","","","","","","","","","FE","","1500,3300,6000,8700","3","1500","3300","6000","8700","616.9000000357628","754.7000000476837","608.2000000476837","683","_________________________________________________764.4000000357628_2116.900000035763_4054.7000000476837_6608.200000047684_9383_13582.800000011921","1","","","","","",""
"html-button-response","300","1446091","0.0-8.0-2.0-0.8","2","0","crt4qpezpdve32k","","3102.5","","<p>Trial 9 of 36</p>","0","","","","","","","","","","","","","","RE","sounds/syllables/re_SWS.wav","1500,5100,7800,11400","3","","","","","","","","","","","","","","","",""
"html-keyboard-response","301","1448459","0.0-8.0-2.0-1.8","2","0","crt4qpezpdve32k","","2367.400000035763","","","","80","","","","","","","","","","","","","RE","","1500,5100,7800,11400","3","","","","","","","","","","","","","","","",""
"audio-keyboard-response","302","1448761","0.0-8.0-2.0-2.9-0.9","2","0","crt4qpezpdve32k","","null","","sounds/syllables/re_SWS.wav","","null","","","","","","","","","","","","","","","","","","","","","","","","","","","","","","","",""
"html-keyboard-response","303","1449796","0.0-8.0-2.0-2.9-1.9","2","0","crt4qpezpdve32k","","1034.199999988079","","<p>To replay the <u>TARGET SOUND</u>, press P.</p> When you are ready to begin, press SPACEBAR.","","32","","","","","","","","","","","","","","","","","","","","","","","","","","","","","","","",""
"audio-keyboard-response","304","1464752","0.0-8.0-2.0-3.8","2","0","crt4qpezpdve32k","","9660","","sounds/B/TD/RE_06_TD.mp3","","80","","","TD_SUMMARY","","","","","","","","","","RE","","1500,5100,7800,11400","3","1500","5100","7800","11400","null","null","null","null","_______________________________________________________10016.199999988079_11544.800000011921_13936.199999988079_14063.300000011921","1","","","","","",""
"html-button-response","305","1465704","0.0-8.0-2.0-0.9","2","0","crt4qpezpdve32k","","950.1999999880791","","<p>Trial 10 of 36</p>","0","","","","","","","","","","","","","","RU","sounds/syllables/ru_SWS.wav","3300,5100,10500,12300","3","","","","","","","","","","","","","","","",""
"html-keyboard-response","306","1467236","0.0-8.0-2.0-1.9","2","0","crt4qpezpdve32k","","1531.199999988079","","","","80","","","","","","","","","","","","","RU","","3300,5100,10500,12300","3","","","","","","","","","","","","","","","",""
"audio-keyboard-response","307","1467538","0.0-8.0-2.0-2.10-0.10","2","0","crt4qpezpdve32k","","null","","sounds/syllables/ru_SWS.wav","","null","","","","","","","","","","","","","","","","","","","","","","","","","","","","","","","",""
"html-keyboard-response","308","1468438","0.0-8.0-2.0-2.10-1.10","2","0","crt4qpezpdve32k","","899.2999999523163","","<p>To replay the <u>TARGET SOUND</u>, press P.</p> When you are ready to begin, press SPACEBAR.","","32","","","","","","","","","","","","","","","","","","","","","","","","","","","","","","","",""
"audio-keyboard-response","309","1483390","0.0-8.0-2.0-3.9","2","0","crt4qpezpdve32k","","766","","sounds/B/TD/RU_07_TD.mp3","","32","","","TD_SUMMARY","","","","","","","","","","RU","","3300,5100,10500,12300","3","3300","5100","10500","12300","750","522.5","1134.8999999761581","528","___________________________________________________________765.5999999642372_1999.5_4050_4759.300000011921_5622.5_6400.899999976158_8119.300000011921_9329.300000011921_10910.300000011921_11634.899999976158_12828","1","","","","","",""
"html-button-response","310","1485376","0.0-8.0-2.0-0.10","2","0","crt4qpezpdve32k","","1984.8999999761581","","<p>Trial 11 of 36</p>","0","","","","","","","","","","","","","","PU","sounds/syllables/pu_SWS.wav","2700,5400,9000,11700","1","","","","","","","","","","","","","","","",""
"html-keyboard-response","311","1486228","0.0-8.0-2.0-1.10","2","0","crt4qpezpdve32k","","851.1000000238419","","","","80","","","","","","","","","","","","","PU","","2700,5400,9000,11700","1","","","","","","","","","","","","","","","",""
"audio-keyboard-response","312","1486529","0.0-8.0-2.0-2.11-0.11","2","0","crt4qpezpdve32k","","null","","sounds/syllables/pu_SWS.wav","","null","","","","","","","","","","","","","","","","","","","","","","","","","","","","","","","",""
"html-keyboard-response","313","1487503","0.0-8.0-2.0-2.11-1.11","2","0","crt4qpezpdve32k","","974.1999999880791","","<p>To replay the <u>TARGET SOUND</u>, press P.</p> When you are ready to begin, press SPACEBAR.","","32","","","","","","","","","","","","","","","","","","","","","","","","","","","","","","","",""
"audio-keyboard-response","314","1502456","0.0-8.0-2.0-3.10","2","0","crt4qpezpdve32k","","1672","","sounds/B/TD/PU_10_TD.mp3","","32","","","TD_SUMMARY","","","","","","","","","","PU","","2700,5400,9000,11700","1","2700","5400","9000","11700","650.6000000238419","null","null","null","______________________________________________________________________1675.5_3350.600000023842_4802.5_6673.800000011921_8606.400000035763_11236.400000035763_13614.100000023842","1","","","","","",""
"html-button-response","315","1503426","0.0-8.0-2.0-0.11","2","0","crt4qpezpdve32k","","968.5999999642372","","<p>Trial 12 of 36</p>","0","","","","","","","","","","","","","","FU","sounds/syllables/fu_SWS.wav","4500,7200,9900,12600","1","","","","","","","","","","","","","","","",""
"html-keyboard-response","316","1504818","0.0-8.0-2.0-1.11","2","0","crt4qpezpdve32k","","1391.4000000357628","","","","80","","","","","","","","","","","","","FU","","4500,7200,9900,12600","1","","","","","","","","","","","","","","","",""
"audio-keyboard-response","317","1505120","0.0-8.0-2.0-2.12-0.12","2","0","crt4qpezpdve32k","","null","","sounds/syllables/fu_SWS.wav","","null","","","","","","","","","","","","","","","","","","","","","","","","","","","","","","","",""
"html-keyboard-response","318","1506187","0.0-8.0-2.0-2.12-1.12","2","0","crt4qpezpdve32k","","1066.5999999642372","","<p>To replay the <u>TARGET SOUND</u>, press P.</p> When you are ready to begin, press SPACEBAR.","","32","","","","","","","","","","","","","","","","","","","","","","","","","","","","","","","",""
"audio-keyboard-response","319","1521134","0.0-8.0-2.0-3.11","2","0","crt4qpezpdve32k","","2107","","sounds/B/TD/FU_05_TD.mp3","","32","","","TD_SUMMARY","","","","","","","","","","FU","","4500,7200,9900,12600","1","4500","7200","9900","12600","824","null","null","636.8000000119209","_____________________________________________________________________________2109_3343.199999988079_3868_5324_6359.099999964237_11790.399999976158_13236.800000011921","1","","","","","",""
"html-button-response","320","1523029","0.0-8.0-2.0-0.12","2","0","crt4qpezpdve32k","","1893.5","","<p>Trial 13 of 36</p>","0","","","","","","","","","","","","","","SU","sounds/syllables/su_SWS.wav","1200,5700,8400,12000","2","","","","","","","","","","","","","","","",""
"html-keyboard-response","321","1523580","0.0-8.0-2.0-1.12","2","0","crt4qpezpdve32k","","550.1000000238419","","","","80","","","","","","","","","","","","","SU","","1200,5700,8400,12000","2","","","","","","","","","","","","","","","",""
"audio-keyboard-response","322","1523885","0.0-8.0-2.0-2.13-0.13","2","0","crt4qpezpdve32k","","null","","sounds/syllables/su_SWS.wav","","null","","","","","","","","","","","","","","","","","","","","","","","","","","","","","","","",""
"html-keyboard-response","323","1525319","0.0-8.0-2.0-2.13-1.13","2","0","crt4qpezpdve32k","","1433.300000011921","","<p>To replay the <u>TARGET SOUND</u>, press P.</p> When you are ready to begin, press SPACEBAR.","","32","","","","","","","","","","","","","","","","","","","","","","","","","","","","","","","",""
"audio-keyboard-response","324","1540270","0.0-8.0-2.0-3.12","2","0","crt4qpezpdve32k","","6589","","sounds/B/TD/SU_01_TD.mp3","","32","","","TD_SUMMARY","","","","","","","","","","SU","","1200,5700,8400,12000","2","1200","5700","8400","12000","null","888.5","220.60000002384186","null","____________________________________________________________________________________6588.5_8620.600000023842_11218.899999976158_13436.800000011921","1","","","","","",""
"html-button-response","325","1542320","0.0-8.0-2.0-0.13","2","0","crt4qpezpdve32k","","2048","","<p>Trial 14 of 36</p>","0","","","","","","","","","","","","","","KO","sounds/syllables/ko_SWS.wav","2100,3900,7500,9300","2","","","","","","","","","","","","","","","",""
"html-keyboard-response","326","1542851","0.0-8.0-2.0-1.13","2","0","crt4qpezpdve32k","","530.3000000119209","","","","80","","","","","","","","","","","","","KO","","2100,3900,7500,9300","2","","","","","","","","","","","","","","","",""
"audio-keyboard-response","327","1543148","0.0-8.0-2.0-2.14-0.14","2","0","crt4qpezpdve32k","","null","","sounds/syllables/ko_SWS.wav","","null","","","","","","","","","","","","","","","","","","","","","","","","","","","","","","","",""
"html-keyboard-response","328","1544778","0.0-8.0-2.0-2.14-1.14","2","0","crt4qpezpdve32k","","1629.0999999642372","","<p>To replay the <u>TARGET SOUND</u>, press P.</p> When you are ready to begin, press SPACEBAR.","","80","","","","","","","","","","","","","","","","","","","","","","","","","","","","","","","",""
"audio-keyboard-response","329","1545581","0.0-8.0-2.0-2.15-0.15","2","0","crt4qpezpdve32k","","null","","sounds/syllables/ko_SWS.wav","","null","","","","","","","","","","","","","","","","","","","","","","","","","","","","","","","",""
"html-keyboard-response","330","1546959","0.0-8.0-2.0-2.15-1.15","2","0","crt4qpezpdve32k","","1376.699999988079","","<p>To replay the <u>TARGET SOUND</u>, press P.</p> When you are ready to begin, press SPACEBAR.","","32","","","","","","","","","","","","","","","","","","","","","","","","","","","","","","","",""
"audio-keyboard-response","331","1561913","0.0-8.0-2.0-3.13","2","0","crt4qpezpdve32k","","4458","","sounds/B/TD/KO_10_TD.mp3","","32","","","TD_SUMMARY","","","","","","","","","","KO","","2100,3900,7500,9300","2","2100","3900","7500","9300","null","561.6000000238419","297.4000000357628","null","________________________________________________________________________________________4461.600000023842_7797.400000035763_12282","2","","","","","",""
"html-button-response","332","1564150","0.0-8.0-2.0-0.14","2","0","crt4qpezpdve32k","","2235.199999988079","","<p>Trial 15 of 36</p>","0","","","","","","","","","","","","","","ME","sounds/syllables/me_SWS.wav","2100,3900,8400,12000","2","","","","","","","","","","","","","","","",""
"html-keyboard-response","333","1578285","0.0-8.0-2.0-1.14","2","0","crt4qpezpdve32k","","14134.099999964237","","","","80","","","","","","","","","","","","","ME","","2100,3900,8400,12000","2","","","","","","","","","","","","","","","",""
"audio-keyboard-response","334","1578587","0.0-8.0-2.0-2.16-0.16","2","0","crt4qpezpdve32k","","null","","sounds/syllables/me_SWS.wav","","null","","","","","","","","","","","","","","","","","","","","","","","","","","","","","","","",""
"html-keyboard-response","335","1579704","0.0-8.0-2.0-2.16-1.16","2","0","crt4qpezpdve32k","","1115.699999988079","","<p>To replay the <u>TARGET SOUND</u>, press P.</p> When you are ready to begin, press SPACEBAR.","","32","","","","","","","","","","","","","","","","","","","","","","","","","","","","","","","",""
