"trial_type","trial_index","time_elapsed","internal_node_id","counterbalance","lang_instruct","ParticipantID","view_history","rt","url","stimulus","button_pressed","key_press","correctRESP","correct","designation","location","correctanswer","timeouts","pause_rt01","pause_rt02","train_file","numKeyPress","sound","fam_type","SYLLABLE","EXEMPLAR","TD_LOCS","TD_TYPE","TDLOC_01","TDLOC_02","TDLOC_03","TDLOC_04","TD_RT_01","TD_RT_02","TD_RT_03","TD_RT_04","TD_SUBJ_RTs","number_of_plays","responses","slider_start","response","question_order","syllable","syllable_type"
"pavlovia","0","2","0.0-0.0","3","0","o9389320ygmk1j0","","","","","","","","","","","","","","","","","","","","","","","","","","","","","","","","","","","","","",""
"instructions","1","61392","0.0-1.0","3","0","o9389320ygmk1j0","[{""page_index"":0,""viewing_time"":3378.5},{""page_index"":1,""viewing_time"":58008}]","61391.5","","","","","","","","","","","","","","","","","","","","","","","","","","","","","","","","","","","",""
"external-html","2","67995","0.0-2.0","3","0","o9389320ygmk1j0","","6390.100000008941","consent/consent.html","","","","","","","","","","","","","","","","","","","","","","","","","","","","","","","","","","",""
"html-button-response","3","76741","0.0-3.0-0.0-0.0","3","0","o9389320ygmk1j0","","8743","","<p>Welcome to the study. You will first complete a short volume calibration and headphone check.</p><p>Please make sure you are in a quiet listening environment, that you are wearing headphones, and that your computer's volume is turned on.<p></p>","0","","","","","","","","","","","","","","","","","","","","","","","","","","","","","","","","",""
"html-button-response","4","86501","0.0-3.0-0.0-1.0","3","0","o9389320ygmk1j0","","9505.90000000596","","<p>The volume calibration will be first.</p><p>You will hear a thirty-second noise. Please adjust your computer's volume so that this noise is being presented at a comfortable level.<p></p>","0","","","","","","","","","","","","","","","","","","","","","","","","","","","","","","","","",""
"audio-button-response","5","93171","0.0-3.0-0.0-2.0","3","0","o9389320ygmk1j0","","6251","","audCalib/volumetest.mp3","0","","","","","","","","","","","","","","","","","","","","","","","","","","","","","","","","",""
"html-button-response","6","101901","0.0-3.0-1.0-0.0","3","0","o9389320ygmk1j0","","8727.5","","<p>You will now complete a short headphone check.</p><p>On each trial, you will hear three tones. One of these tones will be quieter than the others. Your task is to identify whether the quiet tone occured first, second, or third.</p><p>There are six trials in total.<p></p>","0","","","","","","","","","","","","","","","","","","","","","","","","","","","","","","","","",""
"html-keyboard-response","7","102660","0.0-3.0-1.0-1.0-0.0","3","0","o9389320ygmk1j0","","null","","<div style=""font-size:60px;"">+</div>","","null","","","","","","","","","","","","","","","","","","","","","","","","","","","","","","","",""
"audio-button-response","8","107387","0.0-3.0-1.0-1.0-1.0","3","0","o9389320ygmk1j0","","4725","","audCalib/t2_2.mp3","1","","1","1","headphone-test","","","","","","","","","","","","","","","","","","","","","","","","","","","","",""
"html-keyboard-response","9","108142","0.0-3.0-1.0-1.0-0.1","3","0","o9389320ygmk1j0","","null","","<div style=""font-size:60px;"">+</div>","","null","","","","","","","","","","","","","","","","","","","","","","","","","","","","","","","",""
"audio-button-response","10","112833","0.0-3.0-1.0-1.0-1.1","3","0","o9389320ygmk1j0","","4688","","audCalib/t1_2.mp3","0","","0","1","headphone-test","","","","","","","","","","","","","","","","","","","","","","","","","","","","",""
"html-keyboard-response","11","113587","0.0-3.0-1.0-1.0-0.2","3","0","o9389320ygmk1j0","","null","","<div style=""font-size:60px;"">+</div>","","null","","","","","","","","","","","","","","","","","","","","","","","","","","","","","","","",""
"audio-button-response","12","118091","0.0-3.0-1.0-1.0-1.2","3","0","o9389320ygmk1j0","","4501","","audCalib/t3_2.mp3","2","","2","1","headphone-test","","","","","","","","","","","","","","","","","","","","","","","","","","","","",""
"html-keyboard-response","13","118849","0.0-3.0-1.0-1.0-0.3","3","0","o9389320ygmk1j0","","null","","<div style=""font-size:60px;"">+</div>","","null","","","","","","","","","","","","","","","","","","","","","","","","","","","","","","","",""
"audio-button-response","14","123309","0.0-3.0-1.0-1.0-1.3","3","0","o9389320ygmk1j0","","4453","","audCalib/t3_1.mp3","2","","2","1","headphone-test","","","","","","","","","","","","","","","","","","","","","","","","","","","","",""
"html-keyboard-response","15","124067","0.0-3.0-1.0-1.0-0.4","3","0","o9389320ygmk1j0","","null","","<div style=""font-size:60px;"">+</div>","","null","","","","","","","","","","","","","","","","","","","","","","","","","","","","","","","",""
"audio-button-response","16","128504","0.0-3.0-1.0-1.0-1.4","3","0","o9389320ygmk1j0","","4432","","audCalib/t2_1.mp3","1","","1","1","headphone-test","","","","","","","","","","","","","","","","","","","","","","","","","","","","",""
"html-keyboard-response","17","129262","0.0-3.0-1.0-1.0-0.5","3","0","o9389320ygmk1j0","","null","","<div style=""font-size:60px;"">+</div>","","null","","","","","","","","","","","","","","","","","","","","","","","","","","","","","","","",""
"audio-button-response","18","133981","0.0-3.0-1.0-1.0-1.5","3","0","o9389320ygmk1j0","","4715","","audCalib/t1_1.mp3","0","","0","1","headphone-test","","","","","","","","","","","","","","","","","","","","","","","","","","","","",""
"html-button-response","19","137715","0.0-3.0-2.0","3","0","o9389320ygmk1j0","","3479.6000000089407","","<p>The volume calibration and headphone check are now complete.</p>","0","","","","","","","","","","","","","","","","","","","","","","","","","","","","","","","","",""
"instructions","20","152990","0.0-4.0-0.0","3","0","o9389320ygmk1j0","[{""page_index"":0,""viewing_time"":1970.800000011921},{""page_index"":1,""viewing_time"":11014.79999999702},{""page_index"":2,""viewing_time"":2287.7000000029802}]","15274.60000000894","","","","","","","","","","","","","","","","","","","","","","","","","","","","","","","","","","","",""
"audio-keyboard-response","21","153294","0.0-4.0-1.0-0.0","3","0","o9389320ygmk1j0","","null","","sounds/induction/left_rev/ko_SWS.wav","","null","","","","","","","","","","","","","","","","","","","","","","","","","","","","","","","",""
"html-button-response","22","154243","0.0-4.0-1.0-1.0","3","0","o9389320ygmk1j0","","946.4000000059605","","Was the sound coming from the left or the right?","0","","","1","INDUCTION-JUDGMENT","left","0","","","","","","","","","","","","","","","","","","","","","","","","","","",""
"html-keyboard-response","23","155249","0.0-4.0-1.0-2.0","3","0","o9389320ygmk1j0","","null","","<p style=""color:#054d00;""><b>Correct!</b></p>","","null","","","","","","","","","","","","","","","","","","","","","","","","","","","","","","","",""
"audio-keyboard-response","24","156051","0.0-4.0-1.0-0.1","3","0","o9389320ygmk1j0","","null","","sounds/induction/right_rev/me_SWS.wav","","null","","","","","","","","","","","","","","","","","","","","","","","","","","","","","","","",""
"html-button-response","25","156782","0.0-4.0-1.0-1.1","3","0","o9389320ygmk1j0","","729.1000000089407","","Was the sound coming from the left or the right?","1","","","1","INDUCTION-JUDGMENT","right","1","","","","","","","","","","","","","","","","","","","","","","","","","","",""
"html-keyboard-response","26","157788","0.0-4.0-1.0-2.1","3","0","o9389320ygmk1j0","","null","","<p style=""color:#054d00;""><b>Correct!</b></p>","","null","","","","","","","","","","","","","","","","","","","","","","","","","","","","","","","",""
"audio-keyboard-response","27","158595","0.0-4.0-1.0-0.2","3","0","o9389320ygmk1j0","","null","","sounds/induction/left_rev/ko_SWS.wav","","null","","","","","","","","","","","","","","","","","","","","","","","","","","","","","","","",""
"html-button-response","28","159254","0.0-4.0-1.0-1.2","3","0","o9389320ygmk1j0","","657.4000000059605","","Was the sound coming from the left or the right?","0","","","1","INDUCTION-JUDGMENT","left","0","","","","","","","","","","","","","","","","","","","","","","","","","","",""
"html-keyboard-response","29","160260","0.0-4.0-1.0-2.2","3","0","o9389320ygmk1j0","","null","","<p style=""color:#054d00;""><b>Correct!</b></p>","","null","","","","","","","","","","","","","","","","","","","","","","","","","","","","","","","",""
"audio-keyboard-response","30","161064","0.0-4.0-1.0-0.3","3","0","o9389320ygmk1j0","","null","","sounds/induction/left_rev/ta_SWS.wav","","null","","","","","","","","","","","","","","","","","","","","","","","","","","","","","","","",""
"html-button-response","31","161882","0.0-4.0-1.0-1.3","3","0","o9389320ygmk1j0","","816","","Was the sound coming from the left or the right?","0","","","1","INDUCTION-JUDGMENT","left","0","","","","","","","","","","","","","","","","","","","","","","","","","","",""
"html-keyboard-response","32","162884","0.0-4.0-1.0-2.3","3","0","o9389320ygmk1j0","","null","","<p style=""color:#054d00;""><b>Correct!</b></p>","","null","","","","","","","","","","","","","","","","","","","","","","","","","","","","","","","",""
"audio-keyboard-response","33","163688","0.0-4.0-1.0-0.4","3","0","o9389320ygmk1j0","","null","","sounds/induction/left_rev/ge_SWS.wav","","null","","","","","","","","","","","","","","","","","","","","","","","","","","","","","","","",""
"html-button-response","34","164300","0.0-4.0-1.0-1.4","3","0","o9389320ygmk1j0","","609.6999999880791","","Was the sound coming from the left or the right?","0","","","1","INDUCTION-JUDGMENT","left","0","","","","","","","","","","","","","","","","","","","","","","","","","","",""
"html-keyboard-response","35","165304","0.0-4.0-1.0-2.4","3","0","o9389320ygmk1j0","","null","","<p style=""color:#054d00;""><b>Correct!</b></p>","","null","","","","","","","","","","","","","","","","","","","","","","","","","","","","","","","",""
"audio-keyboard-response","36","166109","0.0-4.0-1.0-0.5","3","0","o9389320ygmk1j0","","null","","sounds/induction/right_rev/ta_SWS.wav","","null","","","","","","","","","","","","","","","","","","","","","","","","","","","","","","","",""
"html-button-response","37","166813","0.0-4.0-1.0-1.5","3","0","o9389320ygmk1j0","","702.0999999940395","","Was the sound coming from the left or the right?","1","","","1","INDUCTION-JUDGMENT","right","1","","","","","","","","","","","","","","","","","","","","","","","","","","",""
"html-keyboard-response","38","167817","0.0-4.0-1.0-2.5","3","0","o9389320ygmk1j0","","null","","<p style=""color:#054d00;""><b>Correct!</b></p>","","null","","","","","","","","","","","","","","","","","","","","","","","","","","","","","","","",""
"audio-keyboard-response","39","168621","0.0-4.0-1.0-0.6","3","0","o9389320ygmk1j0","","null","","sounds/induction/right_rev/ni_SWS.wav","","null","","","","","","","","","","","","","","","","","","","","","","","","","","","","","","","",""
"html-button-response","40","169788","0.0-4.0-1.0-1.6","3","0","o9389320ygmk1j0","","1165.5","","Was the sound coming from the left or the right?","1","","","1","INDUCTION-JUDGMENT","right","1","","","","","","","","","","","","","","","","","","","","","","","","","","",""
"html-keyboard-response","41","170794","0.0-4.0-1.0-2.6","3","0","o9389320ygmk1j0","","null","","<p style=""color:#054d00;""><b>Correct!</b></p>","","null","","","","","","","","","","","","","","","","","","","","","","","","","","","","","","","",""
"audio-keyboard-response","42","171602","0.0-4.0-1.0-0.7","3","0","o9389320ygmk1j0","","null","","sounds/induction/right_rev/ko_SWS.wav","","null","","","","","","","","","","","","","","","","","","","","","","","","","","","","","","","",""
"html-button-response","43","172212","0.0-4.0-1.0-1.7","3","0","o9389320ygmk1j0","","608.2000000029802","","Was the sound coming from the left or the right?","1","","","1","INDUCTION-JUDGMENT","right","1","","","","","","","","","","","","","","","","","","","","","","","","","","",""
"html-keyboard-response","44","173218","0.0-4.0-1.0-2.7","3","0","o9389320ygmk1j0","","null","","<p style=""color:#054d00;""><b>Correct!</b></p>","","null","","","","","","","","","","","","","","","","","","","","","","","","","","","","","","","",""
"audio-keyboard-response","45","174024","0.0-4.0-1.0-0.8","3","0","o9389320ygmk1j0","","null","","sounds/induction/right_rev/fu_SWS.wav","","null","","","","","","","","","","","","","","","","","","","","","","","","","","","","","","","",""
"html-button-response","46","174677","0.0-4.0-1.0-1.8","3","0","o9389320ygmk1j0","","651.2999999970198","","Was the sound coming from the left or the right?","1","","","1","INDUCTION-JUDGMENT","right","1","","","","","","","","","","","","","","","","","","","","","","","","","","",""
"html-keyboard-response","47","175679","0.0-4.0-1.0-2.8","3","0","o9389320ygmk1j0","","null","","<p style=""color:#054d00;""><b>Correct!</b></p>","","null","","","","","","","","","","","","","","","","","","","","","","","","","","","","","","","",""
"audio-keyboard-response","48","176482","0.0-4.0-1.0-0.9","3","0","o9389320ygmk1j0","","null","","sounds/induction/left_rev/su_SWS.wav","","null","","","","","","","","","","","","","","","","","","","","","","","","","","","","","","","",""
"html-button-response","49","177104","0.0-4.0-1.0-1.9","3","0","o9389320ygmk1j0","","619.5999999940395","","Was the sound coming from the left or the right?","0","","","1","INDUCTION-JUDGMENT","left","0","","","","","","","","","","","","","","","","","","","","","","","","","","",""
"html-keyboard-response","50","178108","0.0-4.0-1.0-2.9","3","0","o9389320ygmk1j0","","null","","<p style=""color:#054d00;""><b>Correct!</b></p>","","null","","","","","","","","","","","","","","","","","","","","","","","","","","","","","","","",""
"audio-keyboard-response","51","178915","0.0-4.0-1.0-0.10","3","0","o9389320ygmk1j0","","null","","sounds/induction/right_rev/fu_SWS.wav","","null","","","","","","","","","","","","","","","","","","","","","","","","","","","","","","","",""
"html-button-response","52","179690","0.0-4.0-1.0-1.10","3","0","o9389320ygmk1j0","","773.1999999880791","","Was the sound coming from the left or the right?","1","","","1","INDUCTION-JUDGMENT","right","1","","","","","","","","","","","","","","","","","","","","","","","","","","",""
"html-keyboard-response","53","180696","0.0-4.0-1.0-2.10","3","0","o9389320ygmk1j0","","null","","<p style=""color:#054d00;""><b>Correct!</b></p>","","null","","","","","","","","","","","","","","","","","","","","","","","","","","","","","","","",""
"audio-keyboard-response","54","181501","0.0-4.0-1.0-0.11","3","0","o9389320ygmk1j0","","null","","sounds/induction/right_rev/ge_SWS.wav","","null","","","","","","","","","","","","","","","","","","","","","","","","","","","","","","","",""
"html-button-response","55","182204","0.0-4.0-1.0-1.11","3","0","o9389320ygmk1j0","","701.6000000089407","","Was the sound coming from the left or the right?","1","","","1","INDUCTION-JUDGMENT","right","1","","","","","","","","","","","","","","","","","","","","","","","","","","",""
"html-keyboard-response","56","183208","0.0-4.0-1.0-2.11","3","0","o9389320ygmk1j0","","null","","<p style=""color:#054d00;""><b>Correct!</b></p>","","null","","","","","","","","","","","","","","","","","","","","","","","","","","","","","","","",""
"audio-keyboard-response","57","184013","0.0-4.0-1.0-0.12","3","0","o9389320ygmk1j0","","null","","sounds/induction/left_rev/fe_SWS.wav","","null","","","","","","","","","","","","","","","","","","","","","","","","","","","","","","","",""
"html-button-response","58","184596","0.0-4.0-1.0-1.12","3","0","o9389320ygmk1j0","","580.9000000059605","","Was the sound coming from the left or the right?","0","","","1","INDUCTION-JUDGMENT","left","0","","","","","","","","","","","","","","","","","","","","","","","","","","",""
"html-keyboard-response","59","185598","0.0-4.0-1.0-2.12","3","0","o9389320ygmk1j0","","null","","<p style=""color:#054d00;""><b>Correct!</b></p>","","null","","","","","","","","","","","","","","","","","","","","","","","","","","","","","","","",""
"audio-keyboard-response","60","186402","0.0-4.0-1.0-0.13","3","0","o9389320ygmk1j0","","null","","sounds/induction/left_rev/ge_SWS.wav","","null","","","","","","","","","","","","","","","","","","","","","","","","","","","","","","","",""
"html-button-response","61","186966","0.0-4.0-1.0-1.13","3","0","o9389320ygmk1j0","","560.9000000059605","","Was the sound coming from the left or the right?","0","","","1","INDUCTION-JUDGMENT","left","0","","","","","","","","","","","","","","","","","","","","","","","","","","",""
"html-keyboard-response","62","187971","0.0-4.0-1.0-2.13","3","0","o9389320ygmk1j0","","null","","<p style=""color:#054d00;""><b>Correct!</b></p>","","null","","","","","","","","","","","","","","","","","","","","","","","","","","","","","","","",""
"audio-keyboard-response","63","188775","0.0-4.0-1.0-0.14","3","0","o9389320ygmk1j0","","null","","sounds/induction/right_rev/re_SWS.wav","","null","","","","","","","","","","","","","","","","","","","","","","","","","","","","","","","",""
"html-button-response","64","189665","0.0-4.0-1.0-1.14","3","0","o9389320ygmk1j0","","888.2999999970198","","Was the sound coming from the left or the right?","1","","","1","INDUCTION-JUDGMENT","right","1","","","","","","","","","","","","","","","","","","","","","","","","","","",""
"html-keyboard-response","65","190671","0.0-4.0-1.0-2.14","3","0","o9389320ygmk1j0","","null","","<p style=""color:#054d00;""><b>Correct!</b></p>","","null","","","","","","","","","","","","","","","","","","","","","","","","","","","","","","","",""
"audio-keyboard-response","66","191479","0.0-4.0-1.0-0.15","3","0","o9389320ygmk1j0","","null","","sounds/induction/left_rev/ru_SWS.wav","","null","","","","","","","","","","","","","","","","","","","","","","","","","","","","","","","",""
"html-button-response","67","192163","0.0-4.0-1.0-1.15","3","0","o9389320ygmk1j0","","681.6999999880791","","Was the sound coming from the left or the right?","0","","","1","INDUCTION-JUDGMENT","left","0","","","","","","","","","","","","","","","","","","","","","","","","","","",""
"html-keyboard-response","68","193170","0.0-4.0-1.0-2.15","3","0","o9389320ygmk1j0","","null","","<p style=""color:#054d00;""><b>Correct!</b></p>","","null","","","","","","","","","","","","","","","","","","","","","","","","","","","","","","","",""
"audio-keyboard-response","69","193970","0.0-4.0-1.0-0.16","3","0","o9389320ygmk1j0","","null","","sounds/induction/left_rev/re_SWS.wav","","null","","","","","","","","","","","","","","","","","","","","","","","","","","","","","","","",""
"html-button-response","70","194629","0.0-4.0-1.0-1.16","3","0","o9389320ygmk1j0","","656.5999999940395","","Was the sound coming from the left or the right?","0","","","1","INDUCTION-JUDGMENT","left","0","","","","","","","","","","","","","","","","","","","","","","","","","","",""
"html-keyboard-response","71","195634","0.0-4.0-1.0-2.16","3","0","o9389320ygmk1j0","","null","","<p style=""color:#054d00;""><b>Correct!</b></p>","","null","","","","","","","","","","","","","","","","","","","","","","","","","","","","","","","",""
"audio-keyboard-response","72","196439","0.0-4.0-1.0-0.17","3","0","o9389320ygmk1j0","","null","","sounds/induction/right_rev/ti_SWS.wav","","null","","","","","","","","","","","","","","","","","","","","","","","","","","","","","","","",""
"html-button-response","73","197206","0.0-4.0-1.0-1.17","3","0","o9389320ygmk1j0","","764.2999999970198","","Was the sound coming from the left or the right?","1","","","1","INDUCTION-JUDGMENT","right","1","","","","","","","","","","","","","","","","","","","","","","","","","","",""
"html-keyboard-response","74","198211","0.0-4.0-1.0-2.17","3","0","o9389320ygmk1j0","","null","","<p style=""color:#054d00;""><b>Correct!</b></p>","","null","","","","","","","","","","","","","","","","","","","","","","","","","","","","","","","",""
"audio-keyboard-response","75","199015","0.0-4.0-1.0-0.18","3","0","o9389320ygmk1j0","","null","","sounds/induction/left_rev/re_SWS.wav","","null","","","","","","","","","","","","","","","","","","","","","","","","","","","","","","","",""
"html-button-response","76","199688","0.0-4.0-1.0-1.18","3","0","o9389320ygmk1j0","","672.1999999880791","","Was the sound coming from the left or the right?","0","","","1","INDUCTION-JUDGMENT","left","0","","","","","","","","","","","","","","","","","","","","","","","","","","",""
"html-keyboard-response","77","200692","0.0-4.0-1.0-2.18","3","0","o9389320ygmk1j0","","null","","<p style=""color:#054d00;""><b>Correct!</b></p>","","null","","","","","","","","","","","","","","","","","","","","","","","","","","","","","","","",""
"audio-keyboard-response","78","201495","0.0-4.0-1.0-0.19","3","0","o9389320ygmk1j0","","null","","sounds/induction/left_rev/ti_SWS.wav","","null","","","","","","","","","","","","","","","","","","","","","","","","","","","","","","","",""
"html-button-response","79","202234","0.0-4.0-1.0-1.19","3","0","o9389320ygmk1j0","","736.7999999970198","","Was the sound coming from the left or the right?","0","","","1","INDUCTION-JUDGMENT","left","0","","","","","","","","","","","","","","","","","","","","","","","","","","",""
"html-keyboard-response","80","203238","0.0-4.0-1.0-2.19","3","0","o9389320ygmk1j0","","null","","<p style=""color:#054d00;""><b>Correct!</b></p>","","null","","","","","","","","","","","","","","","","","","","","","","","","","","","","","","","",""
"audio-keyboard-response","81","204044","0.0-4.0-1.0-0.20","3","0","o9389320ygmk1j0","","null","","sounds/induction/right_rev/me_SWS.wav","","null","","","","","","","","","","","","","","","","","","","","","","","","","","","","","","","",""
"html-button-response","82","204748","0.0-4.0-1.0-1.20","3","0","o9389320ygmk1j0","","701.3000000119209","","Was the sound coming from the left or the right?","1","","","1","INDUCTION-JUDGMENT","right","1","","","","","","","","","","","","","","","","","","","","","","","","","","",""
"html-keyboard-response","83","205754","0.0-4.0-1.0-2.20","3","0","o9389320ygmk1j0","","null","","<p style=""color:#054d00;""><b>Correct!</b></p>","","null","","","","","","","","","","","","","","","","","","","","","","","","","","","","","","","",""
"audio-keyboard-response","84","206562","0.0-4.0-1.0-0.21","3","0","o9389320ygmk1j0","","null","","sounds/induction/right_rev/ru_SWS.wav","","null","","","","","","","","","","","","","","","","","","","","","","","","","","","","","","","",""
"html-button-response","85","207666","0.0-4.0-1.0-1.21","3","0","o9389320ygmk1j0","","1101.0999999940395","","Was the sound coming from the left or the right?","1","","","1","INDUCTION-JUDGMENT","right","1","","","","","","","","","","","","","","","","","","","","","","","","","","",""
"html-keyboard-response","86","208670","0.0-4.0-1.0-2.21","3","0","o9389320ygmk1j0","","null","","<p style=""color:#054d00;""><b>Correct!</b></p>","","null","","","","","","","","","","","","","","","","","","","","","","","","","","","","","","","",""
"audio-keyboard-response","87","209479","0.0-4.0-1.0-0.22","3","0","o9389320ygmk1j0","","null","","sounds/induction/left_rev/pu_SWS.wav","","null","","","","","","","","","","","","","","","","","","","","","","","","","","","","","","","",""
"html-button-response","88","210269","0.0-4.0-1.0-1.22","3","0","o9389320ygmk1j0","","788.5999999940395","","Was the sound coming from the left or the right?","0","","","1","INDUCTION-JUDGMENT","left","0","","","","","","","","","","","","","","","","","","","","","","","","","","",""
"html-keyboard-response","89","211275","0.0-4.0-1.0-2.22","3","0","o9389320ygmk1j0","","null","","<p style=""color:#054d00;""><b>Correct!</b></p>","","null","","","","","","","","","","","","","","","","","","","","","","","","","","","","","","","",""
"audio-keyboard-response","90","212082","0.0-4.0-1.0-0.23","3","0","o9389320ygmk1j0","","null","","sounds/induction/left_rev/su_SWS.wav","","null","","","","","","","","","","","","","","","","","","","","","","","","","","","","","","","",""
"html-button-response","91","212784","0.0-4.0-1.0-1.23","3","0","o9389320ygmk1j0","","699.7000000029802","","Was the sound coming from the left or the right?","0","","","1","INDUCTION-JUDGMENT","left","0","","","","","","","","","","","","","","","","","","","","","","","","","","",""
"html-keyboard-response","92","213787","0.0-4.0-1.0-2.23","3","0","o9389320ygmk1j0","","null","","<p style=""color:#054d00;""><b>Correct!</b></p>","","null","","","","","","","","","","","","","","","","","","","","","","","","","","","","","","","",""
"audio-keyboard-response","93","214594","0.0-4.0-1.0-0.24","3","0","o9389320ygmk1j0","","null","","sounds/induction/left_rev/pu_SWS.wav","","null","","","","","","","","","","","","","","","","","","","","","","","","","","","","","","","",""
"html-button-response","94","215249","0.0-4.0-1.0-1.24","3","0","o9389320ygmk1j0","","652.5999999940395","","Was the sound coming from the left or the right?","0","","","1","INDUCTION-JUDGMENT","left","0","","","","","","","","","","","","","","","","","","","","","","","","","","",""
"html-keyboard-response","95","216256","0.0-4.0-1.0-2.24","3","0","o9389320ygmk1j0","","null","","<p style=""color:#054d00;""><b>Correct!</b></p>","","null","","","","","","","","","","","","","","","","","","","","","","","","","","","","","","","",""
"audio-keyboard-response","96","217063","0.0-4.0-1.0-0.25","3","0","o9389320ygmk1j0","","null","","sounds/induction/right_rev/pu_SWS.wav","","null","","","","","","","","","","","","","","","","","","","","","","","","","","","","","","","",""
"html-button-response","97","218013","0.0-4.0-1.0-1.25","3","0","o9389320ygmk1j0","","947.1999999880791","","Was the sound coming from the left or the right?","1","","","1","INDUCTION-JUDGMENT","right","1","","","","","","","","","","","","","","","","","","","","","","","","","","",""
"html-keyboard-response","98","219016","0.0-4.0-1.0-2.25","3","0","o9389320ygmk1j0","","null","","<p style=""color:#054d00;""><b>Correct!</b></p>","","null","","","","","","","","","","","","","","","","","","","","","","","","","","","","","","","",""
"audio-keyboard-response","99","219820","0.0-4.0-1.0-0.26","3","0","o9389320ygmk1j0","","null","","sounds/induction/right_rev/fe_SWS.wav","","null","","","","","","","","","","","","","","","","","","","","","","","","","","","","","","","",""
"html-button-response","100","220486","0.0-4.0-1.0-1.26","3","0","o9389320ygmk1j0","","664.5999999940395","","Was the sound coming from the left or the right?","1","","","1","INDUCTION-JUDGMENT","right","1","","","","","","","","","","","","","","","","","","","","","","","","","","",""
"html-keyboard-response","101","221489","0.0-4.0-1.0-2.26","3","0","o9389320ygmk1j0","","null","","<p style=""color:#054d00;""><b>Correct!</b></p>","","null","","","","","","","","","","","","","","","","","","","","","","","","","","","","","","","",""
"audio-keyboard-response","102","222295","0.0-4.0-1.0-0.27","3","0","o9389320ygmk1j0","","null","","sounds/induction/right_rev/ru_SWS.wav","","null","","","","","","","","","","","","","","","","","","","","","","","","","","","","","","","",""
"html-button-response","103","222892","0.0-4.0-1.0-1.27","3","0","o9389320ygmk1j0","","594.6999999880791","","Was the sound coming from the left or the right?","1","","","1","INDUCTION-JUDGMENT","right","1","","","","","","","","","","","","","","","","","","","","","","","","","","",""
"html-keyboard-response","104","223899","0.0-4.0-1.0-2.27","3","0","o9389320ygmk1j0","","null","","<p style=""color:#054d00;""><b>Correct!</b></p>","","null","","","","","","","","","","","","","","","","","","","","","","","","","","","","","","","",""
"audio-keyboard-response","105","224700","0.0-4.0-1.0-0.28","3","0","o9389320ygmk1j0","","null","","sounds/induction/right_rev/ko_SWS.wav","","null","","","","","","","","","","","","","","","","","","","","","","","","","","","","","","","",""
"html-button-response","106","225251","0.0-4.0-1.0-1.28","3","0","o9389320ygmk1j0","","547.9000000059605","","Was the sound coming from the left or the right?","1","","","1","INDUCTION-JUDGMENT","right","1","","","","","","","","","","","","","","","","","","","","","","","","","","",""
"html-keyboard-response","107","226258","0.0-4.0-1.0-2.28","3","0","o9389320ygmk1j0","","null","","<p style=""color:#054d00;""><b>Correct!</b></p>","","null","","","","","","","","","","","","","","","","","","","","","","","","","","","","","","","",""
"audio-keyboard-response","108","227063","0.0-4.0-1.0-0.29","3","0","o9389320ygmk1j0","","null","","sounds/induction/right_rev/su_SWS.wav","","null","","","","","","","","","","","","","","","","","","","","","","","","","","","","","","","",""
"html-button-response","109","227547","0.0-4.0-1.0-1.29","3","0","o9389320ygmk1j0","","481.09999999403954","","Was the sound coming from the left or the right?","1","","","1","INDUCTION-JUDGMENT","right","1","","","","","","","","","","","","","","","","","","","","","","","","","","",""
"html-keyboard-response","110","228554","0.0-4.0-1.0-2.29","3","0","o9389320ygmk1j0","","null","","<p style=""color:#054d00;""><b>Correct!</b></p>","","null","","","","","","","","","","","","","","","","","","","","","","","","","","","","","","","",""
"audio-keyboard-response","111","229356","0.0-4.0-1.0-0.30","3","0","o9389320ygmk1j0","","null","","sounds/induction/left_rev/me_SWS.wav","","null","","","","","","","","","","","","","","","","","","","","","","","","","","","","","","","",""
"html-button-response","112","230070","0.0-4.0-1.0-1.30","3","0","o9389320ygmk1j0","","711.1999999880791","","Was the sound coming from the left or the right?","0","","","1","INDUCTION-JUDGMENT","left","0","","","","","","","","","","","","","","","","","","","","","","","","","","",""
"html-keyboard-response","113","231076","0.0-4.0-1.0-2.30","3","0","o9389320ygmk1j0","","null","","<p style=""color:#054d00;""><b>Correct!</b></p>","","null","","","","","","","","","","","","","","","","","","","","","","","","","","","","","","","",""
"audio-keyboard-response","114","231884","0.0-4.0-1.0-0.31","3","0","o9389320ygmk1j0","","null","","sounds/induction/right_rev/ni_SWS.wav","","null","","","","","","","","","","","","","","","","","","","","","","","","","","","","","","","",""
"html-button-response","115","232690","0.0-4.0-1.0-1.31","3","0","o9389320ygmk1j0","","803.0999999940395","","Was the sound coming from the left or the right?","1","","","1","INDUCTION-JUDGMENT","right","1","","","","","","","","","","","","","","","","","","","","","","","","","","",""
"html-keyboard-response","116","233695","0.0-4.0-1.0-2.31","3","0","o9389320ygmk1j0","","null","","<p style=""color:#054d00;""><b>Correct!</b></p>","","null","","","","","","","","","","","","","","","","","","","","","","","","","","","","","","","",""
"audio-keyboard-response","117","234497","0.0-4.0-1.0-0.32","3","0","o9389320ygmk1j0","","null","","sounds/induction/left_rev/ti_SWS.wav","","null","","","","","","","","","","","","","","","","","","","","","","","","","","","","","","","",""
"html-button-response","118","235284","0.0-4.0-1.0-1.32","3","0","o9389320ygmk1j0","","785.2999999970198","","Was the sound coming from the left or the right?","0","","","1","INDUCTION-JUDGMENT","left","0","","","","","","","","","","","","","","","","","","","","","","","","","","",""
"html-keyboard-response","119","236289","0.0-4.0-1.0-2.32","3","0","o9389320ygmk1j0","","null","","<p style=""color:#054d00;""><b>Correct!</b></p>","","null","","","","","","","","","","","","","","","","","","","","","","","","","","","","","","","",""
"audio-keyboard-response","120","237094","0.0-4.0-1.0-0.33","3","0","o9389320ygmk1j0","","null","","sounds/induction/left_rev/me_SWS.wav","","null","","","","","","","","","","","","","","","","","","","","","","","","","","","","","","","",""
"html-button-response","121","237774","0.0-4.0-1.0-1.33","3","0","o9389320ygmk1j0","","676.5","","Was the sound coming from the left or the right?","0","","","1","INDUCTION-JUDGMENT","left","0","","","","","","","","","","","","","","","","","","","","","","","","","","",""
"html-keyboard-response","122","238776","0.0-4.0-1.0-2.33","3","0","o9389320ygmk1j0","","null","","<p style=""color:#054d00;""><b>Correct!</b></p>","","null","","","","","","","","","","","","","","","","","","","","","","","","","","","","","","","",""
"audio-keyboard-response","123","239585","0.0-4.0-1.0-0.34","3","0","o9389320ygmk1j0","","null","","sounds/induction/left_rev/ni_SWS.wav","","null","","","","","","","","","","","","","","","","","","","","","","","","","","","","","","","",""
"html-button-response","124","240160","0.0-4.0-1.0-1.34","3","0","o9389320ygmk1j0","","572.7999999970198","","Was the sound coming from the left or the right?","0","","","1","INDUCTION-JUDGMENT","left","0","","","","","","","","","","","","","","","","","","","","","","","","","","",""
"html-keyboard-response","125","241168","0.0-4.0-1.0-2.34","3","0","o9389320ygmk1j0","","null","","<p style=""color:#054d00;""><b>Correct!</b></p>","","null","","","","","","","","","","","","","","","","","","","","","","","","","","","","","","","",""
"audio-keyboard-response","126","241969","0.0-4.0-1.0-0.35","3","0","o9389320ygmk1j0","","null","","sounds/induction/right_rev/ge_SWS.wav","","null","","","","","","","","","","","","","","","","","","","","","","","","","","","","","","","",""
"html-button-response","127","242690","0.0-4.0-1.0-1.35","3","0","o9389320ygmk1j0","","718.1000000089407","","Was the sound coming from the left or the right?","1","","","1","INDUCTION-JUDGMENT","right","1","","","","","","","","","","","","","","","","","","","","","","","","","","",""
"html-keyboard-response","128","243695","0.0-4.0-1.0-2.35","3","0","o9389320ygmk1j0","","null","","<p style=""color:#054d00;""><b>Correct!</b></p>","","null","","","","","","","","","","","","","","","","","","","","","","","","","","","","","","","",""
"audio-keyboard-response","129","244497","0.0-4.0-1.0-0.36","3","0","o9389320ygmk1j0","","null","","sounds/induction/right_rev/ta_SWS.wav","","null","","","","","","","","","","","","","","","","","","","","","","","","","","","","","","","",""
"html-button-response","130","245125","0.0-4.0-1.0-1.36","3","0","o9389320ygmk1j0","","624.7000000029802","","Was the sound coming from the left or the right?","1","","","1","INDUCTION-JUDGMENT","right","1","","","","","","","","","","","","","","","","","","","","","","","","","","",""
"html-keyboard-response","131","246132","0.0-4.0-1.0-2.36","3","0","o9389320ygmk1j0","","null","","<p style=""color:#054d00;""><b>Correct!</b></p>","","null","","","","","","","","","","","","","","","","","","","","","","","","","","","","","","","",""
"audio-keyboard-response","132","246934","0.0-4.0-1.0-0.37","3","0","o9389320ygmk1j0","","null","","sounds/induction/left_rev/fu_SWS.wav","","null","","","","","","","","","","","","","","","","","","","","","","","","","","","","","","","",""
"html-button-response","133","247646","0.0-4.0-1.0-1.37","3","0","o9389320ygmk1j0","","709","","Was the sound coming from the left or the right?","0","","","1","INDUCTION-JUDGMENT","left","0","","","","","","","","","","","","","","","","","","","","","","","","","","",""
"html-keyboard-response","134","248653","0.0-4.0-1.0-2.37","3","0","o9389320ygmk1j0","","null","","<p style=""color:#054d00;""><b>Correct!</b></p>","","null","","","","","","","","","","","","","","","","","","","","","","","","","","","","","","","",""
"audio-keyboard-response","135","249462","0.0-4.0-1.0-0.38","3","0","o9389320ygmk1j0","","null","","sounds/induction/right_rev/su_SWS.wav","","null","","","","","","","","","","","","","","","","","","","","","","","","","","","","","","","",""
"html-button-response","136","250222","0.0-4.0-1.0-1.38","3","0","o9389320ygmk1j0","","756.2000000029802","","Was the sound coming from the left or the right?","1","","","1","INDUCTION-JUDGMENT","right","1","","","","","","","","","","","","","","","","","","","","","","","","","","",""
"html-keyboard-response","137","251229","0.0-4.0-1.0-2.38","3","0","o9389320ygmk1j0","","null","","<p style=""color:#054d00;""><b>Correct!</b></p>","","null","","","","","","","","","","","","","","","","","","","","","","","","","","","","","","","",""
"audio-keyboard-response","138","252033","0.0-4.0-1.0-0.39","3","0","o9389320ygmk1j0","","null","","sounds/induction/left_rev/ni_SWS.wav","","null","","","","","","","","","","","","","","","","","","","","","","","","","","","","","","","",""
"html-button-response","139","252744","0.0-4.0-1.0-1.39","3","0","o9389320ygmk1j0","","708.5","","Was the sound coming from the left or the right?","0","","","1","INDUCTION-JUDGMENT","left","0","","","","","","","","","","","","","","","","","","","","","","","","","","",""
"html-keyboard-response","140","253749","0.0-4.0-1.0-2.39","3","0","o9389320ygmk1j0","","null","","<p style=""color:#054d00;""><b>Correct!</b></p>","","null","","","","","","","","","","","","","","","","","","","","","","","","","","","","","","","",""
"audio-keyboard-response","141","254555","0.0-4.0-1.0-0.40","3","0","o9389320ygmk1j0","","null","","sounds/induction/left_rev/ru_SWS.wav","","null","","","","","","","","","","","","","","","","","","","","","","","","","","","","","","","",""
"html-button-response","142","255281","0.0-4.0-1.0-1.40","3","0","o9389320ygmk1j0","","723","","Was the sound coming from the left or the right?","0","","","1","INDUCTION-JUDGMENT","left","0","","","","","","","","","","","","","","","","","","","","","","","","","","",""
"html-keyboard-response","143","256285","0.0-4.0-1.0-2.40","3","0","o9389320ygmk1j0","","null","","<p style=""color:#054d00;""><b>Correct!</b></p>","","null","","","","","","","","","","","","","","","","","","","","","","","","","","","","","","","",""
"audio-keyboard-response","144","257094","0.0-4.0-1.0-0.41","3","0","o9389320ygmk1j0","","null","","sounds/induction/left_rev/ta_SWS.wav","","null","","","","","","","","","","","","","","","","","","","","","","","","","","","","","","","",""
"html-button-response","145","257619","0.0-4.0-1.0-1.41","3","0","o9389320ygmk1j0","","522","","Was the sound coming from the left or the right?","0","","","1","INDUCTION-JUDGMENT","left","0","","","","","","","","","","","","","","","","","","","","","","","","","","",""
"html-keyboard-response","146","258626","0.0-4.0-1.0-2.41","3","0","o9389320ygmk1j0","","null","","<p style=""color:#054d00;""><b>Correct!</b></p>","","null","","","","","","","","","","","","","","","","","","","","","","","","","","","","","","","",""
"audio-keyboard-response","147","259430","0.0-4.0-1.0-0.42","3","0","o9389320ygmk1j0","","null","","sounds/induction/left_rev/fe_SWS.wav","","null","","","","","","","","","","","","","","","","","","","","","","","","","","","","","","","",""
"html-button-response","148","260020","0.0-4.0-1.0-1.42","3","0","o9389320ygmk1j0","","584","","Was the sound coming from the left or the right?","0","","","1","INDUCTION-JUDGMENT","left","0","","","","","","","","","","","","","","","","","","","","","","","","","","",""
"html-keyboard-response","149","261026","0.0-4.0-1.0-2.42","3","0","o9389320ygmk1j0","","null","","<p style=""color:#054d00;""><b>Correct!</b></p>","","null","","","","","","","","","","","","","","","","","","","","","","","","","","","","","","","",""
"audio-keyboard-response","150","261835","0.0-4.0-1.0-0.43","3","0","o9389320ygmk1j0","","null","","sounds/induction/left_rev/fu_SWS.wav","","null","","","","","","","","","","","","","","","","","","","","","","","","","","","","","","","",""
"html-button-response","151","262284","0.0-4.0-1.0-1.43","3","0","o9389320ygmk1j0","","446.20000000298023","","Was the sound coming from the left or the right?","0","","","1","INDUCTION-JUDGMENT","left","0","","","","","","","","","","","","","","","","","","","","","","","","","","",""
"html-keyboard-response","152","263291","0.0-4.0-1.0-2.43","3","0","o9389320ygmk1j0","","null","","<p style=""color:#054d00;""><b>Correct!</b></p>","","null","","","","","","","","","","","","","","","","","","","","","","","","","","","","","","","",""
"audio-keyboard-response","153","264096","0.0-4.0-1.0-0.44","3","0","o9389320ygmk1j0","","null","","sounds/induction/right_rev/re_SWS.wav","","null","","","","","","","","","","","","","","","","","","","","","","","","","","","","","","","",""
"html-button-response","154","264847","0.0-4.0-1.0-1.44","3","0","o9389320ygmk1j0","","747.5","","Was the sound coming from the left or the right?","1","","","1","INDUCTION-JUDGMENT","right","1","","","","","","","","","","","","","","","","","","","","","","","","","","",""
"html-keyboard-response","155","265854","0.0-4.0-1.0-2.44","3","0","o9389320ygmk1j0","","null","","<p style=""color:#054d00;""><b>Correct!</b></p>","","null","","","","","","","","","","","","","","","","","","","","","","","","","","","","","","","",""
"audio-keyboard-response","156","266656","0.0-4.0-1.0-0.45","3","0","o9389320ygmk1j0","","null","","sounds/induction/right_rev/pu_SWS.wav","","null","","","","","","","","","","","","","","","","","","","","","","","","","","","","","","","",""
"html-button-response","157","267303","0.0-4.0-1.0-1.45","3","0","o9389320ygmk1j0","","644","","Was the sound coming from the left or the right?","1","","","1","INDUCTION-JUDGMENT","right","1","","","","","","","","","","","","","","","","","","","","","","","","","","",""
"html-keyboard-response","158","268306","0.0-4.0-1.0-2.45","3","0","o9389320ygmk1j0","","null","","<p style=""color:#054d00;""><b>Correct!</b></p>","","null","","","","","","","","","","","","","","","","","","","","","","","","","","","","","","","",""
"audio-keyboard-response","159","269110","0.0-4.0-1.0-0.46","3","0","o9389320ygmk1j0","","null","","sounds/induction/right_rev/fe_SWS.wav","","null","","","","","","","","","","","","","","","","","","","","","","","","","","","","","","","",""
"html-button-response","160","269866","0.0-4.0-1.0-1.46","3","0","o9389320ygmk1j0","","754.5999999940395","","Was the sound coming from the left or the right?","1","","","1","INDUCTION-JUDGMENT","right","1","","","","","","","","","","","","","","","","","","","","","","","","","","",""
"html-keyboard-response","161","270868","0.0-4.0-1.0-2.46","3","0","o9389320ygmk1j0","","null","","<p style=""color:#054d00;""><b>Correct!</b></p>","","null","","","","","","","","","","","","","","","","","","","","","","","","","","","","","","","",""
"audio-keyboard-response","162","271675","0.0-4.0-1.0-0.47","3","0","o9389320ygmk1j0","","null","","sounds/induction/right_rev/ti_SWS.wav","","null","","","","","","","","","","","","","","","","","","","","","","","","","","","","","","","",""
"html-button-response","163","272444","0.0-4.0-1.0-1.47","3","0","o9389320ygmk1j0","","768.2999999970198","","Was the sound coming from the left or the right?","1","","","1","INDUCTION-JUDGMENT","right","1","","","","","","","","","","","","","","","","","","","","","","","","","","",""
"html-keyboard-response","164","273449","0.0-4.0-1.0-2.47","3","0","o9389320ygmk1j0","","null","","<p style=""color:#054d00;""><b>Correct!</b></p>","","null","","","","","","","","","","","","","","","","","","","","","","","","","","","","","","","",""
"html-button-response","165","282766","0.0-5.0-0.0","3","0","o9389320ygmk1j0","","8811.09999999404","","<p>Thank you for your answers.</p><p>You will now listen to similar sounds. The main difference is that the sounds will be longer.</p><p>Just as before, you will be asked to judge whether the sound was coming from the left or the right.</p><p>There are 10 of these longer sounds in total.","0","","","","","","","","","","","","","","","","","","","","","","","","","","","","","","","","",""
"audio-keyboard-response","166","285349","0.0-5.0-1.0-0.0","3","0","o9389320ygmk1j0","","null","","sounds/sentences/left_rev/14_03_cfSWS.wav","","null","","","","","","","","","","","","","","","","","","","","","","","","","","","","","","","",""
"html-button-response","167","286016","0.0-5.0-1.0-1.0","3","0","o9389320ygmk1j0","","664.2999999970198","","Was the sound coming from the left or the right?","0","","","1","INDUCTION-JUDGMENT","left","0","","","","","","","","","","","","","","","","","","","","","","","","","","",""
"html-keyboard-response","168","287018","0.0-5.0-1.0-2.0","3","0","o9389320ygmk1j0","","null","","<p style=""color:#054d00;""><b>Correct!</b></p>","","null","","","","","","","","","","","","","","","","","","","","","","","","","","","","","","","",""
"html-button-response","169","288570","0.0-5.0-1.0-3.0","3","0","o9389320ygmk1j0","","1049.199999988079","","<p>Press the button below when you are ready to continue.</p>","0","","","","","","","","","","","","","","","","","","","","","","","","","","","","","","","","",""
"audio-keyboard-response","170","291328","0.0-5.0-1.0-0.1","3","0","o9389320ygmk1j0","","null","","sounds/sentences/right_rev/14_08_cfSWS.wav","","null","","","","","","","","","","","","","","","","","","","","","","","","","","","","","","","",""
"html-button-response","171","291900","0.0-5.0-1.0-1.1","3","0","o9389320ygmk1j0","","569.2000000029802","","Was the sound coming from the left or the right?","1","","","1","INDUCTION-JUDGMENT","right","1","","","","","","","","","","","","","","","","","","","","","","","","","","",""
"html-keyboard-response","172","292903","0.0-5.0-1.0-2.1","3","0","o9389320ygmk1j0","","null","","<p style=""color:#054d00;""><b>Correct!</b></p>","","null","","","","","","","","","","","","","","","","","","","","","","","","","","","","","","","",""
"html-button-response","173","294293","0.0-5.0-1.0-3.1","3","0","o9389320ygmk1j0","","887.4000000059605","","<p>Press the button below when you are ready to continue.</p>","0","","","","","","","","","","","","","","","","","","","","","","","","","","","","","","","","",""
"audio-keyboard-response","174","297285","0.0-5.0-1.0-0.2","3","0","o9389320ygmk1j0","","null","","sounds/sentences/left_rev/14_05_cfSWS.wav","","null","","","","","","","","","","","","","","","","","","","","","","","","","","","","","","","",""
"html-button-response","175","297923","0.0-5.0-1.0-1.2","3","0","o9389320ygmk1j0","","635.2000000029802","","Was the sound coming from the left or the right?","0","","","1","INDUCTION-JUDGMENT","left","0","","","","","","","","","","","","","","","","","","","","","","","","","","",""
"html-keyboard-response","176","298926","0.0-5.0-1.0-2.2","3","0","o9389320ygmk1j0","","null","","<p style=""color:#054d00;""><b>Correct!</b></p>","","null","","","","","","","","","","","","","","","","","","","","","","","","","","","","","","","",""
"html-button-response","177","300808","0.0-5.0-1.0-3.2","3","0","o9389320ygmk1j0","","1375.7999999970198","","<p>Press the button below when you are ready to continue.</p>","0","","","","","","","","","","","","","","","","","","","","","","","","","","","","","","","","",""
"audio-keyboard-response","178","303626","0.0-5.0-1.0-0.3","3","0","o9389320ygmk1j0","","null","","sounds/sentences/left_rev/14_02_cfSWS.wav","","null","","","","","","","","","","","","","","","","","","","","","","","","","","","","","","","",""
"html-button-response","179","304559","0.0-5.0-1.0-1.3","3","0","o9389320ygmk1j0","","930.1000000089407","","Was the sound coming from the left or the right?","0","","","1","INDUCTION-JUDGMENT","left","0","","","","","","","","","","","","","","","","","","","","","","","","","","",""
"html-keyboard-response","180","305563","0.0-5.0-1.0-2.3","3","0","o9389320ygmk1j0","","null","","<p style=""color:#054d00;""><b>Correct!</b></p>","","null","","","","","","","","","","","","","","","","","","","","","","","","","","","","","","","",""
"html-button-response","181","307453","0.0-5.0-1.0-3.3","3","0","o9389320ygmk1j0","","1387.7999999970198","","<p>Press the button below when you are ready to continue.</p>","0","","","","","","","","","","","","","","","","","","","","","","","","","","","","","","","","",""
"audio-keyboard-response","182","310575","0.0-5.0-1.0-0.4","3","0","o9389320ygmk1j0","","null","","sounds/sentences/left_rev/14_01_cfSWS.wav","","null","","","","","","","","","","","","","","","","","","","","","","","","","","","","","","","",""
"html-button-response","183","311532","0.0-5.0-1.0-1.4","3","0","o9389320ygmk1j0","","954.4000000059605","","Was the sound coming from the left or the right?","0","","","1","INDUCTION-JUDGMENT","left","0","","","","","","","","","","","","","","","","","","","","","","","","","","",""
"html-keyboard-response","184","312539","0.0-5.0-1.0-2.4","3","0","o9389320ygmk1j0","","null","","<p style=""color:#054d00;""><b>Correct!</b></p>","","null","","","","","","","","","","","","","","","","","","","","","","","","","","","","","","","",""
"html-button-response","185","313858","0.0-5.0-1.0-3.4","3","0","o9389320ygmk1j0","","814.4000000059605","","<p>Press the button below when you are ready to continue.</p>","0","","","","","","","","","","","","","","","","","","","","","","","","","","","","","","","","",""
"audio-keyboard-response","186","316410","0.0-5.0-1.0-0.5","3","0","o9389320ygmk1j0","","null","","sounds/sentences/left_rev/14_04_cfSWS.wav","","null","","","","","","","","","","","","","","","","","","","","","","","","","","","","","","","",""
"html-button-response","187","317167","0.0-5.0-1.0-1.5","3","0","o9389320ygmk1j0","","753.7999999970198","","Was the sound coming from the left or the right?","0","","","1","INDUCTION-JUDGMENT","left","0","","","","","","","","","","","","","","","","","","","","","","","","","","",""
"html-keyboard-response","188","318174","0.0-5.0-1.0-2.5","3","0","o9389320ygmk1j0","","null","","<p style=""color:#054d00;""><b>Correct!</b></p>","","null","","","","","","","","","","","","","","","","","","","","","","","","","","","","","","","",""
"html-button-response","189","319681","0.0-5.0-1.0-3.5","3","0","o9389320ygmk1j0","","1000.9000000059605","","<p>Press the button below when you are ready to continue.</p>","0","","","","","","","","","","","","","","","","","","","","","","","","","","","","","","","","",""
"audio-keyboard-response","190","322415","0.0-5.0-1.0-0.6","3","0","o9389320ygmk1j0","","null","","sounds/sentences/right_rev/14_09_cfSWS.wav","","null","","","","","","","","","","","","","","","","","","","","","","","","","","","","","","","",""
"html-button-response","191","323150","0.0-5.0-1.0-1.6","3","0","o9389320ygmk1j0","","731","","Was the sound coming from the left or the right?","1","","","1","INDUCTION-JUDGMENT","right","1","","","","","","","","","","","","","","","","","","","","","","","","","","",""
"html-keyboard-response","192","324156","0.0-5.0-1.0-2.6","3","0","o9389320ygmk1j0","","null","","<p style=""color:#054d00;""><b>Correct!</b></p>","","null","","","","","","","","","","","","","","","","","","","","","","","","","","","","","","","",""
"html-button-response","193","325727","0.0-5.0-1.0-3.6","3","0","o9389320ygmk1j0","","1067.699999988079","","<p>Press the button below when you are ready to continue.</p>","0","","","","","","","","","","","","","","","","","","","","","","","","","","","","","","","","",""
"audio-keyboard-response","194","328474","0.0-5.0-1.0-0.7","3","0","o9389320ygmk1j0","","null","","sounds/sentences/right_rev/14_06_cfSWS.wav","","null","","","","","","","","","","","","","","","","","","","","","","","","","","","","","","","",""
"html-button-response","195","329463","0.0-5.0-1.0-1.7","3","0","o9389320ygmk1j0","","986.8999999910593","","Was the sound coming from the left or the right?","1","","","1","INDUCTION-JUDGMENT","right","1","","","","","","","","","","","","","","","","","","","","","","","","","","",""
"html-keyboard-response","196","330469","0.0-5.0-1.0-2.7","3","0","o9389320ygmk1j0","","null","","<p style=""color:#054d00;""><b>Correct!</b></p>","","null","","","","","","","","","","","","","","","","","","","","","","","","","","","","","","","",""
"html-button-response","197","331992","0.0-5.0-1.0-3.7","3","0","o9389320ygmk1j0","","1016.7999999970198","","<p>Press the button below when you are ready to continue.</p>","0","","","","","","","","","","","","","","","","","","","","","","","","","","","","","","","","",""
"audio-keyboard-response","198","334879","0.0-5.0-1.0-0.8","3","0","o9389320ygmk1j0","","null","","sounds/sentences/right_rev/14_07_cfSWS.wav","","null","","","","","","","","","","","","","","","","","","","","","","","","","","","","","","","",""
"html-button-response","199","335588","0.0-5.0-1.0-1.8","3","0","o9389320ygmk1j0","","706.7999999970198","","Was the sound coming from the left or the right?","1","","","1","INDUCTION-JUDGMENT","right","1","","","","","","","","","","","","","","","","","","","","","","","","","","",""
"html-keyboard-response","200","336593","0.0-5.0-1.0-2.8","3","0","o9389320ygmk1j0","","null","","<p style=""color:#054d00;""><b>Correct!</b></p>","","null","","","","","","","","","","","","","","","","","","","","","","","","","","","","","","","",""
"html-button-response","201","337986","0.0-5.0-1.0-3.8","3","0","o9389320ygmk1j0","","891.5","","<p>Press the button below when you are ready to continue.</p>","0","","","","","","","","","","","","","","","","","","","","","","","","","","","","","","","","",""
"audio-keyboard-response","202","341007","0.0-5.0-1.0-0.9","3","0","o9389320ygmk1j0","","null","","sounds/sentences/right_rev/14_10_cfSWS.wav","","null","","","","","","","","","","","","","","","","","","","","","","","","","","","","","","","",""
"html-button-response","203","341618","0.0-5.0-1.0-1.9","3","0","o9389320ygmk1j0","","608.5999999940395","","Was the sound coming from the left or the right?","1","","","1","INDUCTION-JUDGMENT","right","1","","","","","","","","","","","","","","","","","","","","","","","","","","",""
"html-keyboard-response","204","342621","0.0-5.0-1.0-2.9","3","0","o9389320ygmk1j0","","null","","<p style=""color:#054d00;""><b>Correct!</b></p>","","null","","","","","","","","","","","","","","","","","","","","","","","","","","","","","","","",""
"html-button-response","205","344181","0.0-5.0-1.0-3.9","3","0","o9389320ygmk1j0","","1053.4000000059605","","<p>Press the button below when you are ready to continue.</p>","0","","","","","","","","","","","","","","","","","","","","","","","","","","","","","","","","",""
"html-keyboard-response","206","376707","0.0-6.0-0.0","3","0","o9389320ygmk1j0","","32022.5","","<p>In this part of the study, you will hear sounds similar to those you just heard.</p><p>Please focus on these sounds, as you may be asked questions about them later.</p><p>Occasionally, the sounds will pause for up to two seconds. When this happens, please press SPACEBAR as quickly as you can.</br>This helps ensure that you are paying attention to the sounds.</p><p>This part of the study will take about 12 minutes to complete, and you will be given the opportunity to take a couple of short breaks every few minutes.</p><p><strong>Press SPACEBAR to begin</strong></p>","","32","","","","","","","","","","","","","","","","","","","","","","","","","","","","","","","",""
"html-keyboard-response","207","377710","0.0-6.0-1.0-0.0","3","0","o9389320ygmk1j0","","null","","<p style=""font-size: 40px;"">+</p>","","null","","","","","","","","","","","","","","","","","","","","","","","","","","","","","","","",""
"html-keyboard-response","208","562710","0.0-6.0-1.0-1.0","3","0","o9389320ygmk1j0","","null","","","","null","","","SL-TRAIN","","","0","966.8999999910593","1939","sounds/C/TRAIN/SEQ__08.mp3","4","","","","","","","","","","","","","","","","","","","","","",""
"html-button-response","209","566802","0.0-6.0-1.0-2.0","3","0","o9389320ygmk1j0","","4089.5999999940395","","<p>You may take a short break if you wish.</p>","0","","","","","","","","","","","","","","","","","","","","","","","","","","","","","","","","",""
"html-keyboard-response","210","567807","0.0-6.0-1.0-3.0","3","0","o9389320ygmk1j0","","null","","<p style=""font-size: 40px;"">+</p>","","null","","","","","","","","","","","","","","","","","","","","","","","","","","","","","","","",""
"html-keyboard-response","211","752811","0.0-6.0-1.0-4.0","3","0","o9389320ygmk1j0","","null","","","","null","","","SL-TRAIN","","","0","1494.4000000059605","1982.2000000029802","sounds/C/TRAIN/SEQ__01.mp3","10","","","","","","","","","","","","","","","","","","","","","",""
"html-button-response","212","755210","0.0-6.0-1.0-5.0","3","0","o9389320ygmk1j0","","2397.5","","<p>You may take a short break if you wish.</p>","0","","","","","","","","","","","","","","","","","","","","","","","","","","","","","","","","",""
"html-keyboard-response","213","756215","0.0-6.0-1.0-6.0","3","0","o9389320ygmk1j0","","null","","<p style=""font-size: 40px;"">+</p>","","null","","","","","","","","","","","","","","","","","","","","","","","","","","","","","","","",""
"html-keyboard-response","214","941218","0.0-6.0-1.0-7.0","3","0","o9389320ygmk1j0","","null","","","","null","","","SL-TRAIN","","","0","1772.5999999940395","1774.7999999970198","sounds/C/TRAIN/SEQ__03.mp3","17","","","","","","","","","","","","","","","","","","","","","",""
"html-button-response","215","943267","0.0-6.0-1.0-8.0","3","0","o9389320ygmk1j0","","2045.9000000059605","","<p>You may take a short break if you wish.</p>","0","","","","","","","","","","","","","","","","","","","","","","","","","","","","","","","","",""
"html-keyboard-response","216","944269","0.0-6.0-1.0-9.0","3","0","o9389320ygmk1j0","","null","","<p style=""font-size: 40px;"">+</p>","","null","","","","","","","","","","","","","","","","","","","","","","","","","","","","","","","",""
"html-keyboard-response","217","1129273","0.0-6.0-1.0-10.0","3","0","o9389320ygmk1j0","","null","","","","null","","","SL-TRAIN","","","0","1412.2999999970198","1066","sounds/C/TRAIN/SEQ__04.mp3","12","","","","","","","","","","","","","","","","","","","","","",""
"html-button-response","218","1133174","0.0-6.0-1.0-11.0","3","0","o9389320ygmk1j0","","3897.4000000059605","","<p>You may take a short break if you wish.</p>","0","","","","","","","","","","","","","","","","","","","","","","","","","","","","","","","","",""
"html-button-response","219","1146158","0.0-7.0-0.0","3","0","o9389320ygmk1j0","","12982.39999999106","","<p>Welcome to the second part of the study. This is a <u>familiarity task</u>.</p><p>You will now hear short sounds and will be asked to rate how familiar they sound to you <b>based on what you heard in the previous part of the study</b>.</p><p>You will rate 12 sounds in total.</p>","0","","","","","","","","","","","","","","","","","","","","","","","","","","","","","","","","",""
"html-keyboard-response","220","1147160","0.0-7.0-1.0-0.0","3","0","o9389320ygmk1j0","","null","","","","null","","","","","","","","","","","","","","","","","","","","","","","","","","","","","","","",""
"audio-keyboard-response","221","1148310","0.0-7.0-1.0-1.0","3","0","o9389320ygmk1j0","","null","","sounds/C/FAM/W003.mp3","","null","","","","","","","","","","","","","","","","","","","","","","","","","","","","","","","",""
"html-keyboard-response","222","1153287","0.0-7.0-1.0-2.0","3","0","o9389320ygmk1j0","","4474.20000000298","","<p>How familiar did this sound to you?</p><p>1&nbsp;&nbsp;&nbsp;&nbsp;&nbsp;&nbsp;&nbsp;&nbsp;&nbsp;&nbsp;&nbsp;&nbsp;&nbsp;&nbsp;&nbsp;&nbsp;&nbsp;&nbsp;&nbsp;2&nbsp;&nbsp;&nbsp;&nbsp;&nbsp;&nbsp;&nbsp;&nbsp;&nbsp;&nbsp;&nbsp;&nbsp;&nbsp;&nbsp;&nbsp;&nbsp;&nbsp;&nbsp;&nbsp;3&nbsp;&nbsp;&nbsp;&nbsp;&nbsp;&nbsp;&nbsp;&nbsp;&nbsp;&nbsp;&nbsp;&nbsp;&nbsp;&nbsp;&nbsp;&nbsp;&nbsp;&nbsp;&nbsp;4</p><p style=""font-size:14px"">Not at all familiar&nbsp;&nbsp;&nbsp;&nbsp;A little familiar&nbsp;&nbsp;&nbsp;Moderately familiar&nbsp;&nbsp;&nbsp;Extremely familiar</p><p>(press the corresponding number on your keyboard)</p>","","52","","","FAM-RESPONSE","","","","","","","","sounds/C/FAM/W003.mp3","word","","","","","","","","","","","","","","","","","","","",""
"html-keyboard-response","223","1155291","0.0-7.0-1.0-0.1","3","0","o9389320ygmk1j0","","null","","","","null","","","","","","","","","","","","","","","","","","","","","","","","","","","","","","","",""
"audio-keyboard-response","224","1156235","0.0-7.0-1.0-1.1","3","0","o9389320ygmk1j0","","null","","sounds/C/FAM/W004.mp3","","null","","","","","","","","","","","","","","","","","","","","","","","","","","","","","","","",""
"html-keyboard-response","225","1159123","0.0-7.0-1.0-2.1","3","0","o9389320ygmk1j0","","2386.9000000059605","","<p>How familiar did this sound to you?</p><p>1&nbsp;&nbsp;&nbsp;&nbsp;&nbsp;&nbsp;&nbsp;&nbsp;&nbsp;&nbsp;&nbsp;&nbsp;&nbsp;&nbsp;&nbsp;&nbsp;&nbsp;&nbsp;&nbsp;2&nbsp;&nbsp;&nbsp;&nbsp;&nbsp;&nbsp;&nbsp;&nbsp;&nbsp;&nbsp;&nbsp;&nbsp;&nbsp;&nbsp;&nbsp;&nbsp;&nbsp;&nbsp;&nbsp;3&nbsp;&nbsp;&nbsp;&nbsp;&nbsp;&nbsp;&nbsp;&nbsp;&nbsp;&nbsp;&nbsp;&nbsp;&nbsp;&nbsp;&nbsp;&nbsp;&nbsp;&nbsp;&nbsp;4</p><p style=""font-size:14px"">Not at all familiar&nbsp;&nbsp;&nbsp;&nbsp;A little familiar&nbsp;&nbsp;&nbsp;Moderately familiar&nbsp;&nbsp;&nbsp;Extremely familiar</p><p>(press the corresponding number on your keyboard)</p>","","52","","","FAM-RESPONSE","","","","","","","","sounds/C/FAM/W004.mp3","word","","","","","","","","","","","","","","","","","","","",""
"html-keyboard-response","226","1161132","0.0-7.0-1.0-0.2","3","0","o9389320ygmk1j0","","null","","","","null","","","","","","","","","","","","","","","","","","","","","","","","","","","","","","","",""
"audio-keyboard-response","227","1162074","0.0-7.0-1.0-1.2","3","0","o9389320ygmk1j0","","null","","sounds/C/FAM/P002.mp3","","null","","","","","","","","","","","","","","","","","","","","","","","","","","","","","","","",""
"html-keyboard-response","228","1163199","0.0-7.0-1.0-2.2","3","0","o9389320ygmk1j0","","621.3999999910593","","<p>How familiar did this sound to you?</p><p>1&nbsp;&nbsp;&nbsp;&nbsp;&nbsp;&nbsp;&nbsp;&nbsp;&nbsp;&nbsp;&nbsp;&nbsp;&nbsp;&nbsp;&nbsp;&nbsp;&nbsp;&nbsp;&nbsp;2&nbsp;&nbsp;&nbsp;&nbsp;&nbsp;&nbsp;&nbsp;&nbsp;&nbsp;&nbsp;&nbsp;&nbsp;&nbsp;&nbsp;&nbsp;&nbsp;&nbsp;&nbsp;&nbsp;3&nbsp;&nbsp;&nbsp;&nbsp;&nbsp;&nbsp;&nbsp;&nbsp;&nbsp;&nbsp;&nbsp;&nbsp;&nbsp;&nbsp;&nbsp;&nbsp;&nbsp;&nbsp;&nbsp;4</p><p style=""font-size:14px"">Not at all familiar&nbsp;&nbsp;&nbsp;&nbsp;A little familiar&nbsp;&nbsp;&nbsp;Moderately familiar&nbsp;&nbsp;&nbsp;Extremely familiar</p><p>(press the corresponding number on your keyboard)</p>","","52","","","FAM-RESPONSE","","","","","","","","sounds/C/FAM/P002.mp3","partword","","","","","","","","","","","","","","","","","","","",""
"html-keyboard-response","229","1165205","0.0-7.0-1.0-0.3","3","0","o9389320ygmk1j0","","null","","","","null","","","","","","","","","","","","","","","","","","","","","","","","","","","","","","","",""
"audio-keyboard-response","230","1166149","0.0-7.0-1.0-1.3","3","0","o9389320ygmk1j0","","null","","sounds/C/FAM/P001.mp3","","null","","","","","","","","","","","","","","","","","","","","","","","","","","","","","","","",""
"html-keyboard-response","231","1170078","0.0-7.0-1.0-2.3","3","0","o9389320ygmk1j0","","3426.5","","<p>How familiar did this sound to you?</p><p>1&nbsp;&nbsp;&nbsp;&nbsp;&nbsp;&nbsp;&nbsp;&nbsp;&nbsp;&nbsp;&nbsp;&nbsp;&nbsp;&nbsp;&nbsp;&nbsp;&nbsp;&nbsp;&nbsp;2&nbsp;&nbsp;&nbsp;&nbsp;&nbsp;&nbsp;&nbsp;&nbsp;&nbsp;&nbsp;&nbsp;&nbsp;&nbsp;&nbsp;&nbsp;&nbsp;&nbsp;&nbsp;&nbsp;3&nbsp;&nbsp;&nbsp;&nbsp;&nbsp;&nbsp;&nbsp;&nbsp;&nbsp;&nbsp;&nbsp;&nbsp;&nbsp;&nbsp;&nbsp;&nbsp;&nbsp;&nbsp;&nbsp;4</p><p style=""font-size:14px"">Not at all familiar&nbsp;&nbsp;&nbsp;&nbsp;A little familiar&nbsp;&nbsp;&nbsp;Moderately familiar&nbsp;&nbsp;&nbsp;Extremely familiar</p><p>(press the corresponding number on your keyboard)</p>","","51","","","FAM-RESPONSE","","","","","","","","sounds/C/FAM/P001.mp3","partword","","","","","","","","","","","","","","","","","","","",""
"html-keyboard-response","232","1172083","0.0-7.0-1.0-0.4","3","0","o9389320ygmk1j0","","null","","","","null","","","","","","","","","","","","","","","","","","","","","","","","","","","","","","","",""
"audio-keyboard-response","233","1173029","0.0-7.0-1.0-1.4","3","0","o9389320ygmk1j0","","null","","sounds/C/FAM/P004.mp3","","null","","","","","","","","","","","","","","","","","","","","","","","","","","","","","","","",""
"html-keyboard-response","234","1183740","0.0-7.0-1.0-2.4","3","0","o9389320ygmk1j0","","10209.40000000596","","<p>How familiar did this sound to you?</p><p>1&nbsp;&nbsp;&nbsp;&nbsp;&nbsp;&nbsp;&nbsp;&nbsp;&nbsp;&nbsp;&nbsp;&nbsp;&nbsp;&nbsp;&nbsp;&nbsp;&nbsp;&nbsp;&nbsp;2&nbsp;&nbsp;&nbsp;&nbsp;&nbsp;&nbsp;&nbsp;&nbsp;&nbsp;&nbsp;&nbsp;&nbsp;&nbsp;&nbsp;&nbsp;&nbsp;&nbsp;&nbsp;&nbsp;3&nbsp;&nbsp;&nbsp;&nbsp;&nbsp;&nbsp;&nbsp;&nbsp;&nbsp;&nbsp;&nbsp;&nbsp;&nbsp;&nbsp;&nbsp;&nbsp;&nbsp;&nbsp;&nbsp;4</p><p style=""font-size:14px"">Not at all familiar&nbsp;&nbsp;&nbsp;&nbsp;A little familiar&nbsp;&nbsp;&nbsp;Moderately familiar&nbsp;&nbsp;&nbsp;Extremely familiar</p><p>(press the corresponding number on your keyboard)</p>","","50","","","FAM-RESPONSE","","","","","","","","sounds/C/FAM/P004.mp3","partword","","","","","","","","","","","","","","","","","","","",""
"html-keyboard-response","235","1185748","0.0-7.0-1.0-0.5","3","0","o9389320ygmk1j0","","null","","","","null","","","","","","","","","","","","","","","","","","","","","","","","","","","","","","","",""
"audio-keyboard-response","236","1186693","0.0-7.0-1.0-1.5","3","0","o9389320ygmk1j0","","null","","sounds/C/FAM/N003.mp3","","null","","","","","","","","","","","","","","","","","","","","","","","","","","","","","","","",""
"html-keyboard-response","237","1187827","0.0-7.0-1.0-2.5","3","0","o9389320ygmk1j0","","630.1999999880791","","<p>How familiar did this sound to you?</p><p>1&nbsp;&nbsp;&nbsp;&nbsp;&nbsp;&nbsp;&nbsp;&nbsp;&nbsp;&nbsp;&nbsp;&nbsp;&nbsp;&nbsp;&nbsp;&nbsp;&nbsp;&nbsp;&nbsp;2&nbsp;&nbsp;&nbsp;&nbsp;&nbsp;&nbsp;&nbsp;&nbsp;&nbsp;&nbsp;&nbsp;&nbsp;&nbsp;&nbsp;&nbsp;&nbsp;&nbsp;&nbsp;&nbsp;3&nbsp;&nbsp;&nbsp;&nbsp;&nbsp;&nbsp;&nbsp;&nbsp;&nbsp;&nbsp;&nbsp;&nbsp;&nbsp;&nbsp;&nbsp;&nbsp;&nbsp;&nbsp;&nbsp;4</p><p style=""font-size:14px"">Not at all familiar&nbsp;&nbsp;&nbsp;&nbsp;A little familiar&nbsp;&nbsp;&nbsp;Moderately familiar&nbsp;&nbsp;&nbsp;Extremely familiar</p><p>(press the corresponding number on your keyboard)</p>","","50","","","FAM-RESPONSE","","","","","","","","sounds/C/FAM/N003.mp3","nonword","","","","","","","","","","","","","","","","","","","",""
"html-keyboard-response","238","1189837","0.0-7.0-1.0-0.6","3","0","o9389320ygmk1j0","","null","","","","null","","","","","","","","","","","","","","","","","","","","","","","","","","","","","","","",""
"audio-keyboard-response","239","1190778","0.0-7.0-1.0-1.6","3","0","o9389320ygmk1j0","","null","","sounds/C/FAM/N004.mp3","","null","","","","","","","","","","","","","","","","","","","","","","","","","","","","","","","",""
"html-keyboard-response","240","1191517","0.0-7.0-1.0-2.6","3","0","o9389320ygmk1j0","","236.59999999403954","","<p>How familiar did this sound to you?</p><p>1&nbsp;&nbsp;&nbsp;&nbsp;&nbsp;&nbsp;&nbsp;&nbsp;&nbsp;&nbsp;&nbsp;&nbsp;&nbsp;&nbsp;&nbsp;&nbsp;&nbsp;&nbsp;&nbsp;2&nbsp;&nbsp;&nbsp;&nbsp;&nbsp;&nbsp;&nbsp;&nbsp;&nbsp;&nbsp;&nbsp;&nbsp;&nbsp;&nbsp;&nbsp;&nbsp;&nbsp;&nbsp;&nbsp;3&nbsp;&nbsp;&nbsp;&nbsp;&nbsp;&nbsp;&nbsp;&nbsp;&nbsp;&nbsp;&nbsp;&nbsp;&nbsp;&nbsp;&nbsp;&nbsp;&nbsp;&nbsp;&nbsp;4</p><p style=""font-size:14px"">Not at all familiar&nbsp;&nbsp;&nbsp;&nbsp;A little familiar&nbsp;&nbsp;&nbsp;Moderately familiar&nbsp;&nbsp;&nbsp;Extremely familiar</p><p>(press the corresponding number on your keyboard)</p>","","51","","","FAM-RESPONSE","","","","","","","","sounds/C/FAM/N004.mp3","nonword","","","","","","","","","","","","","","","","","","","",""
"html-keyboard-response","241","1193528","0.0-7.0-1.0-0.7","3","0","o9389320ygmk1j0","","null","","","","null","","","","","","","","","","","","","","","","","","","","","","","","","","","","","","","",""
"audio-keyboard-response","242","1194468","0.0-7.0-1.0-1.7","3","0","o9389320ygmk1j0","","null","","sounds/C/FAM/W002.mp3","","null","","","","","","","","","","","","","","","","","","","","","","","","","","","","","","","",""
"html-keyboard-response","243","1195487","0.0-7.0-1.0-2.7","3","0","o9389320ygmk1j0","","514.1000000089407","","<p>How familiar did this sound to you?</p><p>1&nbsp;&nbsp;&nbsp;&nbsp;&nbsp;&nbsp;&nbsp;&nbsp;&nbsp;&nbsp;&nbsp;&nbsp;&nbsp;&nbsp;&nbsp;&nbsp;&nbsp;&nbsp;&nbsp;2&nbsp;&nbsp;&nbsp;&nbsp;&nbsp;&nbsp;&nbsp;&nbsp;&nbsp;&nbsp;&nbsp;&nbsp;&nbsp;&nbsp;&nbsp;&nbsp;&nbsp;&nbsp;&nbsp;3&nbsp;&nbsp;&nbsp;&nbsp;&nbsp;&nbsp;&nbsp;&nbsp;&nbsp;&nbsp;&nbsp;&nbsp;&nbsp;&nbsp;&nbsp;&nbsp;&nbsp;&nbsp;&nbsp;4</p><p style=""font-size:14px"">Not at all familiar&nbsp;&nbsp;&nbsp;&nbsp;A little familiar&nbsp;&nbsp;&nbsp;Moderately familiar&nbsp;&nbsp;&nbsp;Extremely familiar</p><p>(press the corresponding number on your keyboard)</p>","","52","","","FAM-RESPONSE","","","","","","","","sounds/C/FAM/W002.mp3","word","","","","","","","","","","","","","","","","","","","",""
"html-keyboard-response","244","1197495","0.0-7.0-1.0-0.8","3","0","o9389320ygmk1j0","","null","","","","null","","","","","","","","","","","","","","","","","","","","","","","","","","","","","","","",""
"audio-keyboard-response","245","1198436","0.0-7.0-1.0-1.8","3","0","o9389320ygmk1j0","","null","","sounds/C/FAM/P003.mp3","","null","","","","","","","","","","","","","","","","","","","","","","","","","","","","","","","",""
"html-keyboard-response","246","1199166","0.0-7.0-1.0-2.8","3","0","o9389320ygmk1j0","","222.8999999910593","","<p>How familiar did this sound to you?</p><p>1&nbsp;&nbsp;&nbsp;&nbsp;&nbsp;&nbsp;&nbsp;&nbsp;&nbsp;&nbsp;&nbsp;&nbsp;&nbsp;&nbsp;&nbsp;&nbsp;&nbsp;&nbsp;&nbsp;2&nbsp;&nbsp;&nbsp;&nbsp;&nbsp;&nbsp;&nbsp;&nbsp;&nbsp;&nbsp;&nbsp;&nbsp;&nbsp;&nbsp;&nbsp;&nbsp;&nbsp;&nbsp;&nbsp;3&nbsp;&nbsp;&nbsp;&nbsp;&nbsp;&nbsp;&nbsp;&nbsp;&nbsp;&nbsp;&nbsp;&nbsp;&nbsp;&nbsp;&nbsp;&nbsp;&nbsp;&nbsp;&nbsp;4</p><p style=""font-size:14px"">Not at all familiar&nbsp;&nbsp;&nbsp;&nbsp;A little familiar&nbsp;&nbsp;&nbsp;Moderately familiar&nbsp;&nbsp;&nbsp;Extremely familiar</p><p>(press the corresponding number on your keyboard)</p>","","52","","","FAM-RESPONSE","","","","","","","","sounds/C/FAM/P003.mp3","partword","","","","","","","","","","","","","","","","","","","",""
"html-keyboard-response","247","1201173","0.0-7.0-1.0-0.9","3","0","o9389320ygmk1j0","","null","","","","null","","","","","","","","","","","","","","","","","","","","","","","","","","","","","","","",""
"audio-keyboard-response","248","1202116","0.0-7.0-1.0-1.9","3","0","o9389320ygmk1j0","","null","","sounds/C/FAM/N002.mp3","","null","","","","","","","","","","","","","","","","","","","","","","","","","","","","","","","",""
"html-keyboard-response","249","1203683","0.0-7.0-1.0-2.9","3","0","o9389320ygmk1j0","","1062.3999999910593","","<p>How familiar did this sound to you?</p><p>1&nbsp;&nbsp;&nbsp;&nbsp;&nbsp;&nbsp;&nbsp;&nbsp;&nbsp;&nbsp;&nbsp;&nbsp;&nbsp;&nbsp;&nbsp;&nbsp;&nbsp;&nbsp;&nbsp;2&nbsp;&nbsp;&nbsp;&nbsp;&nbsp;&nbsp;&nbsp;&nbsp;&nbsp;&nbsp;&nbsp;&nbsp;&nbsp;&nbsp;&nbsp;&nbsp;&nbsp;&nbsp;&nbsp;3&nbsp;&nbsp;&nbsp;&nbsp;&nbsp;&nbsp;&nbsp;&nbsp;&nbsp;&nbsp;&nbsp;&nbsp;&nbsp;&nbsp;&nbsp;&nbsp;&nbsp;&nbsp;&nbsp;4</p><p style=""font-size:14px"">Not at all familiar&nbsp;&nbsp;&nbsp;&nbsp;A little familiar&nbsp;&nbsp;&nbsp;Moderately familiar&nbsp;&nbsp;&nbsp;Extremely familiar</p><p>(press the corresponding number on your keyboard)</p>","","50","","","FAM-RESPONSE","","","","","","","","sounds/C/FAM/N002.mp3","nonword","","","","","","","","","","","","","","","","","","","",""
"html-keyboard-response","250","1205687","0.0-7.0-1.0-0.10","3","0","o9389320ygmk1j0","","null","","","","null","","","","","","","","","","","","","","","","","","","","","","","","","","","","","","","",""
"audio-keyboard-response","251","1206628","0.0-7.0-1.0-1.10","3","0","o9389320ygmk1j0","","null","","sounds/C/FAM/W001.mp3","","null","","","","","","","","","","","","","","","","","","","","","","","","","","","","","","","",""
"html-keyboard-response","252","1207535","0.0-7.0-1.0-2.10","3","0","o9389320ygmk1j0","","401.59999999403954","","<p>How familiar did this sound to you?</p><p>1&nbsp;&nbsp;&nbsp;&nbsp;&nbsp;&nbsp;&nbsp;&nbsp;&nbsp;&nbsp;&nbsp;&nbsp;&nbsp;&nbsp;&nbsp;&nbsp;&nbsp;&nbsp;&nbsp;2&nbsp;&nbsp;&nbsp;&nbsp;&nbsp;&nbsp;&nbsp;&nbsp;&nbsp;&nbsp;&nbsp;&nbsp;&nbsp;&nbsp;&nbsp;&nbsp;&nbsp;&nbsp;&nbsp;3&nbsp;&nbsp;&nbsp;&nbsp;&nbsp;&nbsp;&nbsp;&nbsp;&nbsp;&nbsp;&nbsp;&nbsp;&nbsp;&nbsp;&nbsp;&nbsp;&nbsp;&nbsp;&nbsp;4</p><p style=""font-size:14px"">Not at all familiar&nbsp;&nbsp;&nbsp;&nbsp;A little familiar&nbsp;&nbsp;&nbsp;Moderately familiar&nbsp;&nbsp;&nbsp;Extremely familiar</p><p>(press the corresponding number on your keyboard)</p>","","51","","","FAM-RESPONSE","","","","","","","","sounds/C/FAM/W001.mp3","word","","","","","","","","","","","","","","","","","","","",""
"html-keyboard-response","253","1209537","0.0-7.0-1.0-0.11","3","0","o9389320ygmk1j0","","null","","","","null","","","","","","","","","","","","","","","","","","","","","","","","","","","","","","","",""
"audio-keyboard-response","254","1210479","0.0-7.0-1.0-1.11","3","0","o9389320ygmk1j0","","null","","sounds/C/FAM/N001.mp3","","null","","","","","","","","","","","","","","","","","","","","","","","","","","","","","","","",""
"html-keyboard-response","255","1211344","0.0-7.0-1.0-2.11","3","0","o9389320ygmk1j0","","362.1000000089407","","<p>How familiar did this sound to you?</p><p>1&nbsp;&nbsp;&nbsp;&nbsp;&nbsp;&nbsp;&nbsp;&nbsp;&nbsp;&nbsp;&nbsp;&nbsp;&nbsp;&nbsp;&nbsp;&nbsp;&nbsp;&nbsp;&nbsp;2&nbsp;&nbsp;&nbsp;&nbsp;&nbsp;&nbsp;&nbsp;&nbsp;&nbsp;&nbsp;&nbsp;&nbsp;&nbsp;&nbsp;&nbsp;&nbsp;&nbsp;&nbsp;&nbsp;3&nbsp;&nbsp;&nbsp;&nbsp;&nbsp;&nbsp;&nbsp;&nbsp;&nbsp;&nbsp;&nbsp;&nbsp;&nbsp;&nbsp;&nbsp;&nbsp;&nbsp;&nbsp;&nbsp;4</p><p style=""font-size:14px"">Not at all familiar&nbsp;&nbsp;&nbsp;&nbsp;A little familiar&nbsp;&nbsp;&nbsp;Moderately familiar&nbsp;&nbsp;&nbsp;Extremely familiar</p><p>(press the corresponding number on your keyboard)</p>","","52","","","FAM-RESPONSE","","","","","","","","sounds/C/FAM/N001.mp3","nonword","","","","","","","","","","","","","","","","","","","",""
"html-button-response","256","1227060","0.0-8.0-0.0","3","0","o9389320ygmk1j0","","14710.20000000298","","<p>You will now listen to longer sound sequences.</p><p>Each sound sequence will last about 16 seconds.</p><p>On each trial, you will be given a <u>TARGET SOUND</u>. Your task is to listen very carefully for this sound.</p><p>Every time you hear the <u>TARGET SOUND</u>, you will press the <b>SPACEBAR</b> as quickly and accurately as you can.</p>","0","","","","","","","","","","","","","","","","","","","","","","","","","","","","","","","","",""
"html-button-response","257","1236748","0.0-8.0-1.0","3","0","o9389320ygmk1j0","","9433.40000000596","","<p>It is very important that you make your responses as quickly and accurately as possible.</p><p>To help you make your responses, you will be able to listen to the <u>TARGET SOUND</u> at the beginning of each trial.</p><p>There will be 36 total trials.</p><p><b>Note: This is meant to be a difficult task. We simply want you to try your best.</p>","0","","","","","","","","","","","","","","","","","","","","","","","","","","","","","","","","",""
"html-button-response","258","1238736","0.0-8.0-2.0-0.0","3","0","o9389320ygmk1j0","","1729.5","","<p>Trial 1 of 36</p>","0","","","","","","","","","","","","","","GE","sounds/syllables/ge_SWS.wav","3300,5100,6900,12300","3","","","","","","","","","","","","","","","",""
"html-keyboard-response","259","1241731","0.0-8.0-2.0-1.0","3","0","o9389320ygmk1j0","","2992.9000000059605","","","","80","","","","","","","","","","","","","GE","","3300,5100,6900,12300","3","","","","","","","","","","","","","","","",""
"audio-keyboard-response","260","1242335","0.0-8.0-2.0-2.0-0.0","3","0","o9389320ygmk1j0","","null","","sounds/syllables/ge_SWS.wav","","null","","","","","","","","","","","","","","","","","","","","","","","","","","","","","","","",""
"html-keyboard-response","261","1245140","0.0-8.0-2.0-2.0-1.0","3","0","o9389320ygmk1j0","","2803.3999999910593","","<p>To replay the <u>TARGET SOUND</u>, press P.</p> When you are ready to begin, press SPACEBAR.","","80","","","","","","","","","","","","","","","","","","","","","","","","","","","","","","","",""
"audio-keyboard-response","262","1245946","0.0-8.0-2.0-2.1-0.1","3","0","o9389320ygmk1j0","","null","","sounds/syllables/ge_SWS.wav","","null","","","","","","","","","","","","","","","","","","","","","","","","","","","","","","","",""
"html-keyboard-response","263","1246687","0.0-8.0-2.0-2.1-1.1","3","0","o9389320ygmk1j0","","740.2000000029802","","<p>To replay the <u>TARGET SOUND</u>, press P.</p> When you are ready to begin, press SPACEBAR.","","32","","","","","","","","","","","","","","","","","","","","","","","","","","","","","","","",""
"audio-keyboard-response","264","1261637","0.0-8.0-2.0-3.0","3","0","o9389320ygmk1j0","","661","","sounds/C/TD/GE_09_TD.mp3","","32","","","TD_SUMMARY","","","","","","","","","","GE","","3300,5100,6900,12300","3","3300","5100","6900","12300","385.30000001192093","620.6000000089407","885.3000000119209","740.3000000119209","665.3000000119209_986.8000000119209_2557.9000000059605_3338.7000000029802_3685.300000011921_5054.70000000298_5427_5720.600000008941_6919.9000000059605_7110.800000011921_7595.800000011921_7785.300000011921_8275.10000000894_9475.800000011921_9844.800000011921_10030.800000011921_11887.90000000596_12334.40000000596_13040.300000011921","2","","","","","",""
"html-button-response","265","1262983","0.0-8.0-2.0-0.1","3","0","o9389320ygmk1j0","","1341.5","","<p>Trial 2 of 36</p>","0","","","","","","","","","","","","","","NI","sounds/syllables/ni_SWS.wav","900,3600,6300,9900","1","","","","","","","","","","","","","","","",""
"html-keyboard-response","266","1264377","0.0-8.0-2.0-1.1","3","0","o9389320ygmk1j0","","1392.5999999940395","","","","80","","","","","","","","","","","","","NI","","900,3600,6300,9900","1","","","","","","","","","","","","","","","",""
"audio-keyboard-response","267","1264681","0.0-8.0-2.0-2.2-0.2","3","0","o9389320ygmk1j0","","null","","sounds/syllables/ni_SWS.wav","","null","","","","","","","","","","","","","","","","","","","","","","","","","","","","","","","",""
"html-keyboard-response","268","1265634","0.0-8.0-2.0-2.2-1.2","3","0","o9389320ygmk1j0","","951.7999999970198","","<p>To replay the <u>TARGET SOUND</u>, press P.</p> When you are ready to begin, press SPACEBAR.","","32","","","","","","","","","","","","","","","","","","","","","","","","","","","","","","","",""
"audio-keyboard-response","269","1280586","0.0-8.0-2.0-3.1","3","0","o9389320ygmk1j0","","603","","sounds/C/TD/NI_02_TD.mp3","","32","","","TD_SUMMARY","","","","","","","","","","NI","","900,3600,6300,9900","1","900","3600","6300","9900","745.8999999910593","665.1999999880791","698.1999999880791","498.69999998807907","___________________605.7999999970198_1645.8999999910593_3821.5999999940395_4265.199999988079_5458.399999991059_6808.0999999940395_6998.199999988079_8344.79999999702_9385_10398.699999988079_12833.199999988079_14002.59999999404","1","","","","","",""
"html-button-response","270","1281564","0.0-8.0-2.0-0.2","3","0","o9389320ygmk1j0","","974.5999999940395","","<p>Trial 3 of 36</p>","0","","","","","","","","","","","","","","KO","sounds/syllables/ko_SWS.wav","1800,3600,8100,10800","1","","","","","","","","","","","","","","","",""
"html-keyboard-response","271","1283158","0.0-8.0-2.0-1.2","3","0","o9389320ygmk1j0","","1592.9000000059605","","","","80","","","","","","","","","","","","","KO","","1800,3600,8100,10800","1","","","","","","","","","","","","","","","",""
"audio-keyboard-response","272","1283460","0.0-8.0-2.0-2.3-0.3","3","0","o9389320ygmk1j0","","null","","sounds/syllables/ko_SWS.wav","","null","","","","","","","","","","","","","","","","","","","","","","","","","","","","","","","",""
"html-keyboard-response","273","1284182","0.0-8.0-2.0-2.3-1.3","3","0","o9389320ygmk1j0","","721.2999999970198","","<p>To replay the <u>TARGET SOUND</u>, press P.</p> When you are ready to begin, press SPACEBAR.","","32","","","","","","","","","","","","","","","","","","","","","","","","","","","","","","","",""
"audio-keyboard-response","274","1299129","0.0-8.0-2.0-3.2","3","0","o9389320ygmk1j0","","2064","","sounds/C/TD/KO_02_TD.mp3","","32","","","TD_SUMMARY","","","","","","","","","","KO","","1800,3600,8100,10800","1","1800","3600","8100","10800","1043.699999988079","682.0999999940395","979.2999999970198","659.0999999940395","_______________________________2061.0999999940395_2843.699999988079_4282.0999999940395_6558.399999991059_8391.39999999106_9079.29999999702_10430.09999999404_11459.09999999404_12922.699999988079","1","","","","","",""
"html-button-response","275","1300310","0.0-8.0-2.0-0.3","3","0","o9389320ygmk1j0","","1177.5","","<p>Trial 4 of 36</p>","0","","","","","","","","","","","","","","TA","sounds/syllables/ta_SWS.wav","5700,8400,10200,12000","2","","","","","","","","","","","","","","","",""
"html-keyboard-response","276","1302415","0.0-8.0-2.0-1.3","3","0","o9389320ygmk1j0","","2103.7999999970198","","","","80","","","","","","","","","","","","","TA","","5700,8400,10200,12000","2","","","","","","","","","","","","","","","",""
"audio-keyboard-response","277","1302718","0.0-8.0-2.0-2.4-0.4","3","0","o9389320ygmk1j0","","null","","sounds/syllables/ta_SWS.wav","","null","","","","","","","","","","","","","","","","","","","","","","","","","","","","","","","",""
"html-keyboard-response","278","1303585","0.0-8.0-2.0-2.4-1.4","3","0","o9389320ygmk1j0","","865.5999999940395","","<p>To replay the <u>TARGET SOUND</u>, press P.</p> When you are ready to begin, press SPACEBAR.","","32","","","","","","","","","","","","","","","","","","","","","","","","","","","","","","","",""
"audio-keyboard-response","279","1318537","0.0-8.0-2.0-3.3","3","0","o9389320ygmk1j0","","1184","","sounds/C/TD/TA_03_TD.mp3","","32","","","TD_SUMMARY","","","","","","","","","","TA","","5700,8400,10200,12000","2","5700","8400","10200","12000","415.19999998807907","1127.0999999940395","675.0999999940395","1002.5","________________________________________1185.2999999970198_2975.5_4060.3999999910593_6115.199999988079_9028.699999988079_9527.09999999404_10875.09999999404_12236.699999988079_13002.5_13770.79999999702","1","","","","","",""
"html-button-response","280","1319600","0.0-8.0-2.0-0.4","3","0","o9389320ygmk1j0","","1059.5999999940395","","<p>Trial 5 of 36</p>","0","","","","","","","","","","","","","","FU","sounds/syllables/fu_SWS.wav","3300,6000,8700,10500","3","","","","","","","","","","","","","","","",""
"html-keyboard-response","281","1322503","0.0-8.0-2.0-1.4","3","0","o9389320ygmk1j0","","2900","","","","80","","","","","","","","","","","","","FU","","3300,6000,8700,10500","3","","","","","","","","","","","","","","","",""
"audio-keyboard-response","282","1322803","0.0-8.0-2.0-2.5-0.5","3","0","o9389320ygmk1j0","","null","","sounds/syllables/fu_SWS.wav","","null","","","","","","","","","","","","","","","","","","","","","","","","","","","","","","","",""
"html-keyboard-response","283","1323781","0.0-8.0-2.0-2.5-1.5","3","0","o9389320ygmk1j0","","976.9000000059605","","<p>To replay the <u>TARGET SOUND</u>, press P.</p> When you are ready to begin, press SPACEBAR.","","32","","","","","","","","","","","","","","","","","","","","","","","","","","","","","","","",""
"audio-keyboard-response","284","1338728","0.0-8.0-2.0-3.4","3","0","o9389320ygmk1j0","","3269","","sounds/C/TD/FU_04_TD.mp3","","32","","","TD_SUMMARY","","","","","","","","","","FU","","3300,6000,8700,10500","3","3300","6000","8700","10500","871","804","null","null","__________________________________________________3266.9000000059605_4171_6804_7407.20000000298_10563.20000000298","1","","","","","",""
"html-button-response","285","1340409","0.0-8.0-2.0-0.5","3","0","o9389320ygmk1j0","","1676.800000011921","","<p>Trial 6 of 36</p>","0","","","","","","","","","","","","","","NI","sounds/syllables/ni_SWS.wav","900,2700,8100,12600","1","","","","","","","","","","","","","","","",""
"html-keyboard-response","286","1344517","0.0-8.0-2.0-1.5","3","0","o9389320ygmk1j0","","4106.20000000298","","","","80","","","","","","","","","","","","","NI","","900,2700,8100,12600","1","","","","","","","","","","","","","","","",""
"audio-keyboard-response","287","1344818","0.0-8.0-2.0-2.6-0.6","3","0","o9389320ygmk1j0","","null","","sounds/syllables/ni_SWS.wav","","null","","","","","","","","","","","","","","","","","","","","","","","","","","","","","","","",""
"html-keyboard-response","288","1345852","0.0-8.0-2.0-2.6-1.6","3","0","o9389320ygmk1j0","","1032.5999999940395","","<p>To replay the <u>TARGET SOUND</u>, press P.</p> When you are ready to begin, press SPACEBAR.","","32","","","","","","","","","","","","","","","","","","","","","","","","","","","","","","","",""
"audio-keyboard-response","289","1360797","0.0-8.0-2.0-3.5","3","0","o9389320ygmk1j0","","1403","","sounds/C/TD/NI_08_TD.mp3","","32","","","TD_SUMMARY","","","","","","","","","","NI","","900,2700,8100,12600","1","900","2700","8100","12600","499.59999999403954","702.4000000059605","890.5","null","_______________________________________________________1399.5999999940395_2959_3402.4000000059605_4565.70000000298_6505.20000000298_8711.09999999404_8990.5_10969.90000000596","1","","","","","",""
"html-button-response","290","1362204","0.0-8.0-2.0-0.6","3","0","o9389320ygmk1j0","","1403.5","","<p>Trial 7 of 36</p>","0","","","","","","","","","","","","","","TI","sounds/syllables/ti_SWS.wav","1500,3300,10500,13200","3","","","","","","","","","","","","","","","",""
"html-keyboard-response","291","1578871","0.0-8.0-2.0-1.6","3","0","o9389320ygmk1j0","","216669.89999999106","","","","80","","","","","","","","","","","","","TI","","1500,3300,10500,13200","3","","","","","","","","","","","","","","","",""
"audio-keyboard-response","292","1579423","0.0-8.0-2.0-2.7-0.7","3","0","o9389320ygmk1j0","","null","","sounds/syllables/ti_SWS.wav","","null","","","","","","","","","","","","","","","","","","","","","","","","","","","","","","","",""
"html-keyboard-response","293","1580315","0.0-8.0-2.0-2.7-1.7","3","0","o9389320ygmk1j0","","891.7000000029802","","<p>To replay the <u>TARGET SOUND</u>, press P.</p> When you are ready to begin, press SPACEBAR.","","32","","","","","","","","","","","","","","","","","","","","","","","","","","","","","","","",""
"audio-keyboard-response","294","1595263","0.0-8.0-2.0-3.6","3","0","o9389320ygmk1j0","","1557","","sounds/C/TD/TI_01_TD.mp3","","32","","","TD_SUMMARY","","","","","","","","","","TI","","1500,3300,10500,13200","3","1500","3300","10500","13200","867.0999999940395","817.5","1141.0999999940395","823.8999999910593","_______________________________________________________________1560_1871.5_2176.7999999970198_2367.0999999940395_3577.2000000029802_3900.2000000029802_4117.5_6047.29999999702_6544_7023.20000000298_7549_8030.5_8805.79999999702_11145.29999999702_11419.20000000298_11641.09999999404_13846.20000000298_14023.89999999106","1","","","","","",""
"html-button-response","295","1597244","0.0-8.0-2.0-0.7","3","0","o9389320ygmk1j0","","1976.9000000059605","","<p>Trial 8 of 36</p>","0","","","","","","","","","","","","","","ME","sounds/syllables/me_SWS.wav","1800,4500,6300,9000","1","","","","","","","","","","","","","","","",""
"html-keyboard-response","296","1600196","0.0-8.0-2.0-1.7","3","0","o9389320ygmk1j0","","2951","","","","80","","","","","","","","","","","","","ME","","1800,4500,6300,9000","1","","","","","","","","","","","","","","","",""
"audio-keyboard-response","297","1600500","0.0-8.0-2.0-2.8-0.8","3","0","o9389320ygmk1j0","","null","","sounds/syllables/me_SWS.wav","","null","","","","","","","","","","","","","","","","","","","","","","","","","","","","","","","",""
"html-keyboard-response","298","1601747","0.0-8.0-2.0-2.8-1.8","3","0","o9389320ygmk1j0","","1246.0999999940395","","<p>To replay the <u>TARGET SOUND</u>, press P.</p> When you are ready to begin, press SPACEBAR.","","32","","","","","","","","","","","","","","","","","","","","","","","","","","","","","","","",""
"audio-keyboard-response","299","1616697","0.0-8.0-2.0-3.7","3","0","o9389320ygmk1j0","","2299","","sounds/C/TD/ME_06_TD.mp3","","32","","","TD_SUMMARY","","","","","","","","","","ME","","1800,4500,6300,9000","1","1800","4500","6300","9000","730.5","979.4000000059605","935.7999999970198","1183.5","_________________________________________________________________________________2300.6000000089407_2530.5_3498.9000000059605_3731.7000000029802_5235.79999999702_5479.4000000059605_7038.4000000059605_7235.79999999702_9069.79999999702_9591.20000000298_9776.90000000596_10183.5_11762.90000000596_13264.5_13608.60000000894","1","","","","","",""
"html-button-response","300","1617685","0.0-8.0-2.0-0.8","3","0","o9389320ygmk1j0","","982.2000000029802","","<p>Trial 9 of 36</p>","0","","","","","","","","","","","","","","RE","sounds/syllables/re_SWS.wav","1200,3900,7500,12900","2","","","","","","","","","","","","","","","",""
"html-keyboard-response","301","1619860","0.0-8.0-2.0-1.8","3","0","o9389320ygmk1j0","","2173.1000000089407","","","","80","","","","","","","","","","","","","RE","","1200,3900,7500,12900","2","","","","","","","","","","","","","","","",""
"audio-keyboard-response","302","1620163","0.0-8.0-2.0-2.9-0.9","3","0","o9389320ygmk1j0","","null","","sounds/syllables/re_SWS.wav","","null","","","","","","","","","","","","","","","","","","","","","","","","","","","","","","","",""
"html-keyboard-response","303","1620647","0.0-8.0-2.0-2.9-1.9","3","0","o9389320ygmk1j0","","482.69999998807907","","<p>To replay the <u>TARGET SOUND</u>, press P.</p> When you are ready to begin, press SPACEBAR.","","32","","","","","","","","","","","","","","","","","","","","","","","","","","","","","","","",""
"audio-keyboard-response","304","1635593","0.0-8.0-2.0-3.8","3","0","o9389320ygmk1j0","","336","","sounds/C/TD/RE_08_TD.mp3","","32","","","TD_SUMMARY","","","","","","","","","","RE","","1200,3900,7500,12900","2","1200","3900","7500","12900","544.8999999910593","795.7000000029802","860.2999999970198","819.2999999970198","________________________________________________________________________________________________334.29999999701977_893.2000000029802_1105.7999999970198_1536.2999999970198_1744.8999999910593_4045.7999999970198_4236.29999999702_4695.70000000298_8153.70000000298_8360.29999999702_8725.20000000298_9374.20000000298_9840.79999999702_10901.79999999702_11068_12089.70000000298_12316.39999999106_13363.79999999702_13719.29999999702","1","","","","","",""
"html-button-response","305","1643831","0.0-8.0-2.0-0.9","3","0","o9389320ygmk1j0","","8235","","<p>Trial 10 of 36</p>","0","","","","","","","","","","","","","","ME","sounds/syllables/me_SWS.wav","900,6300,8100,9900","1","","","","","","","","","","","","","","","",""
"html-keyboard-response","306","1647362","0.0-8.0-2.0-1.9","3","0","o9389320ygmk1j0","","3528.5","","","","80","","","","","","","","","","","","","ME","","900,6300,8100,9900","1","","","","","","","","","","","","","","","",""
"audio-keyboard-response","307","1647667","0.0-8.0-2.0-2.10-0.10","3","0","o9389320ygmk1j0","","null","","sounds/syllables/me_SWS.wav","","null","","","","","","","","","","","","","","","","","","","","","","","","","","","","","","","",""
"html-keyboard-response","308","1648954","0.0-8.0-2.0-2.10-1.10","3","0","o9389320ygmk1j0","","1286.5999999940395","","<p>To replay the <u>TARGET SOUND</u>, press P.</p> When you are ready to begin, press SPACEBAR.","","32","","","","","","","","","","","","","","","","","","","","","","","","","","","","","","","",""
"audio-keyboard-response","309","1663907","0.0-8.0-2.0-3.9","3","0","o9389320ygmk1j0","","1632","","sounds/C/TD/ME_07_TD.mp3","","32","","","TD_SUMMARY","","","","","","","","","","ME","","900,6300,8100,9900","1","900","6300","8100","9900","1106.2999999970198","822.3999999910593","1004.0999999940395","1149.3999999910593","___________________________________________________________________________________________________________________1636.2000000029802_2006.2999999970198_3711.8999999910593_4242.0999999940395_4708.5_5038.5999999940395_6768.0999999940395_7122.399999991059_8593.09999999404_8880.29999999702_9104.09999999404_10775.59999999404_11049.39999999106","1","","","","","",""
"html-button-response","310","1665358","0.0-8.0-2.0-0.10","3","0","o9389320ygmk1j0","","1447.2999999970198","","<p>Trial 11 of 36</p>","0","","","","","","","","","","","","","","FU","sounds/syllables/fu_SWS.wav","2400,6000,7800,10500","3","","","","","","","","","","","","","","","",""
"html-keyboard-response","311","1667757","0.0-8.0-2.0-1.10","3","0","o9389320ygmk1j0","","2397.4000000059605","","","","80","","","","","","","","","","","","","FU","","2400,6000,7800,10500","3","","","","","","","","","","","","","","","",""
"audio-keyboard-response","312","1668061","0.0-8.0-2.0-2.11-0.11","3","0","o9389320ygmk1j0","","null","","sounds/syllables/fu_SWS.wav","","null","","","","","","","","","","","","","","","","","","","","","","","","","","","","","","","",""
"html-keyboard-response","313","1670868","0.0-8.0-2.0-2.11-1.11","3","0","o9389320ygmk1j0","","2805.6000000089407","","<p>To replay the <u>TARGET SOUND</u>, press P.</p> When you are ready to begin, press SPACEBAR.","","32","","","","","","","","","","","","","","","","","","","","","","","","","","","","","","","",""
"audio-keyboard-response","314","1685816","0.0-8.0-2.0-3.10","3","0","o9389320ygmk1j0","","2187","","sounds/C/TD/FU_08_TD.mp3","","32","","","TD_SUMMARY","","","","","","","","","","FU","","2400,6000,7800,10500","3","2400","6000","7800","10500","983.7000000029802","null","null","null","________________________________________________________________________________________________________________________________2185.7000000029802_2993.7999999970198_3383.7000000029802_4674.20000000298_5210.4000000059605_5389.600000008941_7717.9000000059605_7999.20000000298_9360.5_9714.90000000596_11718.10000000894_11994.70000000298_12439.29999999702_13135.40000000596","1","","","","","",""
"html-button-response","315","1687775","0.0-8.0-2.0-0.11","3","0","o9389320ygmk1j0","","1955.4000000059605","","<p>Trial 12 of 36</p>","0","","","","","","","","","","","","","","FE","sounds/syllables/fe_SWS.wav","3900,6600,9300,12900","2","","","","","","","","","","","","","","","",""
"html-keyboard-response","316","1689955","0.0-8.0-2.0-1.11","3","0","o9389320ygmk1j0","","2178.2999999970198","","","","80","","","","","","","","","","","","","FE","","3900,6600,9300,12900","2","","","","","","","","","","","","","","","",""
"audio-keyboard-response","317","1690258","0.0-8.0-2.0-2.12-0.12","3","0","o9389320ygmk1j0","","null","","sounds/syllables/fe_SWS.wav","","null","","","","","","","","","","","","","","","","","","","","","","","","","","","","","","","",""
"html-keyboard-response","318","1691664","0.0-8.0-2.0-2.12-1.12","3","0","o9389320ygmk1j0","","1405.199999988079","","<p>To replay the <u>TARGET SOUND</u>, press P.</p> When you are ready to begin, press SPACEBAR.","","32","","","","","","","","","","","","","","","","","","","","","","","","","","","","","","","",""
"audio-keyboard-response","319","1706610","0.0-8.0-2.0-3.11","3","0","o9389320ygmk1j0","","2469","","sounds/C/TD/FE_08_TD.mp3","","32","","","TD_SUMMARY","","","","","","","","","","FE","","3900,6600,9300,12900","2","3900","6600","9300","12900","921.3999999910593","201.8999999910593","997","774.0999999940395","______________________________________________________________________________________________________________________________________________2466.2999999970198_2977.3999999910593_4558.20000000298_4821.399999991059_5742.899999991059_5955.70000000298_6801.899999991059_10297_13674.09999999404","1","","","","","",""
"html-button-response","320","1708472","0.0-8.0-2.0-0.12","3","0","o9389320ygmk1j0","","1858.4000000059605","","<p>Trial 13 of 36</p>","0","","","","","","","","","","","","","","PU","sounds/syllables/pu_SWS.wav","1500,5100,9600,13200","3","","","","","","","","","","","","","","","",""
"html-keyboard-response","321","1710416","0.0-8.0-2.0-1.12","3","0","o9389320ygmk1j0","","1942.7000000029802","","","","80","","","","","","","","","","","","","PU","","1500,5100,9600,13200","3","","","","","","","","","","","","","","","",""
"audio-keyboard-response","322","1710716","0.0-8.0-2.0-2.13-0.13","3","0","o9389320ygmk1j0","","null","","sounds/syllables/pu_SWS.wav","","null","","","","","","","","","","","","","","","","","","","","","","","","","","","","","","","",""
"html-keyboard-response","323","1711973","0.0-8.0-2.0-2.13-1.13","3","0","o9389320ygmk1j0","","1255.9000000059605","","<p>To replay the <u>TARGET SOUND</u>, press P.</p> When you are ready to begin, press SPACEBAR.","","32","","","","","","","","","","","","","","","","","","","","","","","","","","","","","","","",""
"audio-keyboard-response","324","1726919","0.0-8.0-2.0-3.12","3","0","o9389320ygmk1j0","","1493","","sounds/C/TD/PU_07_TD.mp3","","32","","","TD_SUMMARY","","","","","","","","","","PU","","1500,5100,9600,13200","3","1500","5100","9600","13200","873.9000000059605","null","null","null","_______________________________________________________________________________________________________________________________________________________1493.9000000059605_2373.9000000059605_4959.0999999940395_6697.79999999702_8984.40000000596_12347.5","1","","","","","",""
"html-button-response","325","1728246","0.0-8.0-2.0-0.13","3","0","o9389320ygmk1j0","","1323.8999999910593","","<p>Trial 14 of 36</p>","0","","","","","","","","","","","","","","SU","sounds/syllables/su_SWS.wav","900,5400,8100,11700","1","","","","","","","","","","","","","","","",""
"html-keyboard-response","326","1729387","0.0-8.0-2.0-1.13","3","0","o9389320ygmk1j0","","1139.2999999970198","","","","80","","","","","","","","","","","","","SU","","900,5400,8100,11700","1","","","","","","","","","","","","","","","",""
"audio-keyboard-response","327","1729692","0.0-8.0-2.0-2.14-0.14","3","0","o9389320ygmk1j0","","null","","sounds/syllables/su_SWS.wav","","null","","","","","","","","","","","","","","","","","","","","","","","","","","","","","","","",""
"html-keyboard-response","328","1730662","0.0-8.0-2.0-2.14-1.14","3","0","o9389320ygmk1j0","","969.7000000029802","","<p>To replay the <u>TARGET SOUND</u>, press P.</p> When you are ready to begin, press SPACEBAR.","","32","","","","","","","","","","","","","","","","","","","","","","","","","","","","","","","",""
