"trial_type","trial_index","time_elapsed","internal_node_id","counterbalance","lang_instruct","ParticipantID","view_history","rt","url","stimulus","button_pressed","key_press","correctRESP","correct","designation","location","correctanswer","timeouts","pause_rt01","pause_rt02","train_file","numKeyPress","sound","fam_type","SYLLABLE","EXEMPLAR","TD_LOCS","TD_TYPE","TDLOC_01","TDLOC_02","TDLOC_03","TDLOC_04","TD_RT_01","TD_RT_02","TD_RT_03","TD_RT_04","TD_SUBJ_RTs","number_of_plays","responses","slider_start","response","question_order","syllable","syllable_type"
"pavlovia","0","4","0.0-0.0","3","0","jm9zsy8l03dovvk","","","","","","","","","","","","","","","","","","","","","","","","","","","","","","","","","","","","","",""
"instructions","1","142824","0.0-1.0","3","0","jm9zsy8l03dovvk","[{""page_index"":0,""viewing_time"":10694.899999976158},{""page_index"":1,""viewing_time"":132118.10000002384}]","142814.89999997616","","","","","","","","","","","","","","","","","","","","","","","","","","","","","","","","","","","",""
"external-html","2","171996","0.0-2.0","3","0","jm9zsy8l03dovvk","","28728.5","consent/consent.html","","","","","","","","","","","","","","","","","","","","","","","","","","","","","","","","","","",""
"html-button-response","3","234772","0.0-3.0-0.0-0.0","3","0","jm9zsy8l03dovvk","","62770.60000002384","","<p>Welcome to the study. You will first complete a short volume calibration and headphone check.</p><p>Please make sure you are in a quiet listening environment, that you are wearing headphones, and that your computer's volume is turned on.<p></p>","0","","","","","","","","","","","","","","","","","","","","","","","","","","","","","","","","",""
"html-button-response","4","239528","0.0-3.0-0.0-1.0","3","0","jm9zsy8l03dovvk","","4499","","<p>The volume calibration will be first.</p><p>You will hear a thirty-second noise. Please adjust your computer's volume so that this noise is being presented at a comfortable level.<p></p>","0","","","","","","","","","","","","","","","","","","","","","","","","","","","","","","","","",""
"audio-button-response","5","260598","0.0-3.0-0.0-2.0","3","0","jm9zsy8l03dovvk","","20428","","audCalib/volumetest.mp3","0","","","","","","","","","","","","","","","","","","","","","","","","","","","","","","","","",""
"html-button-response","6","270108","0.0-3.0-1.0-0.0","3","0","jm9zsy8l03dovvk","","9508.299999952316","","<p>You will now complete a short headphone check.</p><p>On each trial, you will hear three tones. One of these tones will be quieter than the others. Your task is to identify whether the quiet tone occured first, second, or third.</p><p>There are six trials in total.<p></p>","0","","","","","","","","","","","","","","","","","","","","","","","","","","","","","","","","",""
"html-keyboard-response","7","270867","0.0-3.0-1.0-1.0-0.0","3","0","jm9zsy8l03dovvk","","null","","<div style=""font-size:60px;"">+</div>","","null","","","","","","","","","","","","","","","","","","","","","","","","","","","","","","","",""
"audio-button-response","8","276793","0.0-3.0-1.0-1.0-1.0","3","0","jm9zsy8l03dovvk","","5927","","audCalib/t2_1.mp3","1","","1","1","headphone-test","","","","","","","","","","","","","","","","","","","","","","","","","","","","",""
"html-keyboard-response","9","277551","0.0-3.0-1.0-1.0-0.1","3","0","jm9zsy8l03dovvk","","null","","<div style=""font-size:60px;"">+</div>","","null","","","","","","","","","","","","","","","","","","","","","","","","","","","","","","","",""
"audio-button-response","10","293543","0.0-3.0-1.0-1.0-1.1","3","0","jm9zsy8l03dovvk","","15987","","audCalib/t1_2.mp3","0","","0","1","headphone-test","","","","","","","","","","","","","","","","","","","","","","","","","","","","",""
"html-keyboard-response","11","294301","0.0-3.0-1.0-1.0-0.2","3","0","jm9zsy8l03dovvk","","null","","<div style=""font-size:60px;"">+</div>","","null","","","","","","","","","","","","","","","","","","","","","","","","","","","","","","","",""
"audio-button-response","12","299135","0.0-3.0-1.0-1.0-1.2","3","0","jm9zsy8l03dovvk","","4830","","audCalib/t3_2.mp3","2","","2","1","headphone-test","","","","","","","","","","","","","","","","","","","","","","","","","","","","",""
"html-keyboard-response","13","299890","0.0-3.0-1.0-1.0-0.3","3","0","jm9zsy8l03dovvk","","null","","<div style=""font-size:60px;"">+</div>","","null","","","","","","","","","","","","","","","","","","","","","","","","","","","","","","","",""
"audio-button-response","14","305231","0.0-3.0-1.0-1.0-1.3","3","0","jm9zsy8l03dovvk","","5341","","audCalib/t1_1.mp3","0","","0","1","headphone-test","","","","","","","","","","","","","","","","","","","","","","","","","","","","",""
"html-keyboard-response","15","305989","0.0-3.0-1.0-1.0-0.4","3","0","jm9zsy8l03dovvk","","null","","<div style=""font-size:60px;"">+</div>","","null","","","","","","","","","","","","","","","","","","","","","","","","","","","","","","","",""
"audio-button-response","16","310988","0.0-3.0-1.0-1.0-1.4","3","0","jm9zsy8l03dovvk","","4998","","audCalib/t3_1.mp3","2","","2","1","headphone-test","","","","","","","","","","","","","","","","","","","","","","","","","","","","",""
"html-keyboard-response","17","311746","0.0-3.0-1.0-1.0-0.5","3","0","jm9zsy8l03dovvk","","null","","<div style=""font-size:60px;"">+</div>","","null","","","","","","","","","","","","","","","","","","","","","","","","","","","","","","","",""
"audio-button-response","18","316329","0.0-3.0-1.0-1.0-1.5","3","0","jm9zsy8l03dovvk","","4580","","audCalib/t2_2.mp3","1","","1","1","headphone-test","","","","","","","","","","","","","","","","","","","","","","","","","","","","",""
"html-button-response","19","319271","0.0-3.0-2.0","3","0","jm9zsy8l03dovvk","","2687.899999976158","","<p>The volume calibration and headphone check are now complete.</p>","0","","","","","","","","","","","","","","","","","","","","","","","","","","","","","","","","",""
"instructions","20","341663","0.0-4.0-0.0","3","0","jm9zsy8l03dovvk","[{""page_index"":0,""viewing_time"":2061.600000023842},{""page_index"":1,""viewing_time"":16840.600000023842},{""page_index"":2,""viewing_time"":3488.6999999284744}]","22391","","","","","","","","","","","","","","","","","","","","","","","","","","","","","","","","","","","",""
"audio-keyboard-response","21","341962","0.0-4.0-1.0-0.0","3","0","jm9zsy8l03dovvk","","null","","sounds/induction/right_rev/ko_SWS.wav","","null","","","","","","","","","","","","","","","","","","","","","","","","","","","","","","","",""
"html-button-response","22","343378","0.0-4.0-1.0-1.0","3","0","jm9zsy8l03dovvk","","1414.7000000476837","","Was the sound coming from the left or the right?","1","","","1","INDUCTION-JUDGMENT","right","1","","","","","","","","","","","","","","","","","","","","","","","","","","",""
"html-keyboard-response","23","344381","0.0-4.0-1.0-2.0","3","0","jm9zsy8l03dovvk","","null","","<p style=""color:#054d00;""><b>Correct!</b></p>","","null","","","","","","","","","","","","","","","","","","","","","","","","","","","","","","","",""
"audio-keyboard-response","24","345182","0.0-4.0-1.0-0.1","3","0","jm9zsy8l03dovvk","","null","","sounds/induction/left_rev/pu_SWS.wav","","null","","","","","","","","","","","","","","","","","","","","","","","","","","","","","","","",""
"html-button-response","25","347279","0.0-4.0-1.0-1.1","3","0","jm9zsy8l03dovvk","","2095.2999999523163","","Was the sound coming from the left or the right?","0","","","1","INDUCTION-JUDGMENT","left","0","","","","","","","","","","","","","","","","","","","","","","","","","","",""
"html-keyboard-response","26","348282","0.0-4.0-1.0-2.1","3","0","jm9zsy8l03dovvk","","null","","<p style=""color:#054d00;""><b>Correct!</b></p>","","null","","","","","","","","","","","","","","","","","","","","","","","","","","","","","","","",""
"audio-keyboard-response","27","349092","0.0-4.0-1.0-0.2","3","0","jm9zsy8l03dovvk","","null","","sounds/induction/right_rev/pu_SWS.wav","","null","","","","","","","","","","","","","","","","","","","","","","","","","","","","","","","",""
"html-button-response","28","350458","0.0-4.0-1.0-1.2","3","0","jm9zsy8l03dovvk","","1365.6000000238419","","Was the sound coming from the left or the right?","1","","","1","INDUCTION-JUDGMENT","right","1","","","","","","","","","","","","","","","","","","","","","","","","","","",""
"html-keyboard-response","29","351461","0.0-4.0-1.0-2.2","3","0","jm9zsy8l03dovvk","","null","","<p style=""color:#054d00;""><b>Correct!</b></p>","","null","","","","","","","","","","","","","","","","","","","","","","","","","","","","","","","",""
"audio-keyboard-response","30","352261","0.0-4.0-1.0-0.3","3","0","jm9zsy8l03dovvk","","null","","sounds/induction/right_rev/fe_SWS.wav","","null","","","","","","","","","","","","","","","","","","","","","","","","","","","","","","","",""
"html-button-response","31","353566","0.0-4.0-1.0-1.3","3","0","jm9zsy8l03dovvk","","1303.6000000238419","","Was the sound coming from the left or the right?","1","","","1","INDUCTION-JUDGMENT","right","1","","","","","","","","","","","","","","","","","","","","","","","","","","",""
"html-keyboard-response","32","354571","0.0-4.0-1.0-2.3","3","0","jm9zsy8l03dovvk","","null","","<p style=""color:#054d00;""><b>Correct!</b></p>","","null","","","","","","","","","","","","","","","","","","","","","","","","","","","","","","","",""
"audio-keyboard-response","33","355376","0.0-4.0-1.0-0.4","3","0","jm9zsy8l03dovvk","","null","","sounds/induction/right_rev/fe_SWS.wav","","null","","","","","","","","","","","","","","","","","","","","","","","","","","","","","","","",""
"html-button-response","34","356771","0.0-4.0-1.0-1.4","3","0","jm9zsy8l03dovvk","","1393.6999999284744","","Was the sound coming from the left or the right?","1","","","1","INDUCTION-JUDGMENT","right","1","","","","","","","","","","","","","","","","","","","","","","","","","","",""
"html-keyboard-response","35","357774","0.0-4.0-1.0-2.4","3","0","jm9zsy8l03dovvk","","null","","<p style=""color:#054d00;""><b>Correct!</b></p>","","null","","","","","","","","","","","","","","","","","","","","","","","","","","","","","","","",""
"audio-keyboard-response","36","358579","0.0-4.0-1.0-0.5","3","0","jm9zsy8l03dovvk","","null","","sounds/induction/right_rev/ti_SWS.wav","","null","","","","","","","","","","","","","","","","","","","","","","","","","","","","","","","",""
"html-button-response","37","359550","0.0-4.0-1.0-1.5","3","0","jm9zsy8l03dovvk","","970.3000000715256","","Was the sound coming from the left or the right?","1","","","1","INDUCTION-JUDGMENT","right","1","","","","","","","","","","","","","","","","","","","","","","","","","","",""
"html-keyboard-response","38","360551","0.0-4.0-1.0-2.5","3","0","jm9zsy8l03dovvk","","null","","<p style=""color:#054d00;""><b>Correct!</b></p>","","null","","","","","","","","","","","","","","","","","","","","","","","","","","","","","","","",""
"audio-keyboard-response","39","361353","0.0-4.0-1.0-0.6","3","0","jm9zsy8l03dovvk","","null","","sounds/induction/left_rev/ko_SWS.wav","","null","","","","","","","","","","","","","","","","","","","","","","","","","","","","","","","",""
"html-button-response","40","362743","0.0-4.0-1.0-1.6","3","0","jm9zsy8l03dovvk","","1389","","Was the sound coming from the left or the right?","0","","","1","INDUCTION-JUDGMENT","left","0","","","","","","","","","","","","","","","","","","","","","","","","","","",""
"html-keyboard-response","41","363747","0.0-4.0-1.0-2.6","3","0","jm9zsy8l03dovvk","","null","","<p style=""color:#054d00;""><b>Correct!</b></p>","","null","","","","","","","","","","","","","","","","","","","","","","","","","","","","","","","",""
"audio-keyboard-response","42","364551","0.0-4.0-1.0-0.7","3","0","jm9zsy8l03dovvk","","null","","sounds/induction/right_rev/ko_SWS.wav","","null","","","","","","","","","","","","","","","","","","","","","","","","","","","","","","","",""
"html-button-response","43","366170","0.0-4.0-1.0-1.7","3","0","jm9zsy8l03dovvk","","1618.6999999284744","","Was the sound coming from the left or the right?","1","","","1","INDUCTION-JUDGMENT","right","1","","","","","","","","","","","","","","","","","","","","","","","","","","",""
"html-keyboard-response","44","367174","0.0-4.0-1.0-2.7","3","0","jm9zsy8l03dovvk","","null","","<p style=""color:#054d00;""><b>Correct!</b></p>","","null","","","","","","","","","","","","","","","","","","","","","","","","","","","","","","","",""
"audio-keyboard-response","45","367973","0.0-4.0-1.0-0.8","3","0","jm9zsy8l03dovvk","","null","","sounds/induction/left_rev/me_SWS.wav","","null","","","","","","","","","","","","","","","","","","","","","","","","","","","","","","","",""
"html-button-response","46","369571","0.0-4.0-1.0-1.8","3","0","jm9zsy8l03dovvk","","1597.5","","Was the sound coming from the left or the right?","0","","","1","INDUCTION-JUDGMENT","left","0","","","","","","","","","","","","","","","","","","","","","","","","","","",""
"html-keyboard-response","47","370574","0.0-4.0-1.0-2.8","3","0","jm9zsy8l03dovvk","","null","","<p style=""color:#054d00;""><b>Correct!</b></p>","","null","","","","","","","","","","","","","","","","","","","","","","","","","","","","","","","",""
"audio-keyboard-response","48","371379","0.0-4.0-1.0-0.9","3","0","jm9zsy8l03dovvk","","null","","sounds/induction/left_rev/re_SWS.wav","","null","","","","","","","","","","","","","","","","","","","","","","","","","","","","","","","",""
"html-button-response","49","372459","0.0-4.0-1.0-1.9","3","0","jm9zsy8l03dovvk","","1079","","Was the sound coming from the left or the right?","0","","","1","INDUCTION-JUDGMENT","left","0","","","","","","","","","","","","","","","","","","","","","","","","","","",""
"html-keyboard-response","50","373464","0.0-4.0-1.0-2.9","3","0","jm9zsy8l03dovvk","","null","","<p style=""color:#054d00;""><b>Correct!</b></p>","","null","","","","","","","","","","","","","","","","","","","","","","","","","","","","","","","",""
"audio-keyboard-response","51","374275","0.0-4.0-1.0-0.10","3","0","jm9zsy8l03dovvk","","null","","sounds/induction/right_rev/re_SWS.wav","","null","","","","","","","","","","","","","","","","","","","","","","","","","","","","","","","",""
"html-button-response","52","375440","0.0-4.0-1.0-1.10","3","0","jm9zsy8l03dovvk","","1164.6999999284744","","Was the sound coming from the left or the right?","1","","","1","INDUCTION-JUDGMENT","right","1","","","","","","","","","","","","","","","","","","","","","","","","","","",""
"html-keyboard-response","53","376441","0.0-4.0-1.0-2.10","3","0","jm9zsy8l03dovvk","","null","","<p style=""color:#054d00;""><b>Correct!</b></p>","","null","","","","","","","","","","","","","","","","","","","","","","","","","","","","","","","",""
"audio-keyboard-response","54","377240","0.0-4.0-1.0-0.11","3","0","jm9zsy8l03dovvk","","null","","sounds/induction/left_rev/ni_SWS.wav","","null","","","","","","","","","","","","","","","","","","","","","","","","","","","","","","","",""
"html-button-response","55","378572","0.0-4.0-1.0-1.11","3","0","jm9zsy8l03dovvk","","1329.5","","Was the sound coming from the left or the right?","0","","","1","INDUCTION-JUDGMENT","left","0","","","","","","","","","","","","","","","","","","","","","","","","","","",""
"html-keyboard-response","56","379576","0.0-4.0-1.0-2.11","3","0","jm9zsy8l03dovvk","","null","","<p style=""color:#054d00;""><b>Correct!</b></p>","","null","","","","","","","","","","","","","","","","","","","","","","","","","","","","","","","",""
"audio-keyboard-response","57","380379","0.0-4.0-1.0-0.12","3","0","jm9zsy8l03dovvk","","null","","sounds/induction/right_rev/ti_SWS.wav","","null","","","","","","","","","","","","","","","","","","","","","","","","","","","","","","","",""
"html-button-response","58","381616","0.0-4.0-1.0-1.12","3","0","jm9zsy8l03dovvk","","1236","","Was the sound coming from the left or the right?","1","","","1","INDUCTION-JUDGMENT","right","1","","","","","","","","","","","","","","","","","","","","","","","","","","",""
"html-keyboard-response","59","382619","0.0-4.0-1.0-2.12","3","0","jm9zsy8l03dovvk","","null","","<p style=""color:#054d00;""><b>Correct!</b></p>","","null","","","","","","","","","","","","","","","","","","","","","","","","","","","","","","","",""
"audio-keyboard-response","60","383426","0.0-4.0-1.0-0.13","3","0","jm9zsy8l03dovvk","","null","","sounds/induction/right_rev/pu_SWS.wav","","null","","","","","","","","","","","","","","","","","","","","","","","","","","","","","","","",""
"html-button-response","61","384512","0.0-4.0-1.0-1.13","3","0","jm9zsy8l03dovvk","","1085.7999999523163","","Was the sound coming from the left or the right?","1","","","1","INDUCTION-JUDGMENT","right","1","","","","","","","","","","","","","","","","","","","","","","","","","","",""
"html-keyboard-response","62","385517","0.0-4.0-1.0-2.13","3","0","jm9zsy8l03dovvk","","null","","<p style=""color:#054d00;""><b>Correct!</b></p>","","null","","","","","","","","","","","","","","","","","","","","","","","","","","","","","","","",""
"audio-keyboard-response","63","386321","0.0-4.0-1.0-0.14","3","0","jm9zsy8l03dovvk","","null","","sounds/induction/left_rev/ru_SWS.wav","","null","","","","","","","","","","","","","","","","","","","","","","","","","","","","","","","",""
"html-button-response","64","387658","0.0-4.0-1.0-1.14","3","0","jm9zsy8l03dovvk","","1336.1000000238419","","Was the sound coming from the left or the right?","0","","","1","INDUCTION-JUDGMENT","left","0","","","","","","","","","","","","","","","","","","","","","","","","","","",""
"html-keyboard-response","65","388661","0.0-4.0-1.0-2.14","3","0","jm9zsy8l03dovvk","","null","","<p style=""color:#054d00;""><b>Correct!</b></p>","","null","","","","","","","","","","","","","","","","","","","","","","","","","","","","","","","",""
"audio-keyboard-response","66","389467","0.0-4.0-1.0-0.15","3","0","jm9zsy8l03dovvk","","null","","sounds/induction/left_rev/fu_SWS.wav","","null","","","","","","","","","","","","","","","","","","","","","","","","","","","","","","","",""
"html-button-response","67","390630","0.0-4.0-1.0-1.15","3","0","jm9zsy8l03dovvk","","1162.8999999761581","","Was the sound coming from the left or the right?","0","","","1","INDUCTION-JUDGMENT","left","0","","","","","","","","","","","","","","","","","","","","","","","","","","",""
"html-keyboard-response","68","391633","0.0-4.0-1.0-2.15","3","0","jm9zsy8l03dovvk","","null","","<p style=""color:#054d00;""><b>Correct!</b></p>","","null","","","","","","","","","","","","","","","","","","","","","","","","","","","","","","","",""
"audio-keyboard-response","69","392438","0.0-4.0-1.0-0.16","3","0","jm9zsy8l03dovvk","","null","","sounds/induction/right_rev/ta_SWS.wav","","null","","","","","","","","","","","","","","","","","","","","","","","","","","","","","","","",""
"html-button-response","70","394172","0.0-4.0-1.0-1.16","3","0","jm9zsy8l03dovvk","","1731.7000000476837","","Was the sound coming from the left or the right?","1","","","1","INDUCTION-JUDGMENT","right","1","","","","","","","","","","","","","","","","","","","","","","","","","","",""
"html-keyboard-response","71","395177","0.0-4.0-1.0-2.16","3","0","jm9zsy8l03dovvk","","null","","<p style=""color:#054d00;""><b>Correct!</b></p>","","null","","","","","","","","","","","","","","","","","","","","","","","","","","","","","","","",""
"audio-keyboard-response","72","395982","0.0-4.0-1.0-0.17","3","0","jm9zsy8l03dovvk","","null","","sounds/induction/right_rev/ta_SWS.wav","","null","","","","","","","","","","","","","","","","","","","","","","","","","","","","","","","",""
"html-button-response","73","396951","0.0-4.0-1.0-1.17","3","0","jm9zsy8l03dovvk","","968.2000000476837","","Was the sound coming from the left or the right?","1","","","1","INDUCTION-JUDGMENT","right","1","","","","","","","","","","","","","","","","","","","","","","","","","","",""
"html-keyboard-response","74","397953","0.0-4.0-1.0-2.17","3","0","jm9zsy8l03dovvk","","null","","<p style=""color:#054d00;""><b>Correct!</b></p>","","null","","","","","","","","","","","","","","","","","","","","","","","","","","","","","","","",""
"audio-keyboard-response","75","398757","0.0-4.0-1.0-0.18","3","0","jm9zsy8l03dovvk","","null","","sounds/induction/right_rev/me_SWS.wav","","null","","","","","","","","","","","","","","","","","","","","","","","","","","","","","","","",""
"html-button-response","76","400373","0.0-4.0-1.0-1.18","3","0","jm9zsy8l03dovvk","","1614.7000000476837","","Was the sound coming from the left or the right?","1","","","1","INDUCTION-JUDGMENT","right","1","","","","","","","","","","","","","","","","","","","","","","","","","","",""
"html-keyboard-response","77","401377","0.0-4.0-1.0-2.18","3","0","jm9zsy8l03dovvk","","null","","<p style=""color:#054d00;""><b>Correct!</b></p>","","null","","","","","","","","","","","","","","","","","","","","","","","","","","","","","","","",""
"audio-keyboard-response","78","402180","0.0-4.0-1.0-0.19","3","0","jm9zsy8l03dovvk","","null","","sounds/induction/right_rev/ni_SWS.wav","","null","","","","","","","","","","","","","","","","","","","","","","","","","","","","","","","",""
"html-button-response","79","404057","0.0-4.0-1.0-1.19","3","0","jm9zsy8l03dovvk","","1876.7000000476837","","Was the sound coming from the left or the right?","1","","","1","INDUCTION-JUDGMENT","right","1","","","","","","","","","","","","","","","","","","","","","","","","","","",""
"html-keyboard-response","80","405061","0.0-4.0-1.0-2.19","3","0","jm9zsy8l03dovvk","","null","","<p style=""color:#054d00;""><b>Correct!</b></p>","","null","","","","","","","","","","","","","","","","","","","","","","","","","","","","","","","",""
"audio-keyboard-response","81","405863","0.0-4.0-1.0-0.20","3","0","jm9zsy8l03dovvk","","null","","sounds/induction/left_rev/ti_SWS.wav","","null","","","","","","","","","","","","","","","","","","","","","","","","","","","","","","","",""
"html-button-response","82","406869","0.0-4.0-1.0-1.20","3","0","jm9zsy8l03dovvk","","1005","","Was the sound coming from the left or the right?","0","","","1","INDUCTION-JUDGMENT","left","0","","","","","","","","","","","","","","","","","","","","","","","","","","",""
"html-keyboard-response","83","407873","0.0-4.0-1.0-2.20","3","0","jm9zsy8l03dovvk","","null","","<p style=""color:#054d00;""><b>Correct!</b></p>","","null","","","","","","","","","","","","","","","","","","","","","","","","","","","","","","","",""
"audio-keyboard-response","84","408672","0.0-4.0-1.0-0.21","3","0","jm9zsy8l03dovvk","","null","","sounds/induction/left_rev/ti_SWS.wav","","null","","","","","","","","","","","","","","","","","","","","","","","","","","","","","","","",""
"html-button-response","85","409914","0.0-4.0-1.0-1.21","3","0","jm9zsy8l03dovvk","","1240.7000000476837","","Was the sound coming from the left or the right?","0","","","1","INDUCTION-JUDGMENT","left","0","","","","","","","","","","","","","","","","","","","","","","","","","","",""
"html-keyboard-response","86","410920","0.0-4.0-1.0-2.21","3","0","jm9zsy8l03dovvk","","null","","<p style=""color:#054d00;""><b>Correct!</b></p>","","null","","","","","","","","","","","","","","","","","","","","","","","","","","","","","","","",""
"audio-keyboard-response","87","411719","0.0-4.0-1.0-0.22","3","0","jm9zsy8l03dovvk","","null","","sounds/induction/right_rev/fu_SWS.wav","","null","","","","","","","","","","","","","","","","","","","","","","","","","","","","","","","",""
"html-button-response","88","412843","0.0-4.0-1.0-1.22","3","0","jm9zsy8l03dovvk","","1123.2000000476837","","Was the sound coming from the left or the right?","1","","","1","INDUCTION-JUDGMENT","right","1","","","","","","","","","","","","","","","","","","","","","","","","","","",""
"html-keyboard-response","89","413847","0.0-4.0-1.0-2.22","3","0","jm9zsy8l03dovvk","","null","","<p style=""color:#054d00;""><b>Correct!</b></p>","","null","","","","","","","","","","","","","","","","","","","","","","","","","","","","","","","",""
"audio-keyboard-response","90","414656","0.0-4.0-1.0-0.23","3","0","jm9zsy8l03dovvk","","null","","sounds/induction/left_rev/ta_SWS.wav","","null","","","","","","","","","","","","","","","","","","","","","","","","","","","","","","","",""
"html-button-response","91","415874","0.0-4.0-1.0-1.23","3","0","jm9zsy8l03dovvk","","1217.3000000715256","","Was the sound coming from the left or the right?","0","","","1","INDUCTION-JUDGMENT","left","0","","","","","","","","","","","","","","","","","","","","","","","","","","",""
"html-keyboard-response","92","416879","0.0-4.0-1.0-2.23","3","0","jm9zsy8l03dovvk","","null","","<p style=""color:#054d00;""><b>Correct!</b></p>","","null","","","","","","","","","","","","","","","","","","","","","","","","","","","","","","","",""
"audio-keyboard-response","93","417679","0.0-4.0-1.0-0.24","3","0","jm9zsy8l03dovvk","","null","","sounds/induction/left_rev/fe_SWS.wav","","null","","","","","","","","","","","","","","","","","","","","","","","","","","","","","","","",""
"html-button-response","94","418791","0.0-4.0-1.0-1.24","3","0","jm9zsy8l03dovvk","","1111.3999999761581","","Was the sound coming from the left or the right?","0","","","1","INDUCTION-JUDGMENT","left","0","","","","","","","","","","","","","","","","","","","","","","","","","","",""
"html-keyboard-response","95","419793","0.0-4.0-1.0-2.24","3","0","jm9zsy8l03dovvk","","null","","<p style=""color:#054d00;""><b>Correct!</b></p>","","null","","","","","","","","","","","","","","","","","","","","","","","","","","","","","","","",""
"audio-keyboard-response","96","420598","0.0-4.0-1.0-0.25","3","0","jm9zsy8l03dovvk","","null","","sounds/induction/right_rev/me_SWS.wav","","null","","","","","","","","","","","","","","","","","","","","","","","","","","","","","","","",""
"html-button-response","97","421751","0.0-4.0-1.0-1.25","3","0","jm9zsy8l03dovvk","","1152.5","","Was the sound coming from the left or the right?","1","","","1","INDUCTION-JUDGMENT","right","1","","","","","","","","","","","","","","","","","","","","","","","","","","",""
"html-keyboard-response","98","422752","0.0-4.0-1.0-2.25","3","0","jm9zsy8l03dovvk","","null","","<p style=""color:#054d00;""><b>Correct!</b></p>","","null","","","","","","","","","","","","","","","","","","","","","","","","","","","","","","","",""
"audio-keyboard-response","99","423557","0.0-4.0-1.0-0.26","3","0","jm9zsy8l03dovvk","","null","","sounds/induction/left_rev/ko_SWS.wav","","null","","","","","","","","","","","","","","","","","","","","","","","","","","","","","","","",""
"html-button-response","100","424952","0.0-4.0-1.0-1.26","3","0","jm9zsy8l03dovvk","","1393.3000000715256","","Was the sound coming from the left or the right?","0","","","1","INDUCTION-JUDGMENT","left","0","","","","","","","","","","","","","","","","","","","","","","","","","","",""
"html-keyboard-response","101","425955","0.0-4.0-1.0-2.26","3","0","jm9zsy8l03dovvk","","null","","<p style=""color:#054d00;""><b>Correct!</b></p>","","null","","","","","","","","","","","","","","","","","","","","","","","","","","","","","","","",""
"audio-keyboard-response","102","426760","0.0-4.0-1.0-0.27","3","0","jm9zsy8l03dovvk","","null","","sounds/induction/left_rev/ru_SWS.wav","","null","","","","","","","","","","","","","","","","","","","","","","","","","","","","","","","",""
"html-button-response","103","427692","0.0-4.0-1.0-1.27","3","0","jm9zsy8l03dovvk","","931","","Was the sound coming from the left or the right?","0","","","1","INDUCTION-JUDGMENT","left","0","","","","","","","","","","","","","","","","","","","","","","","","","","",""
"html-keyboard-response","104","428695","0.0-4.0-1.0-2.27","3","0","jm9zsy8l03dovvk","","null","","<p style=""color:#054d00;""><b>Correct!</b></p>","","null","","","","","","","","","","","","","","","","","","","","","","","","","","","","","","","",""
"audio-keyboard-response","105","429500","0.0-4.0-1.0-0.28","3","0","jm9zsy8l03dovvk","","null","","sounds/induction/left_rev/ge_SWS.wav","","null","","","","","","","","","","","","","","","","","","","","","","","","","","","","","","","",""
"html-button-response","106","430606","0.0-4.0-1.0-1.28","3","0","jm9zsy8l03dovvk","","1105.3000000715256","","Was the sound coming from the left or the right?","0","","","1","INDUCTION-JUDGMENT","left","0","","","","","","","","","","","","","","","","","","","","","","","","","","",""
"html-keyboard-response","107","431610","0.0-4.0-1.0-2.28","3","0","jm9zsy8l03dovvk","","null","","<p style=""color:#054d00;""><b>Correct!</b></p>","","null","","","","","","","","","","","","","","","","","","","","","","","","","","","","","","","",""
"audio-keyboard-response","108","432419","0.0-4.0-1.0-0.29","3","0","jm9zsy8l03dovvk","","null","","sounds/induction/left_rev/fe_SWS.wav","","null","","","","","","","","","","","","","","","","","","","","","","","","","","","","","","","",""
"html-button-response","109","433280","0.0-4.0-1.0-1.29","3","0","jm9zsy8l03dovvk","","860.8000000715256","","Was the sound coming from the left or the right?","0","","","1","INDUCTION-JUDGMENT","left","0","","","","","","","","","","","","","","","","","","","","","","","","","","",""
"html-keyboard-response","110","434284","0.0-4.0-1.0-2.29","3","0","jm9zsy8l03dovvk","","null","","<p style=""color:#054d00;""><b>Correct!</b></p>","","null","","","","","","","","","","","","","","","","","","","","","","","","","","","","","","","",""
"audio-keyboard-response","111","435089","0.0-4.0-1.0-0.30","3","0","jm9zsy8l03dovvk","","null","","sounds/induction/left_rev/ge_SWS.wav","","null","","","","","","","","","","","","","","","","","","","","","","","","","","","","","","","",""
"html-button-response","112","435916","0.0-4.0-1.0-1.30","3","0","jm9zsy8l03dovvk","","826.6000000238419","","Was the sound coming from the left or the right?","0","","","1","INDUCTION-JUDGMENT","left","0","","","","","","","","","","","","","","","","","","","","","","","","","","",""
"html-keyboard-response","113","436918","0.0-4.0-1.0-2.30","3","0","jm9zsy8l03dovvk","","null","","<p style=""color:#054d00;""><b>Correct!</b></p>","","null","","","","","","","","","","","","","","","","","","","","","","","","","","","","","","","",""
"audio-keyboard-response","114","437718","0.0-4.0-1.0-0.31","3","0","jm9zsy8l03dovvk","","null","","sounds/induction/left_rev/fu_SWS.wav","","null","","","","","","","","","","","","","","","","","","","","","","","","","","","","","","","",""
"html-button-response","115","439498","0.0-4.0-1.0-1.31","3","0","jm9zsy8l03dovvk","","1778.5","","Was the sound coming from the left or the right?","0","","","1","INDUCTION-JUDGMENT","left","0","","","","","","","","","","","","","","","","","","","","","","","","","","",""
"html-keyboard-response","116","440499","0.0-4.0-1.0-2.31","3","0","jm9zsy8l03dovvk","","null","","<p style=""color:#054d00;""><b>Correct!</b></p>","","null","","","","","","","","","","","","","","","","","","","","","","","","","","","","","","","",""
"audio-keyboard-response","117","441304","0.0-4.0-1.0-0.32","3","0","jm9zsy8l03dovvk","","null","","sounds/induction/right_rev/ni_SWS.wav","","null","","","","","","","","","","","","","","","","","","","","","","","","","","","","","","","",""
"html-button-response","118","442325","0.0-4.0-1.0-1.32","3","0","jm9zsy8l03dovvk","","1020.8000000715256","","Was the sound coming from the left or the right?","1","","","1","INDUCTION-JUDGMENT","right","1","","","","","","","","","","","","","","","","","","","","","","","","","","",""
"html-keyboard-response","119","443328","0.0-4.0-1.0-2.32","3","0","jm9zsy8l03dovvk","","null","","<p style=""color:#054d00;""><b>Correct!</b></p>","","null","","","","","","","","","","","","","","","","","","","","","","","","","","","","","","","",""
"audio-keyboard-response","120","444130","0.0-4.0-1.0-0.33","3","0","jm9zsy8l03dovvk","","null","","sounds/induction/left_rev/re_SWS.wav","","null","","","","","","","","","","","","","","","","","","","","","","","","","","","","","","","",""
"html-button-response","121","446014","0.0-4.0-1.0-1.33","3","0","jm9zsy8l03dovvk","","1882.7000000476837","","Was the sound coming from the left or the right?","0","","","1","INDUCTION-JUDGMENT","left","0","","","","","","","","","","","","","","","","","","","","","","","","","","",""
"html-keyboard-response","122","447017","0.0-4.0-1.0-2.33","3","0","jm9zsy8l03dovvk","","null","","<p style=""color:#054d00;""><b>Correct!</b></p>","","null","","","","","","","","","","","","","","","","","","","","","","","","","","","","","","","",""
"audio-keyboard-response","123","447814","0.0-4.0-1.0-0.34","3","0","jm9zsy8l03dovvk","","null","","sounds/induction/right_rev/fu_SWS.wav","","null","","","","","","","","","","","","","","","","","","","","","","","","","","","","","","","",""
"html-button-response","124","448930","0.0-4.0-1.0-1.34","3","0","jm9zsy8l03dovvk","","1115.3000000715256","","Was the sound coming from the left or the right?","1","","","1","INDUCTION-JUDGMENT","right","1","","","","","","","","","","","","","","","","","","","","","","","","","","",""
"html-keyboard-response","125","449933","0.0-4.0-1.0-2.34","3","0","jm9zsy8l03dovvk","","null","","<p style=""color:#054d00;""><b>Correct!</b></p>","","null","","","","","","","","","","","","","","","","","","","","","","","","","","","","","","","",""
"audio-keyboard-response","126","450738","0.0-4.0-1.0-0.35","3","0","jm9zsy8l03dovvk","","null","","sounds/induction/right_rev/ru_SWS.wav","","null","","","","","","","","","","","","","","","","","","","","","","","","","","","","","","","",""
"html-button-response","127","452294","0.0-4.0-1.0-1.35","3","0","jm9zsy8l03dovvk","","1554.7000000476837","","Was the sound coming from the left or the right?","1","","","1","INDUCTION-JUDGMENT","right","1","","","","","","","","","","","","","","","","","","","","","","","","","","",""
"html-keyboard-response","128","453294","0.0-4.0-1.0-2.35","3","0","jm9zsy8l03dovvk","","null","","<p style=""color:#054d00;""><b>Correct!</b></p>","","null","","","","","","","","","","","","","","","","","","","","","","","","","","","","","","","",""
"audio-keyboard-response","129","454092","0.0-4.0-1.0-0.36","3","0","jm9zsy8l03dovvk","","null","","sounds/induction/right_rev/su_SWS.wav","","null","","","","","","","","","","","","","","","","","","","","","","","","","","","","","","","",""
"html-button-response","130","455210","0.0-4.0-1.0-1.36","3","0","jm9zsy8l03dovvk","","1117.3000000715256","","Was the sound coming from the left or the right?","1","","","1","INDUCTION-JUDGMENT","right","1","","","","","","","","","","","","","","","","","","","","","","","","","","",""
"html-keyboard-response","131","456214","0.0-4.0-1.0-2.36","3","0","jm9zsy8l03dovvk","","null","","<p style=""color:#054d00;""><b>Correct!</b></p>","","null","","","","","","","","","","","","","","","","","","","","","","","","","","","","","","","",""
"audio-keyboard-response","132","457017","0.0-4.0-1.0-0.37","3","0","jm9zsy8l03dovvk","","null","","sounds/induction/left_rev/ta_SWS.wav","","null","","","","","","","","","","","","","","","","","","","","","","","","","","","","","","","",""
"html-button-response","133","458322","0.0-4.0-1.0-1.37","3","0","jm9zsy8l03dovvk","","1304.3999999761581","","Was the sound coming from the left or the right?","0","","","1","INDUCTION-JUDGMENT","left","0","","","","","","","","","","","","","","","","","","","","","","","","","","",""
"html-keyboard-response","134","459327","0.0-4.0-1.0-2.37","3","0","jm9zsy8l03dovvk","","null","","<p style=""color:#054d00;""><b>Correct!</b></p>","","null","","","","","","","","","","","","","","","","","","","","","","","","","","","","","","","",""
"audio-keyboard-response","135","460133","0.0-4.0-1.0-0.38","3","0","jm9zsy8l03dovvk","","null","","sounds/induction/left_rev/su_SWS.wav","","null","","","","","","","","","","","","","","","","","","","","","","","","","","","","","","","",""
"html-button-response","136","461922","0.0-4.0-1.0-1.38","3","0","jm9zsy8l03dovvk","","1788.9000000953674","","Was the sound coming from the left or the right?","1","","","0","INDUCTION-JUDGMENT","left","0","","","","","","","","","","","","","","","","","","","","","","","","","","",""
"html-keyboard-response","137","462929","0.0-4.0-1.0-2.38","3","0","jm9zsy8l03dovvk","","null","","<p style=""color:#690000;""><b>Incorrect!</b></p>","","null","","","","","","","","","","","","","","","","","","","","","","","","","","","","","","","",""
"audio-keyboard-response","138","463735","0.0-4.0-1.0-0.39","3","0","jm9zsy8l03dovvk","","null","","sounds/induction/right_rev/ge_SWS.wav","","null","","","","","","","","","","","","","","","","","","","","","","","","","","","","","","","",""
"html-button-response","139","465095","0.0-4.0-1.0-1.39","3","0","jm9zsy8l03dovvk","","1358.7000000476837","","Was the sound coming from the left or the right?","1","","","1","INDUCTION-JUDGMENT","right","1","","","","","","","","","","","","","","","","","","","","","","","","","","",""
"html-keyboard-response","140","466098","0.0-4.0-1.0-2.39","3","0","jm9zsy8l03dovvk","","null","","<p style=""color:#054d00;""><b>Correct!</b></p>","","null","","","","","","","","","","","","","","","","","","","","","","","","","","","","","","","",""
"audio-keyboard-response","141","466903","0.0-4.0-1.0-0.40","3","0","jm9zsy8l03dovvk","","null","","sounds/induction/right_rev/re_SWS.wav","","null","","","","","","","","","","","","","","","","","","","","","","","","","","","","","","","",""
"html-button-response","142","468220","0.0-4.0-1.0-1.40","3","0","jm9zsy8l03dovvk","","1315.6000000238419","","Was the sound coming from the left or the right?","1","","","1","INDUCTION-JUDGMENT","right","1","","","","","","","","","","","","","","","","","","","","","","","","","","",""
"html-keyboard-response","143","469224","0.0-4.0-1.0-2.40","3","0","jm9zsy8l03dovvk","","null","","<p style=""color:#054d00;""><b>Correct!</b></p>","","null","","","","","","","","","","","","","","","","","","","","","","","","","","","","","","","",""
"audio-keyboard-response","144","470031","0.0-4.0-1.0-0.41","3","0","jm9zsy8l03dovvk","","null","","sounds/induction/right_rev/ru_SWS.wav","","null","","","","","","","","","","","","","","","","","","","","","","","","","","","","","","","",""
"html-button-response","145","471015","0.0-4.0-1.0-1.41","3","0","jm9zsy8l03dovvk","","983.2000000476837","","Was the sound coming from the left or the right?","1","","","1","INDUCTION-JUDGMENT","right","1","","","","","","","","","","","","","","","","","","","","","","","","","","",""
"html-keyboard-response","146","472017","0.0-4.0-1.0-2.41","3","0","jm9zsy8l03dovvk","","null","","<p style=""color:#054d00;""><b>Correct!</b></p>","","null","","","","","","","","","","","","","","","","","","","","","","","","","","","","","","","",""
"audio-keyboard-response","147","472823","0.0-4.0-1.0-0.42","3","0","jm9zsy8l03dovvk","","null","","sounds/induction/left_rev/me_SWS.wav","","null","","","","","","","","","","","","","","","","","","","","","","","","","","","","","","","",""
"html-button-response","148","474530","0.0-4.0-1.0-1.42","3","0","jm9zsy8l03dovvk","","1706.7000000476837","","Was the sound coming from the left or the right?","0","","","1","INDUCTION-JUDGMENT","left","0","","","","","","","","","","","","","","","","","","","","","","","","","","",""
"html-keyboard-response","149","475532","0.0-4.0-1.0-2.42","3","0","jm9zsy8l03dovvk","","null","","<p style=""color:#054d00;""><b>Correct!</b></p>","","null","","","","","","","","","","","","","","","","","","","","","","","","","","","","","","","",""
"audio-keyboard-response","150","476333","0.0-4.0-1.0-0.43","3","0","jm9zsy8l03dovvk","","null","","sounds/induction/right_rev/ge_SWS.wav","","null","","","","","","","","","","","","","","","","","","","","","","","","","","","","","","","",""
"html-button-response","151","477579","0.0-4.0-1.0-1.43","3","0","jm9zsy8l03dovvk","","1245.7000000476837","","Was the sound coming from the left or the right?","1","","","1","INDUCTION-JUDGMENT","right","1","","","","","","","","","","","","","","","","","","","","","","","","","","",""
"html-keyboard-response","152","478584","0.0-4.0-1.0-2.43","3","0","jm9zsy8l03dovvk","","null","","<p style=""color:#054d00;""><b>Correct!</b></p>","","null","","","","","","","","","","","","","","","","","","","","","","","","","","","","","","","",""
"audio-keyboard-response","153","479385","0.0-4.0-1.0-0.44","3","0","jm9zsy8l03dovvk","","null","","sounds/induction/right_rev/su_SWS.wav","","null","","","","","","","","","","","","","","","","","","","","","","","","","","","","","","","",""
"html-button-response","154","480812","0.0-4.0-1.0-1.44","3","0","jm9zsy8l03dovvk","","1425.8999999761581","","Was the sound coming from the left or the right?","1","","","1","INDUCTION-JUDGMENT","right","1","","","","","","","","","","","","","","","","","","","","","","","","","","",""
"html-keyboard-response","155","481813","0.0-4.0-1.0-2.44","3","0","jm9zsy8l03dovvk","","null","","<p style=""color:#054d00;""><b>Correct!</b></p>","","null","","","","","","","","","","","","","","","","","","","","","","","","","","","","","","","",""
"audio-keyboard-response","156","482622","0.0-4.0-1.0-0.45","3","0","jm9zsy8l03dovvk","","null","","sounds/induction/left_rev/ni_SWS.wav","","null","","","","","","","","","","","","","","","","","","","","","","","","","","","","","","","",""
"html-button-response","157","483823","0.0-4.0-1.0-1.45","3","0","jm9zsy8l03dovvk","","1200","","Was the sound coming from the left or the right?","0","","","1","INDUCTION-JUDGMENT","left","0","","","","","","","","","","","","","","","","","","","","","","","","","","",""
"html-keyboard-response","158","484826","0.0-4.0-1.0-2.45","3","0","jm9zsy8l03dovvk","","null","","<p style=""color:#054d00;""><b>Correct!</b></p>","","null","","","","","","","","","","","","","","","","","","","","","","","","","","","","","","","",""
"audio-keyboard-response","159","485629","0.0-4.0-1.0-0.46","3","0","jm9zsy8l03dovvk","","null","","sounds/induction/left_rev/su_SWS.wav","","null","","","","","","","","","","","","","","","","","","","","","","","","","","","","","","","",""
"html-button-response","160","487119","0.0-4.0-1.0-1.46","3","0","jm9zsy8l03dovvk","","1490","","Was the sound coming from the left or the right?","0","","","1","INDUCTION-JUDGMENT","left","0","","","","","","","","","","","","","","","","","","","","","","","","","","",""
"html-keyboard-response","161","488124","0.0-4.0-1.0-2.46","3","0","jm9zsy8l03dovvk","","null","","<p style=""color:#054d00;""><b>Correct!</b></p>","","null","","","","","","","","","","","","","","","","","","","","","","","","","","","","","","","",""
"audio-keyboard-response","162","488930","0.0-4.0-1.0-0.47","3","0","jm9zsy8l03dovvk","","null","","sounds/induction/left_rev/pu_SWS.wav","","null","","","","","","","","","","","","","","","","","","","","","","","","","","","","","","","",""
"html-button-response","163","490532","0.0-4.0-1.0-1.47","3","0","jm9zsy8l03dovvk","","1602","","Was the sound coming from the left or the right?","0","","","1","INDUCTION-JUDGMENT","left","0","","","","","","","","","","","","","","","","","","","","","","","","","","",""
"html-keyboard-response","164","491537","0.0-4.0-1.0-2.47","3","0","jm9zsy8l03dovvk","","null","","<p style=""color:#054d00;""><b>Correct!</b></p>","","null","","","","","","","","","","","","","","","","","","","","","","","","","","","","","","","",""
"html-button-response","165","504116","0.0-5.0-0.0","3","0","jm9zsy8l03dovvk","","12074.599999904633","","<p>Thank you for your answers.</p><p>You will now listen to similar sounds. The main difference is that the sounds will be longer.</p><p>Just as before, you will be asked to judge whether the sound was coming from the left or the right.</p><p>There are 10 of these longer sounds in total.","0","","","","","","","","","","","","","","","","","","","","","","","","","","","","","","","","",""
"audio-keyboard-response","166","506937","0.0-5.0-1.0-0.0","3","0","jm9zsy8l03dovvk","","null","","sounds/sentences/left_rev/14_02_cfSWS.wav","","null","","","","","","","","","","","","","","","","","","","","","","","","","","","","","","","",""
"html-button-response","167","508788","0.0-5.0-1.0-1.0","3","0","jm9zsy8l03dovvk","","1850.8999999761581","","Was the sound coming from the left or the right?","0","","","1","INDUCTION-JUDGMENT","left","0","","","","","","","","","","","","","","","","","","","","","","","","","","",""
"html-keyboard-response","168","509792","0.0-5.0-1.0-2.0","3","0","jm9zsy8l03dovvk","","null","","<p style=""color:#054d00;""><b>Correct!</b></p>","","null","","","","","","","","","","","","","","","","","","","","","","","","","","","","","","","",""
"html-button-response","169","514350","0.0-5.0-1.0-3.0","3","0","jm9zsy8l03dovvk","","4053.399999976158","","<p>Press the button below when you are ready to continue.</p>","0","","","","","","","","","","","","","","","","","","","","","","","","","","","","","","","","",""
"audio-keyboard-response","170","517466","0.0-5.0-1.0-0.1","3","0","jm9zsy8l03dovvk","","null","","sounds/sentences/left_rev/14_01_cfSWS.wav","","null","","","","","","","","","","","","","","","","","","","","","","","","","","","","","","","",""
"html-button-response","171","518527","0.0-5.0-1.0-1.1","3","0","jm9zsy8l03dovvk","","1060.1000000238419","","Was the sound coming from the left or the right?","0","","","1","INDUCTION-JUDGMENT","left","0","","","","","","","","","","","","","","","","","","","","","","","","","","",""
"html-keyboard-response","172","519531","0.0-5.0-1.0-2.1","3","0","jm9zsy8l03dovvk","","null","","<p style=""color:#054d00;""><b>Correct!</b></p>","","null","","","","","","","","","","","","","","","","","","","","","","","","","","","","","","","",""
"html-button-response","173","520754","0.0-5.0-1.0-3.1","3","0","jm9zsy8l03dovvk","","722.2000000476837","","<p>Press the button below when you are ready to continue.</p>","0","","","","","","","","","","","","","","","","","","","","","","","","","","","","","","","","",""
"audio-keyboard-response","174","523744","0.0-5.0-1.0-0.2","3","0","jm9zsy8l03dovvk","","null","","sounds/sentences/left_rev/14_05_cfSWS.wav","","null","","","","","","","","","","","","","","","","","","","","","","","","","","","","","","","",""
"html-button-response","175","525006","0.0-5.0-1.0-1.2","3","0","jm9zsy8l03dovvk","","1260.2000000476837","","Was the sound coming from the left or the right?","0","","","1","INDUCTION-JUDGMENT","left","0","","","","","","","","","","","","","","","","","","","","","","","","","","",""
"html-keyboard-response","176","526009","0.0-5.0-1.0-2.2","3","0","jm9zsy8l03dovvk","","null","","<p style=""color:#054d00;""><b>Correct!</b></p>","","null","","","","","","","","","","","","","","","","","","","","","","","","","","","","","","","",""
"html-button-response","177","528095","0.0-5.0-1.0-3.2","3","0","jm9zsy8l03dovvk","","1582.6000000238419","","<p>Press the button below when you are ready to continue.</p>","0","","","","","","","","","","","","","","","","","","","","","","","","","","","","","","","","",""
"audio-keyboard-response","178","530828","0.0-5.0-1.0-0.3","3","0","jm9zsy8l03dovvk","","null","","sounds/sentences/right_rev/14_09_cfSWS.wav","","null","","","","","","","","","","","","","","","","","","","","","","","","","","","","","","","",""
"html-button-response","179","531849","0.0-5.0-1.0-1.3","3","0","jm9zsy8l03dovvk","","1020","","Was the sound coming from the left or the right?","1","","","1","INDUCTION-JUDGMENT","right","1","","","","","","","","","","","","","","","","","","","","","","","","","","",""
"html-keyboard-response","180","532853","0.0-5.0-1.0-2.3","3","0","jm9zsy8l03dovvk","","null","","<p style=""color:#054d00;""><b>Correct!</b></p>","","null","","","","","","","","","","","","","","","","","","","","","","","","","","","","","","","",""
"html-button-response","181","534565","0.0-5.0-1.0-3.3","3","0","jm9zsy8l03dovvk","","1210.5","","<p>Press the button below when you are ready to continue.</p>","0","","","","","","","","","","","","","","","","","","","","","","","","","","","","","","","","",""
"audio-keyboard-response","182","537153","0.0-5.0-1.0-0.4","3","0","jm9zsy8l03dovvk","","null","","sounds/sentences/left_rev/14_03_cfSWS.wav","","null","","","","","","","","","","","","","","","","","","","","","","","","","","","","","","","",""
"html-button-response","183","538156","0.0-5.0-1.0-1.4","3","0","jm9zsy8l03dovvk","","1002.5","","Was the sound coming from the left or the right?","0","","","1","INDUCTION-JUDGMENT","left","0","","","","","","","","","","","","","","","","","","","","","","","","","","",""
"html-keyboard-response","184","539160","0.0-5.0-1.0-2.4","3","0","jm9zsy8l03dovvk","","null","","<p style=""color:#054d00;""><b>Correct!</b></p>","","null","","","","","","","","","","","","","","","","","","","","","","","","","","","","","","","",""
"html-button-response","185","541207","0.0-5.0-1.0-3.4","3","0","jm9zsy8l03dovvk","","1542.7999999523163","","<p>Press the button below when you are ready to continue.</p>","0","","","","","","","","","","","","","","","","","","","","","","","","","","","","","","","","",""
"audio-keyboard-response","186","544230","0.0-5.0-1.0-0.5","3","0","jm9zsy8l03dovvk","","null","","sounds/sentences/right_rev/14_10_cfSWS.wav","","null","","","","","","","","","","","","","","","","","","","","","","","","","","","","","","","",""
"html-button-response","187","545364","0.0-5.0-1.0-1.5","3","0","jm9zsy8l03dovvk","","1133","","Was the sound coming from the left or the right?","1","","","1","INDUCTION-JUDGMENT","right","1","","","","","","","","","","","","","","","","","","","","","","","","","","",""
"html-keyboard-response","188","546367","0.0-5.0-1.0-2.5","3","0","jm9zsy8l03dovvk","","null","","<p style=""color:#054d00;""><b>Correct!</b></p>","","null","","","","","","","","","","","","","","","","","","","","","","","","","","","","","","","",""
"html-button-response","189","548001","0.0-5.0-1.0-3.5","3","0","jm9zsy8l03dovvk","","1129.1999999284744","","<p>Press the button below when you are ready to continue.</p>","0","","","","","","","","","","","","","","","","","","","","","","","","","","","","","","","","",""
"audio-keyboard-response","190","550758","0.0-5.0-1.0-0.6","3","0","jm9zsy8l03dovvk","","null","","sounds/sentences/right_rev/14_08_cfSWS.wav","","null","","","","","","","","","","","","","","","","","","","","","","","","","","","","","","","",""
"html-button-response","191","551943","0.0-5.0-1.0-1.6","3","0","jm9zsy8l03dovvk","","1184.2999999523163","","Was the sound coming from the left or the right?","1","","","1","INDUCTION-JUDGMENT","right","1","","","","","","","","","","","","","","","","","","","","","","","","","","",""
"html-keyboard-response","192","552944","0.0-5.0-1.0-2.6","3","0","jm9zsy8l03dovvk","","null","","<p style=""color:#054d00;""><b>Correct!</b></p>","","null","","","","","","","","","","","","","","","","","","","","","","","","","","","","","","","",""
"html-button-response","193","554963","0.0-5.0-1.0-3.6","3","0","jm9zsy8l03dovvk","","1514.3999999761581","","<p>Press the button below when you are ready to continue.</p>","0","","","","","","","","","","","","","","","","","","","","","","","","","","","","","","","","",""
"audio-keyboard-response","194","557858","0.0-5.0-1.0-0.7","3","0","jm9zsy8l03dovvk","","null","","sounds/sentences/right_rev/14_07_cfSWS.wav","","null","","","","","","","","","","","","","","","","","","","","","","","","","","","","","","","",""
"html-button-response","195","558561","0.0-5.0-1.0-1.7","3","0","jm9zsy8l03dovvk","","702.1000000238419","","Was the sound coming from the left or the right?","1","","","1","INDUCTION-JUDGMENT","right","1","","","","","","","","","","","","","","","","","","","","","","","","","","",""
"html-keyboard-response","196","559567","0.0-5.0-1.0-2.7","3","0","jm9zsy8l03dovvk","","null","","<p style=""color:#054d00;""><b>Correct!</b></p>","","null","","","","","","","","","","","","","","","","","","","","","","","","","","","","","","","",""
"html-button-response","197","560865","0.0-5.0-1.0-3.7","3","0","jm9zsy8l03dovvk","","794.3000000715256","","<p>Press the button below when you are ready to continue.</p>","0","","","","","","","","","","","","","","","","","","","","","","","","","","","","","","","","",""
"audio-keyboard-response","198","563424","0.0-5.0-1.0-0.8","3","0","jm9zsy8l03dovvk","","null","","sounds/sentences/left_rev/14_04_cfSWS.wav","","null","","","","","","","","","","","","","","","","","","","","","","","","","","","","","","","",""
"html-button-response","199","564488","0.0-5.0-1.0-1.8","3","0","jm9zsy8l03dovvk","","1063.2999999523163","","Was the sound coming from the left or the right?","0","","","1","INDUCTION-JUDGMENT","left","0","","","","","","","","","","","","","","","","","","","","","","","","","","",""
"html-keyboard-response","200","565492","0.0-5.0-1.0-2.8","3","0","jm9zsy8l03dovvk","","null","","<p style=""color:#054d00;""><b>Correct!</b></p>","","null","","","","","","","","","","","","","","","","","","","","","","","","","","","","","","","",""
"html-button-response","201","566860","0.0-5.0-1.0-3.8","3","0","jm9zsy8l03dovvk","","863.3999999761581","","<p>Press the button below when you are ready to continue.</p>","0","","","","","","","","","","","","","","","","","","","","","","","","","","","","","","","","",""
"audio-keyboard-response","202","569610","0.0-5.0-1.0-0.9","3","0","jm9zsy8l03dovvk","","null","","sounds/sentences/right_rev/14_06_cfSWS.wav","","null","","","","","","","","","","","","","","","","","","","","","","","","","","","","","","","",""
"html-button-response","203","570630","0.0-5.0-1.0-1.9","3","0","jm9zsy8l03dovvk","","1019.1000000238419","","Was the sound coming from the left or the right?","1","","","1","INDUCTION-JUDGMENT","right","1","","","","","","","","","","","","","","","","","","","","","","","","","","",""
"html-keyboard-response","204","571634","0.0-5.0-1.0-2.9","3","0","jm9zsy8l03dovvk","","null","","<p style=""color:#054d00;""><b>Correct!</b></p>","","null","","","","","","","","","","","","","","","","","","","","","","","","","","","","","","","",""
"html-button-response","205","573248","0.0-5.0-1.0-3.9","3","0","jm9zsy8l03dovvk","","1109.7000000476837","","<p>Press the button below when you are ready to continue.</p>","0","","","","","","","","","","","","","","","","","","","","","","","","","","","","","","","","",""
"html-keyboard-response","206","597445","0.0-6.0-0.0","3","0","jm9zsy8l03dovvk","","23692.299999952316","","<p>In this part of the study, you will hear sounds similar to those you just heard.</p><p>Please focus on these sounds, as you may be asked questions about them later.</p><p>Occasionally, the sounds will pause for up to two seconds. When this happens, please press SPACEBAR as quickly as you can.</br>This helps ensure that you are paying attention to the sounds.</p><p>This part of the study will take about 12 minutes to complete, and you will be given the opportunity to take a couple of short breaks every few minutes.</p><p><strong>Press SPACEBAR to begin</strong></p>","","32","","","","","","","","","","","","","","","","","","","","","","","","","","","","","","","",""
"html-keyboard-response","207","598446","0.0-6.0-1.0-0.0","3","0","jm9zsy8l03dovvk","","null","","<p style=""font-size: 40px;"">+</p>","","null","","","","","","","","","","","","","","","","","","","","","","","","","","","","","","","",""
"html-keyboard-response","208","783456","0.0-6.0-1.0-1.0","3","0","jm9zsy8l03dovvk","","null","","","","null","","","SL-TRAIN","","","0","989.2000000476837","845.2000000476837","sounds/C/TRAIN/SEQ__11.mp3","2","","","","","","","","","","","","","","","","","","","","","",""
"html-button-response","209","810312","0.0-6.0-1.0-2.0","3","0","jm9zsy8l03dovvk","","26852.199999928474","","<p>You may take a short break if you wish.</p>","0","","","","","","","","","","","","","","","","","","","","","","","","","","","","","","","","",""
"html-keyboard-response","210","811317","0.0-6.0-1.0-3.0","3","0","jm9zsy8l03dovvk","","null","","<p style=""font-size: 40px;"">+</p>","","null","","","","","","","","","","","","","","","","","","","","","","","","","","","","","","","",""
"html-keyboard-response","211","996333","0.0-6.0-1.0-4.0","3","0","jm9zsy8l03dovvk","","null","","","","null","","","SL-TRAIN","","","0","1562.5","1369.2999999523163","sounds/C/TRAIN/SEQ__09.mp3","4","","","","","","","","","","","","","","","","","","","","","",""
"html-button-response","212","1017737","0.0-6.0-1.0-5.0","3","0","jm9zsy8l03dovvk","","21402.600000023842","","<p>You may take a short break if you wish.</p>","0","","","","","","","","","","","","","","","","","","","","","","","","","","","","","","","","",""
"html-keyboard-response","213","1018740","0.0-6.0-1.0-6.0","3","0","jm9zsy8l03dovvk","","null","","<p style=""font-size: 40px;"">+</p>","","null","","","","","","","","","","","","","","","","","","","","","","","","","","","","","","","",""
"html-keyboard-response","214","1203750","0.0-6.0-1.0-7.0","3","0","jm9zsy8l03dovvk","","null","","","","null","","","SL-TRAIN","","","0","1120.2999999523163","1272.6000000238419","sounds/C/TRAIN/SEQ__03.mp3","8","","","","","","","","","","","","","","","","","","","","","",""
"html-button-response","215","1264773","0.0-6.0-1.0-8.0","3","0","jm9zsy8l03dovvk","","61019.299999952316","","<p>You may take a short break if you wish.</p>","0","","","","","","","","","","","","","","","","","","","","","","","","","","","","","","","","",""
"html-keyboard-response","216","1265779","0.0-6.0-1.0-9.0","3","0","jm9zsy8l03dovvk","","null","","<p style=""font-size: 40px;"">+</p>","","null","","","","","","","","","","","","","","","","","","","","","","","","","","","","","","","",""
"html-keyboard-response","217","1450791","0.0-6.0-1.0-10.0","3","0","jm9zsy8l03dovvk","","null","","","","null","","","SL-TRAIN","","","0","772","838.6000000238419","sounds/C/TRAIN/SEQ__10.mp3","12","","","","","","","","","","","","","","","","","","","","","",""
"html-button-response","218","1561790","0.0-6.0-1.0-11.0","3","0","jm9zsy8l03dovvk","","110992.60000002384","","<p>You may take a short break if you wish.</p>","0","","","","","","","","","","","","","","","","","","","","","","","","","","","","","","","","",""
"html-button-response","219","1586710","0.0-7.0-0.0","3","0","jm9zsy8l03dovvk","","24918","","<p>Welcome to the second part of the study. This is a <u>familiarity task</u>.</p><p>You will now hear short sounds and will be asked to rate how familiar they sound to you <b>based on what you heard in the previous part of the study</b>.</p><p>You will rate 12 sounds in total.</p>","0","","","","","","","","","","","","","","","","","","","","","","","","","","","","","","","","",""
"html-keyboard-response","220","1587714","0.0-7.0-1.0-0.0","3","0","jm9zsy8l03dovvk","","null","","","","null","","","","","","","","","","","","","","","","","","","","","","","","","","","","","","","",""
"audio-keyboard-response","221","1589077","0.0-7.0-1.0-1.0","3","0","jm9zsy8l03dovvk","","null","","sounds/C/FAM/N001.mp3","","null","","","","","","","","","","","","","","","","","","","","","","","","","","","","","","","",""
"html-keyboard-response","222","1594646","0.0-7.0-1.0-2.0","3","0","jm9zsy8l03dovvk","","5066.700000047684","","<p>How familiar did this sound to you?</p><p>1&nbsp;&nbsp;&nbsp;&nbsp;&nbsp;&nbsp;&nbsp;&nbsp;&nbsp;&nbsp;&nbsp;&nbsp;&nbsp;&nbsp;&nbsp;&nbsp;&nbsp;&nbsp;&nbsp;2&nbsp;&nbsp;&nbsp;&nbsp;&nbsp;&nbsp;&nbsp;&nbsp;&nbsp;&nbsp;&nbsp;&nbsp;&nbsp;&nbsp;&nbsp;&nbsp;&nbsp;&nbsp;&nbsp;3&nbsp;&nbsp;&nbsp;&nbsp;&nbsp;&nbsp;&nbsp;&nbsp;&nbsp;&nbsp;&nbsp;&nbsp;&nbsp;&nbsp;&nbsp;&nbsp;&nbsp;&nbsp;&nbsp;4</p><p style=""font-size:14px"">Not at all familiar&nbsp;&nbsp;&nbsp;&nbsp;A little familiar&nbsp;&nbsp;&nbsp;Moderately familiar&nbsp;&nbsp;&nbsp;Extremely familiar</p><p>(press the corresponding number on your keyboard)</p>","","52","","","FAM-RESPONSE","","","","","","","","sounds/C/FAM/N001.mp3","nonword","","","","","","","","","","","","","","","","","","","",""
"html-keyboard-response","223","1596656","0.0-7.0-1.0-0.1","3","0","jm9zsy8l03dovvk","","null","","","","null","","","","","","","","","","","","","","","","","","","","","","","","","","","","","","","",""
"audio-keyboard-response","224","1597591","0.0-7.0-1.0-1.1","3","0","jm9zsy8l03dovvk","","null","","sounds/C/FAM/W004.mp3","","null","","","","","","","","","","","","","","","","","","","","","","","","","","","","","","","",""
"html-keyboard-response","225","1600229","0.0-7.0-1.0-2.1","3","0","jm9zsy8l03dovvk","","2135.899999976158","","<p>How familiar did this sound to you?</p><p>1&nbsp;&nbsp;&nbsp;&nbsp;&nbsp;&nbsp;&nbsp;&nbsp;&nbsp;&nbsp;&nbsp;&nbsp;&nbsp;&nbsp;&nbsp;&nbsp;&nbsp;&nbsp;&nbsp;2&nbsp;&nbsp;&nbsp;&nbsp;&nbsp;&nbsp;&nbsp;&nbsp;&nbsp;&nbsp;&nbsp;&nbsp;&nbsp;&nbsp;&nbsp;&nbsp;&nbsp;&nbsp;&nbsp;3&nbsp;&nbsp;&nbsp;&nbsp;&nbsp;&nbsp;&nbsp;&nbsp;&nbsp;&nbsp;&nbsp;&nbsp;&nbsp;&nbsp;&nbsp;&nbsp;&nbsp;&nbsp;&nbsp;4</p><p style=""font-size:14px"">Not at all familiar&nbsp;&nbsp;&nbsp;&nbsp;A little familiar&nbsp;&nbsp;&nbsp;Moderately familiar&nbsp;&nbsp;&nbsp;Extremely familiar</p><p>(press the corresponding number on your keyboard)</p>","","52","","","FAM-RESPONSE","","","","","","","","sounds/C/FAM/W004.mp3","word","","","","","","","","","","","","","","","","","","","",""
"html-keyboard-response","226","1602236","0.0-7.0-1.0-0.2","3","0","jm9zsy8l03dovvk","","null","","","","null","","","","","","","","","","","","","","","","","","","","","","","","","","","","","","","",""
"audio-keyboard-response","227","1603174","0.0-7.0-1.0-1.2","3","0","jm9zsy8l03dovvk","","null","","sounds/C/FAM/N003.mp3","","null","","","","","","","","","","","","","","","","","","","","","","","","","","","","","","","",""
"html-keyboard-response","228","1606689","0.0-7.0-1.0-2.2","3","0","jm9zsy8l03dovvk","","3012.6999999284744","","<p>How familiar did this sound to you?</p><p>1&nbsp;&nbsp;&nbsp;&nbsp;&nbsp;&nbsp;&nbsp;&nbsp;&nbsp;&nbsp;&nbsp;&nbsp;&nbsp;&nbsp;&nbsp;&nbsp;&nbsp;&nbsp;&nbsp;2&nbsp;&nbsp;&nbsp;&nbsp;&nbsp;&nbsp;&nbsp;&nbsp;&nbsp;&nbsp;&nbsp;&nbsp;&nbsp;&nbsp;&nbsp;&nbsp;&nbsp;&nbsp;&nbsp;3&nbsp;&nbsp;&nbsp;&nbsp;&nbsp;&nbsp;&nbsp;&nbsp;&nbsp;&nbsp;&nbsp;&nbsp;&nbsp;&nbsp;&nbsp;&nbsp;&nbsp;&nbsp;&nbsp;4</p><p style=""font-size:14px"">Not at all familiar&nbsp;&nbsp;&nbsp;&nbsp;A little familiar&nbsp;&nbsp;&nbsp;Moderately familiar&nbsp;&nbsp;&nbsp;Extremely familiar</p><p>(press the corresponding number on your keyboard)</p>","","51","","","FAM-RESPONSE","","","","","","","","sounds/C/FAM/N003.mp3","nonword","","","","","","","","","","","","","","","","","","","",""
"html-keyboard-response","229","1608695","0.0-7.0-1.0-0.3","3","0","jm9zsy8l03dovvk","","null","","","","null","","","","","","","","","","","","","","","","","","","","","","","","","","","","","","","",""
"audio-keyboard-response","230","1609632","0.0-7.0-1.0-1.3","3","0","jm9zsy8l03dovvk","","null","","sounds/C/FAM/W002.mp3","","null","","","","","","","","","","","","","","","","","","","","","","","","","","","","","","","",""
"html-keyboard-response","231","1612305","0.0-7.0-1.0-2.3","3","0","jm9zsy8l03dovvk","","2169.100000023842","","<p>How familiar did this sound to you?</p><p>1&nbsp;&nbsp;&nbsp;&nbsp;&nbsp;&nbsp;&nbsp;&nbsp;&nbsp;&nbsp;&nbsp;&nbsp;&nbsp;&nbsp;&nbsp;&nbsp;&nbsp;&nbsp;&nbsp;2&nbsp;&nbsp;&nbsp;&nbsp;&nbsp;&nbsp;&nbsp;&nbsp;&nbsp;&nbsp;&nbsp;&nbsp;&nbsp;&nbsp;&nbsp;&nbsp;&nbsp;&nbsp;&nbsp;3&nbsp;&nbsp;&nbsp;&nbsp;&nbsp;&nbsp;&nbsp;&nbsp;&nbsp;&nbsp;&nbsp;&nbsp;&nbsp;&nbsp;&nbsp;&nbsp;&nbsp;&nbsp;&nbsp;4</p><p style=""font-size:14px"">Not at all familiar&nbsp;&nbsp;&nbsp;&nbsp;A little familiar&nbsp;&nbsp;&nbsp;Moderately familiar&nbsp;&nbsp;&nbsp;Extremely familiar</p><p>(press the corresponding number on your keyboard)</p>","","50","","","FAM-RESPONSE","","","","","","","","sounds/C/FAM/W002.mp3","word","","","","","","","","","","","","","","","","","","","",""
"html-keyboard-response","232","1614315","0.0-7.0-1.0-0.4","3","0","jm9zsy8l03dovvk","","null","","","","null","","","","","","","","","","","","","","","","","","","","","","","","","","","","","","","",""
"audio-keyboard-response","233","1615250","0.0-7.0-1.0-1.4","3","0","jm9zsy8l03dovvk","","null","","sounds/C/FAM/P001.mp3","","null","","","","","","","","","","","","","","","","","","","","","","","","","","","","","","","",""
"html-keyboard-response","234","1618220","0.0-7.0-1.0-2.4","3","0","jm9zsy8l03dovvk","","2465.2000000476837","","<p>How familiar did this sound to you?</p><p>1&nbsp;&nbsp;&nbsp;&nbsp;&nbsp;&nbsp;&nbsp;&nbsp;&nbsp;&nbsp;&nbsp;&nbsp;&nbsp;&nbsp;&nbsp;&nbsp;&nbsp;&nbsp;&nbsp;2&nbsp;&nbsp;&nbsp;&nbsp;&nbsp;&nbsp;&nbsp;&nbsp;&nbsp;&nbsp;&nbsp;&nbsp;&nbsp;&nbsp;&nbsp;&nbsp;&nbsp;&nbsp;&nbsp;3&nbsp;&nbsp;&nbsp;&nbsp;&nbsp;&nbsp;&nbsp;&nbsp;&nbsp;&nbsp;&nbsp;&nbsp;&nbsp;&nbsp;&nbsp;&nbsp;&nbsp;&nbsp;&nbsp;4</p><p style=""font-size:14px"">Not at all familiar&nbsp;&nbsp;&nbsp;&nbsp;A little familiar&nbsp;&nbsp;&nbsp;Moderately familiar&nbsp;&nbsp;&nbsp;Extremely familiar</p><p>(press the corresponding number on your keyboard)</p>","","51","","","FAM-RESPONSE","","","","","","","","sounds/C/FAM/P001.mp3","partword","","","","","","","","","","","","","","","","","","","",""
"html-keyboard-response","235","1620226","0.0-7.0-1.0-0.5","3","0","jm9zsy8l03dovvk","","null","","","","null","","","","","","","","","","","","","","","","","","","","","","","","","","","","","","","",""
"audio-keyboard-response","236","1621169","0.0-7.0-1.0-1.5","3","0","jm9zsy8l03dovvk","","null","","sounds/C/FAM/N002.mp3","","null","","","","","","","","","","","","","","","","","","","","","","","","","","","","","","","",""
"html-keyboard-response","237","1624322","0.0-7.0-1.0-2.5","3","0","jm9zsy8l03dovvk","","2647.899999976158","","<p>How familiar did this sound to you?</p><p>1&nbsp;&nbsp;&nbsp;&nbsp;&nbsp;&nbsp;&nbsp;&nbsp;&nbsp;&nbsp;&nbsp;&nbsp;&nbsp;&nbsp;&nbsp;&nbsp;&nbsp;&nbsp;&nbsp;2&nbsp;&nbsp;&nbsp;&nbsp;&nbsp;&nbsp;&nbsp;&nbsp;&nbsp;&nbsp;&nbsp;&nbsp;&nbsp;&nbsp;&nbsp;&nbsp;&nbsp;&nbsp;&nbsp;3&nbsp;&nbsp;&nbsp;&nbsp;&nbsp;&nbsp;&nbsp;&nbsp;&nbsp;&nbsp;&nbsp;&nbsp;&nbsp;&nbsp;&nbsp;&nbsp;&nbsp;&nbsp;&nbsp;4</p><p style=""font-size:14px"">Not at all familiar&nbsp;&nbsp;&nbsp;&nbsp;A little familiar&nbsp;&nbsp;&nbsp;Moderately familiar&nbsp;&nbsp;&nbsp;Extremely familiar</p><p>(press the corresponding number on your keyboard)</p>","","50","","","FAM-RESPONSE","","","","","","","","sounds/C/FAM/N002.mp3","nonword","","","","","","","","","","","","","","","","","","","",""
"html-keyboard-response","238","1626328","0.0-7.0-1.0-0.6","3","0","jm9zsy8l03dovvk","","null","","","","null","","","","","","","","","","","","","","","","","","","","","","","","","","","","","","","",""
"audio-keyboard-response","239","1627263","0.0-7.0-1.0-1.6","3","0","jm9zsy8l03dovvk","","null","","sounds/C/FAM/W001.mp3","","null","","","","","","","","","","","","","","","","","","","","","","","","","","","","","","","",""
"html-keyboard-response","240","1629096","0.0-7.0-1.0-2.6","3","0","jm9zsy8l03dovvk","","1331.6999999284744","","<p>How familiar did this sound to you?</p><p>1&nbsp;&nbsp;&nbsp;&nbsp;&nbsp;&nbsp;&nbsp;&nbsp;&nbsp;&nbsp;&nbsp;&nbsp;&nbsp;&nbsp;&nbsp;&nbsp;&nbsp;&nbsp;&nbsp;2&nbsp;&nbsp;&nbsp;&nbsp;&nbsp;&nbsp;&nbsp;&nbsp;&nbsp;&nbsp;&nbsp;&nbsp;&nbsp;&nbsp;&nbsp;&nbsp;&nbsp;&nbsp;&nbsp;3&nbsp;&nbsp;&nbsp;&nbsp;&nbsp;&nbsp;&nbsp;&nbsp;&nbsp;&nbsp;&nbsp;&nbsp;&nbsp;&nbsp;&nbsp;&nbsp;&nbsp;&nbsp;&nbsp;4</p><p style=""font-size:14px"">Not at all familiar&nbsp;&nbsp;&nbsp;&nbsp;A little familiar&nbsp;&nbsp;&nbsp;Moderately familiar&nbsp;&nbsp;&nbsp;Extremely familiar</p><p>(press the corresponding number on your keyboard)</p>","","52","","","FAM-RESPONSE","","","","","","","","sounds/C/FAM/W001.mp3","word","","","","","","","","","","","","","","","","","","","",""
"html-keyboard-response","241","1631102","0.0-7.0-1.0-0.7","3","0","jm9zsy8l03dovvk","","null","","","","null","","","","","","","","","","","","","","","","","","","","","","","","","","","","","","","",""
"audio-keyboard-response","242","1632047","0.0-7.0-1.0-1.7","3","0","jm9zsy8l03dovvk","","null","","sounds/C/FAM/P002.mp3","","null","","","","","","","","","","","","","","","","","","","","","","","","","","","","","","","",""
"html-keyboard-response","243","1634040","0.0-7.0-1.0-2.7","3","0","jm9zsy8l03dovvk","","1489.2999999523163","","<p>How familiar did this sound to you?</p><p>1&nbsp;&nbsp;&nbsp;&nbsp;&nbsp;&nbsp;&nbsp;&nbsp;&nbsp;&nbsp;&nbsp;&nbsp;&nbsp;&nbsp;&nbsp;&nbsp;&nbsp;&nbsp;&nbsp;2&nbsp;&nbsp;&nbsp;&nbsp;&nbsp;&nbsp;&nbsp;&nbsp;&nbsp;&nbsp;&nbsp;&nbsp;&nbsp;&nbsp;&nbsp;&nbsp;&nbsp;&nbsp;&nbsp;3&nbsp;&nbsp;&nbsp;&nbsp;&nbsp;&nbsp;&nbsp;&nbsp;&nbsp;&nbsp;&nbsp;&nbsp;&nbsp;&nbsp;&nbsp;&nbsp;&nbsp;&nbsp;&nbsp;4</p><p style=""font-size:14px"">Not at all familiar&nbsp;&nbsp;&nbsp;&nbsp;A little familiar&nbsp;&nbsp;&nbsp;Moderately familiar&nbsp;&nbsp;&nbsp;Extremely familiar</p><p>(press the corresponding number on your keyboard)</p>","","50","","","FAM-RESPONSE","","","","","","","","sounds/C/FAM/P002.mp3","partword","","","","","","","","","","","","","","","","","","","",""
"html-keyboard-response","244","1636046","0.0-7.0-1.0-0.8","3","0","jm9zsy8l03dovvk","","null","","","","null","","","","","","","","","","","","","","","","","","","","","","","","","","","","","","","",""
"audio-keyboard-response","245","1636987","0.0-7.0-1.0-1.8","3","0","jm9zsy8l03dovvk","","null","","sounds/C/FAM/P004.mp3","","null","","","","","","","","","","","","","","","","","","","","","","","","","","","","","","","",""
"html-keyboard-response","246","1638099","0.0-7.0-1.0-2.8","3","0","jm9zsy8l03dovvk","","606.3999999761581","","<p>How familiar did this sound to you?</p><p>1&nbsp;&nbsp;&nbsp;&nbsp;&nbsp;&nbsp;&nbsp;&nbsp;&nbsp;&nbsp;&nbsp;&nbsp;&nbsp;&nbsp;&nbsp;&nbsp;&nbsp;&nbsp;&nbsp;2&nbsp;&nbsp;&nbsp;&nbsp;&nbsp;&nbsp;&nbsp;&nbsp;&nbsp;&nbsp;&nbsp;&nbsp;&nbsp;&nbsp;&nbsp;&nbsp;&nbsp;&nbsp;&nbsp;3&nbsp;&nbsp;&nbsp;&nbsp;&nbsp;&nbsp;&nbsp;&nbsp;&nbsp;&nbsp;&nbsp;&nbsp;&nbsp;&nbsp;&nbsp;&nbsp;&nbsp;&nbsp;&nbsp;4</p><p style=""font-size:14px"">Not at all familiar&nbsp;&nbsp;&nbsp;&nbsp;A little familiar&nbsp;&nbsp;&nbsp;Moderately familiar&nbsp;&nbsp;&nbsp;Extremely familiar</p><p>(press the corresponding number on your keyboard)</p>","","51","","","FAM-RESPONSE","","","","","","","","sounds/C/FAM/P004.mp3","partword","","","","","","","","","","","","","","","","","","","",""
"html-keyboard-response","247","1640104","0.0-7.0-1.0-0.9","3","0","jm9zsy8l03dovvk","","null","","","","null","","","","","","","","","","","","","","","","","","","","","","","","","","","","","","","",""
"audio-keyboard-response","248","1641041","0.0-7.0-1.0-1.9","3","0","jm9zsy8l03dovvk","","null","","sounds/C/FAM/P003.mp3","","null","","","","","","","","","","","","","","","","","","","","","","","","","","","","","","","",""
"html-keyboard-response","249","1644092","0.0-7.0-1.0-2.9","3","0","jm9zsy8l03dovvk","","2548","","<p>How familiar did this sound to you?</p><p>1&nbsp;&nbsp;&nbsp;&nbsp;&nbsp;&nbsp;&nbsp;&nbsp;&nbsp;&nbsp;&nbsp;&nbsp;&nbsp;&nbsp;&nbsp;&nbsp;&nbsp;&nbsp;&nbsp;2&nbsp;&nbsp;&nbsp;&nbsp;&nbsp;&nbsp;&nbsp;&nbsp;&nbsp;&nbsp;&nbsp;&nbsp;&nbsp;&nbsp;&nbsp;&nbsp;&nbsp;&nbsp;&nbsp;3&nbsp;&nbsp;&nbsp;&nbsp;&nbsp;&nbsp;&nbsp;&nbsp;&nbsp;&nbsp;&nbsp;&nbsp;&nbsp;&nbsp;&nbsp;&nbsp;&nbsp;&nbsp;&nbsp;4</p><p style=""font-size:14px"">Not at all familiar&nbsp;&nbsp;&nbsp;&nbsp;A little familiar&nbsp;&nbsp;&nbsp;Moderately familiar&nbsp;&nbsp;&nbsp;Extremely familiar</p><p>(press the corresponding number on your keyboard)</p>","","51","","","FAM-RESPONSE","","","","","","","","sounds/C/FAM/P003.mp3","partword","","","","","","","","","","","","","","","","","","","",""
"html-keyboard-response","250","1646098","0.0-7.0-1.0-0.10","3","0","jm9zsy8l03dovvk","","null","","","","null","","","","","","","","","","","","","","","","","","","","","","","","","","","","","","","",""
"audio-keyboard-response","251","1647042","0.0-7.0-1.0-1.10","3","0","jm9zsy8l03dovvk","","null","","sounds/C/FAM/W003.mp3","","null","","","","","","","","","","","","","","","","","","","","","","","","","","","","","","","",""
"html-keyboard-response","252","1648267","0.0-7.0-1.0-2.10","3","0","jm9zsy8l03dovvk","","720.8000000715256","","<p>How familiar did this sound to you?</p><p>1&nbsp;&nbsp;&nbsp;&nbsp;&nbsp;&nbsp;&nbsp;&nbsp;&nbsp;&nbsp;&nbsp;&nbsp;&nbsp;&nbsp;&nbsp;&nbsp;&nbsp;&nbsp;&nbsp;2&nbsp;&nbsp;&nbsp;&nbsp;&nbsp;&nbsp;&nbsp;&nbsp;&nbsp;&nbsp;&nbsp;&nbsp;&nbsp;&nbsp;&nbsp;&nbsp;&nbsp;&nbsp;&nbsp;3&nbsp;&nbsp;&nbsp;&nbsp;&nbsp;&nbsp;&nbsp;&nbsp;&nbsp;&nbsp;&nbsp;&nbsp;&nbsp;&nbsp;&nbsp;&nbsp;&nbsp;&nbsp;&nbsp;4</p><p style=""font-size:14px"">Not at all familiar&nbsp;&nbsp;&nbsp;&nbsp;A little familiar&nbsp;&nbsp;&nbsp;Moderately familiar&nbsp;&nbsp;&nbsp;Extremely familiar</p><p>(press the corresponding number on your keyboard)</p>","","52","","","FAM-RESPONSE","","","","","","","","sounds/C/FAM/W003.mp3","word","","","","","","","","","","","","","","","","","","","",""
"html-keyboard-response","253","1650275","0.0-7.0-1.0-0.11","3","0","jm9zsy8l03dovvk","","null","","","","null","","","","","","","","","","","","","","","","","","","","","","","","","","","","","","","",""
"audio-keyboard-response","254","1651212","0.0-7.0-1.0-1.11","3","0","jm9zsy8l03dovvk","","null","","sounds/C/FAM/N004.mp3","","null","","","","","","","","","","","","","","","","","","","","","","","","","","","","","","","",""
"html-keyboard-response","255","1652123","0.0-7.0-1.0-2.11","3","0","jm9zsy8l03dovvk","","407","","<p>How familiar did this sound to you?</p><p>1&nbsp;&nbsp;&nbsp;&nbsp;&nbsp;&nbsp;&nbsp;&nbsp;&nbsp;&nbsp;&nbsp;&nbsp;&nbsp;&nbsp;&nbsp;&nbsp;&nbsp;&nbsp;&nbsp;2&nbsp;&nbsp;&nbsp;&nbsp;&nbsp;&nbsp;&nbsp;&nbsp;&nbsp;&nbsp;&nbsp;&nbsp;&nbsp;&nbsp;&nbsp;&nbsp;&nbsp;&nbsp;&nbsp;3&nbsp;&nbsp;&nbsp;&nbsp;&nbsp;&nbsp;&nbsp;&nbsp;&nbsp;&nbsp;&nbsp;&nbsp;&nbsp;&nbsp;&nbsp;&nbsp;&nbsp;&nbsp;&nbsp;4</p><p style=""font-size:14px"">Not at all familiar&nbsp;&nbsp;&nbsp;&nbsp;A little familiar&nbsp;&nbsp;&nbsp;Moderately familiar&nbsp;&nbsp;&nbsp;Extremely familiar</p><p>(press the corresponding number on your keyboard)</p>","","52","","","FAM-RESPONSE","","","","","","","","sounds/C/FAM/N004.mp3","nonword","","","","","","","","","","","","","","","","","","","",""
"html-button-response","256","1676420","0.0-8.0-0.0","3","0","jm9zsy8l03dovvk","","23294.900000095367","","<p>You will now listen to longer sound sequences.</p><p>Each sound sequence will last about 16 seconds.</p><p>On each trial, you will be given a <u>TARGET SOUND</u>. Your task is to listen very carefully for this sound.</p><p>Every time you hear the <u>TARGET SOUND</u>, you will press the <b>SPACEBAR</b> as quickly and accurately as you can.</p>","0","","","","","","","","","","","","","","","","","","","","","","","","","","","","","","","","",""
"html-button-response","257","1698391","0.0-8.0-1.0","3","0","jm9zsy8l03dovvk","","21714.600000023842","","<p>It is very important that you make your responses as quickly and accurately as possible.</p><p>To help you make your responses, you will be able to listen to the <u>TARGET SOUND</u> at the beginning of each trial.</p><p>There will be 36 total trials.</p><p><b>Note: This is meant to be a difficult task. We simply want you to try your best.</p>","0","","","","","","","","","","","","","","","","","","","","","","","","","","","","","","","","",""
"html-button-response","258","1700482","0.0-8.0-2.0-0.0","3","0","jm9zsy8l03dovvk","","1837.2999999523163","","<p>Trial 1 of 36</p>","0","","","","","","","","","","","","","","RU","sounds/syllables/ru_SWS.wav","1200,6600,9300,12000","2","","","","","","","","","","","","","","","",""
"html-keyboard-response","259","1704990","0.0-8.0-2.0-1.0","3","0","jm9zsy8l03dovvk","","4506.100000023842","","","","80","","","","","","","","","","","","","RU","","1200,6600,9300,12000","2","","","","","","","","","","","","","","","",""
"audio-keyboard-response","260","1705798","0.0-8.0-2.0-2.0-0.0","3","0","jm9zsy8l03dovvk","","null","","sounds/syllables/ru_SWS.wav","","null","","","","","","","","","","","","","","","","","","","","","","","","","","","","","","","",""
"html-keyboard-response","261","1708874","0.0-8.0-2.0-2.0-1.0","3","0","jm9zsy8l03dovvk","","3076","","<p>To replay the <u>TARGET SOUND</u>, press P.</p> When you are ready to begin, press SPACEBAR.","","80","","","","","","","","","","","","","","","","","","","","","","","","","","","","","","","",""
"audio-keyboard-response","262","1709678","0.0-8.0-2.0-2.1-0.1","3","0","jm9zsy8l03dovvk","","null","","sounds/syllables/ru_SWS.wav","","null","","","","","","","","","","","","","","","","","","","","","","","","","","","","","","","",""
"html-keyboard-response","263","1711212","0.0-8.0-2.0-2.1-1.1","3","0","jm9zsy8l03dovvk","","1533.1999999284744","","<p>To replay the <u>TARGET SOUND</u>, press P.</p> When you are ready to begin, press SPACEBAR.","","32","","","","","","","","","","","","","","","","","","","","","","","","","","","","","","","",""
"audio-keyboard-response","264","1726162","0.0-8.0-2.0-3.0","3","0","jm9zsy8l03dovvk","","13090","","sounds/C/TD/RU_07_TD.mp3","","32","","","TD_SUMMARY","","","","","","","","","","RU","","1200,6600,9300,12000","2","1200","6600","9300","12000","null","null","null","1085.0999999046326","13085.099999904633","2","","","","","",""
"html-button-response","265","1731404","0.0-8.0-2.0-0.1","3","0","jm9zsy8l03dovvk","","5240.299999952316","","<p>Trial 2 of 36</p>","0","","","","","","","","","","","","","","ME","sounds/syllables/me_SWS.wav","900,4500,6300,9000","1","","","","","","","","","","","","","","","",""
"html-keyboard-response","266","1733538","0.0-8.0-2.0-1.1","3","0","jm9zsy8l03dovvk","","2132.3000000715256","","","","80","","","","","","","","","","","","","ME","","900,4500,6300,9000","1","","","","","","","","","","","","","","","",""
"audio-keyboard-response","267","1733836","0.0-8.0-2.0-2.2-0.2","3","0","jm9zsy8l03dovvk","","null","","sounds/syllables/me_SWS.wav","","null","","","","","","","","","","","","","","","","","","","","","","","","","","","","","","","",""
"html-keyboard-response","268","1735286","0.0-8.0-2.0-2.2-1.2","3","0","jm9zsy8l03dovvk","","1449.6000000238419","","<p>To replay the <u>TARGET SOUND</u>, press P.</p> When you are ready to begin, press SPACEBAR.","","80","","","","","","","","","","","","","","","","","","","","","","","","","","","","","","","",""
"audio-keyboard-response","269","1736095","0.0-8.0-2.0-2.3-0.3","3","0","jm9zsy8l03dovvk","","null","","sounds/syllables/me_SWS.wav","","null","","","","","","","","","","","","","","","","","","","","","","","","","","","","","","","",""
"html-keyboard-response","270","1736963","0.0-8.0-2.0-2.3-1.3","3","0","jm9zsy8l03dovvk","","867.0999999046326","","<p>To replay the <u>TARGET SOUND</u>, press P.</p> When you are ready to begin, press SPACEBAR.","","80","","","","","","","","","","","","","","","","","","","","","","","","","","","","","","","",""
"audio-keyboard-response","271","1737763","0.0-8.0-2.0-2.4-0.4","3","0","jm9zsy8l03dovvk","","null","","sounds/syllables/me_SWS.wav","","null","","","","","","","","","","","","","","","","","","","","","","","","","","","","","","","",""
"html-keyboard-response","272","1738867","0.0-8.0-2.0-2.4-1.4","3","0","jm9zsy8l03dovvk","","1103.6999999284744","","<p>To replay the <u>TARGET SOUND</u>, press P.</p> When you are ready to begin, press SPACEBAR.","","32","","","","","","","","","","","","","","","","","","","","","","","","","","","","","","","",""
"audio-keyboard-response","273","1753818","0.0-8.0-2.0-3.1","3","0","jm9zsy8l03dovvk","","4644","","sounds/C/TD/ME_05_TD.mp3","","32","","","TD_SUMMARY","","","","","","","","","","ME","","900,4500,6300,9000","1","900","4500","6300","9000","null","871.2999999523163","725.1999999284744","606","_4646.600000023842_5371.299999952316_7025.199999928474_8381.299999952316_9606_10255.399999976158_11964.100000023842","3","","","","","",""
"html-button-response","274","1754994","0.0-8.0-2.0-0.2","3","0","jm9zsy8l03dovvk","","1174.2000000476837","","<p>Trial 3 of 36</p>","0","","","","","","","","","","","","","","PU","sounds/syllables/pu_SWS.wav","1500,6000,7800,13200","3","","","","","","","","","","","","","","","",""
"html-keyboard-response","275","1756130","0.0-8.0-2.0-1.2","3","0","jm9zsy8l03dovvk","","1135.6000000238419","","","","80","","","","","","","","","","","","","PU","","1500,6000,7800,13200","3","","","","","","","","","","","","","","","",""
"audio-keyboard-response","276","1756436","0.0-8.0-2.0-2.5-0.5","3","0","jm9zsy8l03dovvk","","null","","sounds/syllables/pu_SWS.wav","","null","","","","","","","","","","","","","","","","","","","","","","","","","","","","","","","",""
"html-keyboard-response","277","1757382","0.0-8.0-2.0-2.5-1.5","3","0","jm9zsy8l03dovvk","","946","","<p>To replay the <u>TARGET SOUND</u>, press P.</p> When you are ready to begin, press SPACEBAR.","","80","","","","","","","","","","","","","","","","","","","","","","","","","","","","","","","",""
"audio-keyboard-response","278","1758185","0.0-8.0-2.0-2.6-0.6","3","0","jm9zsy8l03dovvk","","null","","sounds/syllables/pu_SWS.wav","","null","","","","","","","","","","","","","","","","","","","","","","","","","","","","","","","",""
"html-keyboard-response","279","1759132","0.0-8.0-2.0-2.6-1.6","3","0","jm9zsy8l03dovvk","","945.7999999523163","","<p>To replay the <u>TARGET SOUND</u>, press P.</p> When you are ready to begin, press SPACEBAR.","","80","","","","","","","","","","","","","","","","","","","","","","","","","","","","","","","",""
"audio-keyboard-response","280","1759928","0.0-8.0-2.0-2.7-0.7","3","0","jm9zsy8l03dovvk","","null","","sounds/syllables/pu_SWS.wav","","null","","","","","","","","","","","","","","","","","","","","","","","","","","","","","","","",""
"html-keyboard-response","281","1760893","0.0-8.0-2.0-2.7-1.7","3","0","jm9zsy8l03dovvk","","964.0999999046326","","<p>To replay the <u>TARGET SOUND</u>, press P.</p> When you are ready to begin, press SPACEBAR.","","32","","","","","","","","","","","","","","","","","","","","","","","","","","","","","","","",""
"audio-keyboard-response","282","1775839","0.0-8.0-2.0-3.2","3","0","jm9zsy8l03dovvk","","1892","","sounds/C/TD/PU_04_TD.mp3","","32","","","TD_SUMMARY","","","","","","","","","","PU","","1500,6000,7800,13200","3","1500","6000","7800","13200","385.8000000715256","512","436.5","1098.4000000953674","________1885.8000000715256_4837.600000023842_6512_8236.5_12409.600000023842_14298.400000095367","3","","","","","",""
"html-button-response","283","1776798","0.0-8.0-2.0-0.3","3","0","jm9zsy8l03dovvk","","957.6000000238419","","<p>Trial 4 of 36</p>","0","","","","","","","","","","","","","","FU","sounds/syllables/fu_SWS.wav","5100,6900,9600,13200","3","","","","","","","","","","","","","","","",""
"html-keyboard-response","284","1778258","0.0-8.0-2.0-1.3","3","0","jm9zsy8l03dovvk","","1459.3000000715256","","","","80","","","","","","","","","","","","","FU","","5100,6900,9600,13200","3","","","","","","","","","","","","","","","",""
"audio-keyboard-response","285","1778555","0.0-8.0-2.0-2.8-0.8","3","0","jm9zsy8l03dovvk","","null","","sounds/syllables/fu_SWS.wav","","null","","","","","","","","","","","","","","","","","","","","","","","","","","","","","","","",""
"html-keyboard-response","286","1779258","0.0-8.0-2.0-2.8-1.8","3","0","jm9zsy8l03dovvk","","702.6000000238419","","<p>To replay the <u>TARGET SOUND</u>, press P.</p> When you are ready to begin, press SPACEBAR.","","80","","","","","","","","","","","","","","","","","","","","","","","","","","","","","","","",""
"audio-keyboard-response","287","1780061","0.0-8.0-2.0-2.9-0.9","3","0","jm9zsy8l03dovvk","","null","","sounds/syllables/fu_SWS.wav","","null","","","","","","","","","","","","","","","","","","","","","","","","","","","","","","","",""
"html-keyboard-response","288","1781002","0.0-8.0-2.0-2.9-1.9","3","0","jm9zsy8l03dovvk","","940.8999999761581","","<p>To replay the <u>TARGET SOUND</u>, press P.</p> When you are ready to begin, press SPACEBAR.","","32","","","","","","","","","","","","","","","","","","","","","","","","","","","","","","","",""
"audio-keyboard-response","289","1795949","0.0-8.0-2.0-3.3","3","0","jm9zsy8l03dovvk","","4760","","sounds/C/TD/FU_05_TD.mp3","","32","","","TD_SUMMARY","","","","","","","","","","FU","","5100,6900,9600,13200","3","5100","6900","9600","13200","774.3000000715256","null","null","null","______________4757.800000071526_5874.300000071526_6890.200000047684_8479.399999976158_11180.700000047684_12899","2","","","","","",""
"html-button-response","290","1797331","0.0-8.0-2.0-0.4","3","0","jm9zsy8l03dovvk","","1380.6000000238419","","<p>Trial 5 of 36</p>","0","","","","","","","","","","","","","","RE","sounds/syllables/re_SWS.wav","1200,3900,5700,10200","2","","","","","","","","","","","","","","","",""
"html-keyboard-response","291","1798505","0.0-8.0-2.0-1.4","3","0","jm9zsy8l03dovvk","","1173.3999999761581","","","","80","","","","","","","","","","","","","RE","","1200,3900,5700,10200","2","","","","","","","","","","","","","","","",""
"audio-keyboard-response","292","1798805","0.0-8.0-2.0-2.10-0.10","3","0","jm9zsy8l03dovvk","","null","","sounds/syllables/re_SWS.wav","","null","","","","","","","","","","","","","","","","","","","","","","","","","","","","","","","",""
"html-keyboard-response","293","1799555","0.0-8.0-2.0-2.10-1.10","3","0","jm9zsy8l03dovvk","","749.8999999761581","","<p>To replay the <u>TARGET SOUND</u>, press P.</p> When you are ready to begin, press SPACEBAR.","","80","","","","","","","","","","","","","","","","","","","","","","","","","","","","","","","",""
"audio-keyboard-response","294","1800357","0.0-8.0-2.0-2.11-0.11","3","0","jm9zsy8l03dovvk","","null","","sounds/syllables/re_SWS.wav","","null","","","","","","","","","","","","","","","","","","","","","","","","","","","","","","","",""
"html-keyboard-response","295","1800759","0.0-8.0-2.0-2.11-1.11","3","0","jm9zsy8l03dovvk","","401.6999999284744","","<p>To replay the <u>TARGET SOUND</u>, press P.</p> When you are ready to begin, press SPACEBAR.","","32","","","","","","","","","","","","","","","","","","","","","","","","","","","","","","","",""
"audio-keyboard-response","296","1815712","0.0-8.0-2.0-3.4","3","0","jm9zsy8l03dovvk","","1579","","sounds/C/TD/RE_07_TD.mp3","","32","","","TD_SUMMARY","","","","","","","","","","RE","","1200,3900,5700,10200","2","1200","3900","5700","10200","381.5","null","977.3999999761581","1000.1999999284744","____________________1581.5_2853.2999999523163_3919.6999999284744_5243.699999928474_6677.399999976158_9513.399999976158_10231.599999904633_11200.199999928474_12767.399999976158","2","","","","","",""
"html-button-response","297","1817403","0.0-8.0-2.0-0.5","3","0","jm9zsy8l03dovvk","","1689.8000000715256","","<p>Trial 6 of 36</p>","0","","","","","","","","","","","","","","RE","sounds/syllables/re_SWS.wav","2100,9300,11100,12900","2","","","","","","","","","","","","","","","",""
"html-keyboard-response","298","1818995","0.0-8.0-2.0-1.5","3","0","jm9zsy8l03dovvk","","1591.1999999284744","","","","80","","","","","","","","","","","","","RE","","2100,9300,11100,12900","2","","","","","","","","","","","","","","","",""
"audio-keyboard-response","299","1819303","0.0-8.0-2.0-2.12-0.12","3","0","jm9zsy8l03dovvk","","null","","sounds/syllables/re_SWS.wav","","null","","","","","","","","","","","","","","","","","","","","","","","","","","","","","","","",""
"html-keyboard-response","300","1821527","0.0-8.0-2.0-2.12-1.12","3","0","jm9zsy8l03dovvk","","2223.6999999284744","","<p>To replay the <u>TARGET SOUND</u>, press P.</p> When you are ready to begin, press SPACEBAR.","","32","","","","","","","","","","","","","","","","","","","","","","","","","","","","","","","",""
"audio-keyboard-response","301","1836476","0.0-8.0-2.0-3.5","3","0","jm9zsy8l03dovvk","","1759","","sounds/C/TD/RE_01_TD.mp3","","32","","","TD_SUMMARY","","","","","","","","","","RE","","2100,9300,11100,12900","2","2100","9300","11100","12900","695.8999999761581","null","null","386.89999997615814","_____________________________1753.8999999761581_2795.899999976158_3599.1999999284744_4688.100000023842_6321.299999952316_8612.699999928474_10548_13286.899999976158","1","","","","","",""
"html-button-response","302","1837554","0.0-8.0-2.0-0.6","3","0","jm9zsy8l03dovvk","","1077","","<p>Trial 7 of 36</p>","0","","","","","","","","","","","","","","SU","sounds/syllables/su_SWS.wav","1800,3600,7200,12600","1","","","","","","","","","","","","","","","",""
"html-keyboard-response","303","1839481","0.0-8.0-2.0-1.6","3","0","jm9zsy8l03dovvk","","1926.1000000238419","","","","80","","","","","","","","","","","","","SU","","1800,3600,7200,12600","1","","","","","","","","","","","","","","","",""
"audio-keyboard-response","304","1839783","0.0-8.0-2.0-2.13-0.13","3","0","jm9zsy8l03dovvk","","null","","sounds/syllables/su_SWS.wav","","null","","","","","","","","","","","","","","","","","","","","","","","","","","","","","","","",""
"html-keyboard-response","305","1841423","0.0-8.0-2.0-2.13-1.13","3","0","jm9zsy8l03dovvk","","1639.2999999523163","","<p>To replay the <u>TARGET SOUND</u>, press P.</p> When you are ready to begin, press SPACEBAR.","","32","","","","","","","","","","","","","","","","","","","","","","","","","","","","","","","",""
"audio-keyboard-response","306","1856377","0.0-8.0-2.0-3.6","3","0","jm9zsy8l03dovvk","","2461","","sounds/C/TD/SU_01_TD.mp3","","32","","","TD_SUMMARY","","","","","","","","","","SU","","1800,3600,7200,12600","1","1800","3600","7200","12600","666.2999999523163","745.3999999761581","631.2999999523163","749.7000000476837","_____________________________________2466.2999999523163_4345.399999976158_7831.299999952316_11407.200000047684_13349.700000047684","1","","","","","",""
"html-button-response","307","1857507","0.0-8.0-2.0-0.7","3","0","jm9zsy8l03dovvk","","1128.6999999284744","","<p>Trial 8 of 36</p>","0","","","","","","","","","","","","","","GE","sounds/syllables/ge_SWS.wav","3300,5100,6900,12300","3","","","","","","","","","","","","","","","",""
"html-keyboard-response","308","1858793","0.0-8.0-2.0-1.7","3","0","jm9zsy8l03dovvk","","1286.1000000238419","","","","80","","","","","","","","","","","","","GE","","3300,5100,6900,12300","3","","","","","","","","","","","","","","","",""
"audio-keyboard-response","309","1859093","0.0-8.0-2.0-2.14-0.14","3","0","jm9zsy8l03dovvk","","null","","sounds/syllables/ge_SWS.wav","","null","","","","","","","","","","","","","","","","","","","","","","","","","","","","","","","",""
"html-keyboard-response","310","1860420","0.0-8.0-2.0-2.14-1.14","3","0","jm9zsy8l03dovvk","","1326.2999999523163","","<p>To replay the <u>TARGET SOUND</u>, press P.</p> When you are ready to begin, press SPACEBAR.","","32","","","","","","","","","","","","","","","","","","","","","","","","","","","","","","","",""
"audio-keyboard-response","311","1875374","0.0-8.0-2.0-3.7","3","0","jm9zsy8l03dovvk","","1213","","sounds/C/TD/GE_09_TD.mp3","","32","","","TD_SUMMARY","","","","","","","","","","GE","","3300,5100,6900,12300","3","3300","5100","6900","12300","391.2000000476837","null","null","533.8000000715256","__________________________________________1214.8000000715256_2849.5_3691.2000000476837_5230_7068.100000023842_9614.700000047684_11117.600000023842_12833.800000071526","1","","","","","",""
"html-button-response","312","1879559","0.0-8.0-2.0-0.8","3","0","jm9zsy8l03dovvk","","4183.300000071526","","<p>Trial 9 of 36</p>","0","","","","","","","","","","","","","","TA","sounds/syllables/ta_SWS.wav","2100,4800,10200,12000","2","","","","","","","","","","","","","","","",""
"html-keyboard-response","313","1880927","0.0-8.0-2.0-1.8","3","0","jm9zsy8l03dovvk","","1367.5","","","","80","","","","","","","","","","","","","TA","","2100,4800,10200,12000","2","","","","","","","","","","","","","","","",""
"audio-keyboard-response","314","1881229","0.0-8.0-2.0-2.15-0.15","3","0","jm9zsy8l03dovvk","","null","","sounds/syllables/ta_SWS.wav","","null","","","","","","","","","","","","","","","","","","","","","","","","","","","","","","","",""
"html-keyboard-response","315","1882408","0.0-8.0-2.0-2.15-1.15","3","0","jm9zsy8l03dovvk","","1178.2000000476837","","<p>To replay the <u>TARGET SOUND</u>, press P.</p> When you are ready to begin, press SPACEBAR.","","32","","","","","","","","","","","","","","","","","","","","","","","","","","","","","","","",""
"audio-keyboard-response","316","1897354","0.0-8.0-2.0-3.8","3","0","jm9zsy8l03dovvk","","639","","sounds/C/TD/TA_06_TD.mp3","","32","","","TD_SUMMARY","","","","","","","","","","TA","","2100,4800,10200,12000","2","2100","4800","10200","12000","875.6999999284744","817.1999999284744","null","null","__________________________________________________641.8999999761581_2156.5_2975.6999999284744_4854.299999952316_5617.199999928474_6390.5_7288.099999904633_8384.099999904633_9739.5_11891.5_13699.699999928474","1","","","","","",""
"html-button-response","317","1898288","0.0-8.0-2.0-0.9","3","0","jm9zsy8l03dovvk","","932.3000000715256","","<p>Trial 10 of 36</p>","0","","","","","","","","","","","","","","PU","sounds/syllables/pu_SWS.wav","3300,9600,11400,13200","3","","","","","","","","","","","","","","","",""
"html-keyboard-response","318","1899574","0.0-8.0-2.0-1.9","3","0","jm9zsy8l03dovvk","","1286","","","","80","","","","","","","","","","","","","PU","","3300,9600,11400,13200","3","","","","","","","","","","","","","","","",""
"audio-keyboard-response","319","1899873","0.0-8.0-2.0-2.16-0.16","3","0","jm9zsy8l03dovvk","","null","","sounds/syllables/pu_SWS.wav","","null","","","","","","","","","","","","","","","","","","","","","","","","","","","","","","","",""
"html-keyboard-response","320","1900459","0.0-8.0-2.0-2.16-1.16","3","0","jm9zsy8l03dovvk","","586","","<p>To replay the <u>TARGET SOUND</u>, press P.</p> When you are ready to begin, press SPACEBAR.","","32","","","","","","","","","","","","","","","","","","","","","","","","","","","","","","","",""
"audio-keyboard-response","321","1915413","0.0-8.0-2.0-3.9","3","0","jm9zsy8l03dovvk","","656","","sounds/C/TD/PU_09_TD.mp3","","32","","","TD_SUMMARY","","","","","","","","","","PU","","3300,9600,11400,13200","3","3300","9600","11400","13200","531.3000000715256","1172.3000000715256","586.2000000476837","1122.8999999761581","_____________________________________________________________655.8999999761581_1727.7000000476837_2678.399999976158_3366.7000000476837_3831.3000000715256_5652.600000023842_6450.300000071526_7732.5_8395.200000047684_9817.700000047684_10772.300000071526_11986.200000047684_13311.800000071526_14322.899999976158","1","","","","","",""
"html-button-response","322","1916429","0.0-8.0-2.0-0.10","3","0","jm9zsy8l03dovvk","","1014.7999999523163","","<p>Trial 11 of 36</p>","0","","","","","","","","","","","","","","FE","sounds/syllables/fe_SWS.wav","1200,5700,10200,12900","2","","","","","","","","","","","","","","","",""
"html-keyboard-response","323","1917598","0.0-8.0-2.0-1.10","3","0","jm9zsy8l03dovvk","","1168.3999999761581","","","","80","","","","","","","","","","","","","FE","","1200,5700,10200,12900","2","","","","","","","","","","","","","","","",""
"audio-keyboard-response","324","1917903","0.0-8.0-2.0-2.17-0.17","3","0","jm9zsy8l03dovvk","","null","","sounds/syllables/fe_SWS.wav","","null","","","","","","","","","","","","","","","","","","","","","","","","","","","","","","","",""
"html-keyboard-response","325","1918693","0.0-8.0-2.0-2.17-1.17","3","0","jm9zsy8l03dovvk","","790","","<p>To replay the <u>TARGET SOUND</u>, press P.</p> When you are ready to begin, press SPACEBAR.","","32","","","","","","","","","","","","","","","","","","","","","","","","","","","","","","","",""
"audio-keyboard-response","326","1933645","0.0-8.0-2.0-3.10","3","0","jm9zsy8l03dovvk","","650","","sounds/C/TD/FE_04_TD.mp3","","32","","","TD_SUMMARY","","","","","","","","","","FE","","1200,5700,10200,12900","2","1200","5700","10200","12900","null","291.1999999284744","1185.7999999523163","1022.1000000238419","___________________________________________________________________________654.1000000238419_1223.1000000238419_5991.199999928474_9027.699999928474_9726.600000023842_11385.799999952316_13922.100000023842","1","","","","","",""
"html-button-response","327","1938273","0.0-8.0-2.0-0.11","3","0","jm9zsy8l03dovvk","","4626.5","","<p>Trial 12 of 36</p>","0","","","","","","","","","","","","","","ME","sounds/syllables/me_SWS.wav","900,6300,10800,12600","1","","","","","","","","","","","","","","","",""
"html-keyboard-response","328","1939911","0.0-8.0-2.0-1.11","3","0","jm9zsy8l03dovvk","","1637","","","","80","","","","","","","","","","","","","ME","","900,6300,10800,12600","1","","","","","","","","","","","","","","","",""
"audio-keyboard-response","329","1940213","0.0-8.0-2.0-2.18-0.18","3","0","jm9zsy8l03dovvk","","null","","sounds/syllables/me_SWS.wav","","null","","","","","","","","","","","","","","","","","","","","","","","","","","","","","","","",""
"html-keyboard-response","330","1941541","0.0-8.0-2.0-2.18-1.18","3","0","jm9zsy8l03dovvk","","1327","","<p>To replay the <u>TARGET SOUND</u>, press P.</p> When you are ready to begin, press SPACEBAR.","","32","","","","","","","","","","","","","","","","","","","","","","","","","","","","","","","",""
"audio-keyboard-response","331","1956494","0.0-8.0-2.0-3.11","3","0","jm9zsy8l03dovvk","","1486","","sounds/C/TD/ME_10_TD.mp3","","32","","","TD_SUMMARY","","","","","","","","","","ME","","900,6300,10800,12600","1","900","6300","10800","12600","1109.7999999523163","1014.6000000238419","570.5","1143.7999999523163","__________________________________________________________________________________1490.2999999523163_2009.7999999523163_3781.2999999523163_7314.600000023842_9312.399999976158_10854_11370.5_13361.199999928474_13743.799999952316","1","","","","","",""
"html-button-response","332","1957933","0.0-8.0-2.0-0.12","3","0","jm9zsy8l03dovvk","","1437.1999999284744","","<p>Trial 13 of 36</p>","0","","","","","","","","","","","","","","FU","sounds/syllables/fu_SWS.wav","3300,6000,8700,12300","3","","","","","","","","","","","","","","","",""
"html-keyboard-response","333","1959142","0.0-8.0-2.0-1.12","3","0","jm9zsy8l03dovvk","","1209","","","","80","","","","","","","","","","","","","FU","","3300,6000,8700,12300","3","","","","","","","","","","","","","","","",""
"audio-keyboard-response","334","1959442","0.0-8.0-2.0-2.19-0.19","3","0","jm9zsy8l03dovvk","","null","","sounds/syllables/fu_SWS.wav","","null","","","","","","","","","","","","","","","","","","","","","","","","","","","","","","","",""
"html-keyboard-response","335","1960381","0.0-8.0-2.0-2.19-1.19","3","0","jm9zsy8l03dovvk","","938.1000000238419","","<p>To replay the <u>TARGET SOUND</u>, press P.</p> When you are ready to begin, press SPACEBAR.","","80","","","","","","","","","","","","","","","","","","","","","","","","","","","","","","","",""
