"trial_type","trial_index","time_elapsed","internal_node_id","counterbalance","lang_instruct","ParticipantID","view_history","rt","url","stimulus","button_pressed","key_press","correctRESP","correct","designation","location","correctanswer","timeouts","pause_rt01","pause_rt02","train_file","numKeyPress","sound","fam_type","SYLLABLE","EXEMPLAR","TD_LOCS","TD_TYPE","TDLOC_01","TDLOC_02","TDLOC_03","TDLOC_04","TD_RT_01","TD_RT_02","TD_RT_03","TD_RT_04","TD_SUBJ_RTs","number_of_plays","responses","slider_start","response","question_order","syllable","syllable_type"
"pavlovia","0","6","0.0-0.0","2","0","s6jqvxfltgxtf9c","","","","","","","","","","","","","","","","","","","","","","","","","","","","","","","","","","","","","",""
"instructions","1","170666","0.0-1.0","2","0","s6jqvxfltgxtf9c","[{""page_index"":0,""viewing_time"":32836.09999999404},{""page_index"":1,""viewing_time"":137818.29999999702}]","170659.59999999404","","","","","","","","","","","","","","","","","","","","","","","","","","","","","","","","","","","",""
"external-html","2","190923","0.0-2.0","2","0","s6jqvxfltgxtf9c","","19898.80000001192","consent/consent.html","","","","","","","","","","","","","","","","","","","","","","","","","","","","","","","","","","",""
"html-button-response","3","197273","0.0-3.0-0.0-0.0","2","0","s6jqvxfltgxtf9c","","6347","","<p>Welcome to the study. You will first complete a short volume calibration and headphone check.</p><p>Please make sure you are in a quiet listening environment, that you are wearing headphones, and that your computer's volume is turned on.<p></p>","0","","","","","","","","","","","","","","","","","","","","","","","","","","","","","","","","",""
"html-button-response","4","202099","0.0-3.0-0.0-1.0","2","0","s6jqvxfltgxtf9c","","4574.79999999702","","<p>The volume calibration will be first.</p><p>You will hear a thirty-second noise. Please adjust your computer's volume so that this noise is being presented at a comfortable level.<p></p>","0","","","","","","","","","","","","","","","","","","","","","","","","","","","","","","","","",""
"audio-button-response","5","210005","0.0-3.0-0.0-2.0","2","0","s6jqvxfltgxtf9c","","7019","","audCalib/volumetest.mp3","0","","","","","","","","","","","","","","","","","","","","","","","","","","","","","","","","",""
"html-button-response","6","236215","0.0-3.0-1.0-0.0","2","0","s6jqvxfltgxtf9c","","26208.10000000894","","<p>You will now complete a short headphone check.</p><p>On each trial, you will hear three tones. One of these tones will be quieter than the others. Your task is to identify whether the quiet tone occured first, second, or third.</p><p>There are six trials in total.<p></p>","0","","","","","","","","","","","","","","","","","","","","","","","","","","","","","","","","",""
"html-keyboard-response","7","236975","0.0-3.0-1.0-1.0-0.0","2","0","s6jqvxfltgxtf9c","","null","","<div style=""font-size:60px;"">+</div>","","null","","","","","","","","","","","","","","","","","","","","","","","","","","","","","","","",""
"audio-button-response","8","242146","0.0-3.0-1.0-1.0-1.0","2","0","s6jqvxfltgxtf9c","","5160","","audCalib/t1_2.mp3","2","","0","0","headphone-test","","","","","","","","","","","","","","","","","","","","","","","","","","","","",""
"html-keyboard-response","9","242905","0.0-3.0-1.0-1.0-0.1","2","0","s6jqvxfltgxtf9c","","null","","<div style=""font-size:60px;"">+</div>","","null","","","","","","","","","","","","","","","","","","","","","","","","","","","","","","","",""
"audio-button-response","10","250281","0.0-3.0-1.0-1.0-1.1","2","0","s6jqvxfltgxtf9c","","7371","","audCalib/t1_1.mp3","0","","0","1","headphone-test","","","","","","","","","","","","","","","","","","","","","","","","","","","","",""
"html-keyboard-response","11","251043","0.0-3.0-1.0-1.0-0.2","2","0","s6jqvxfltgxtf9c","","null","","<div style=""font-size:60px;"">+</div>","","null","","","","","","","","","","","","","","","","","","","","","","","","","","","","","","","",""
"audio-button-response","12","258465","0.0-3.0-1.0-1.0-1.2","2","0","s6jqvxfltgxtf9c","","7421","","audCalib/t2_1.mp3","0","","1","0","headphone-test","","","","","","","","","","","","","","","","","","","","","","","","","","","","",""
"html-keyboard-response","13","259245","0.0-3.0-1.0-1.0-0.3","2","0","s6jqvxfltgxtf9c","","null","","<div style=""font-size:60px;"">+</div>","","null","","","","","","","","","","","","","","","","","","","","","","","","","","","","","","","",""
"audio-button-response","14","264431","0.0-3.0-1.0-1.0-1.3","2","0","s6jqvxfltgxtf9c","","5179","","audCalib/t3_1.mp3","2","","2","1","headphone-test","","","","","","","","","","","","","","","","","","","","","","","","","","","","",""
"html-keyboard-response","15","265198","0.0-3.0-1.0-1.0-0.4","2","0","s6jqvxfltgxtf9c","","null","","<div style=""font-size:60px;"">+</div>","","null","","","","","","","","","","","","","","","","","","","","","","","","","","","","","","","",""
"audio-button-response","16","269805","0.0-3.0-1.0-1.0-1.4","2","0","s6jqvxfltgxtf9c","","4600","","audCalib/t3_2.mp3","0","","2","0","headphone-test","","","","","","","","","","","","","","","","","","","","","","","","","","","","",""
"html-keyboard-response","17","270574","0.0-3.0-1.0-1.0-0.5","2","0","s6jqvxfltgxtf9c","","null","","<div style=""font-size:60px;"">+</div>","","null","","","","","","","","","","","","","","","","","","","","","","","","","","","","","","","",""
"audio-button-response","18","278516","0.0-3.0-1.0-1.0-1.5","2","0","s6jqvxfltgxtf9c","","7928","","audCalib/t2_2.mp3","1","","1","1","headphone-test","","","","","","","","","","","","","","","","","","","","","","","","","","","","",""
"html-button-response","19","281205","0.0-3.0-2.0","2","0","s6jqvxfltgxtf9c","","2430.0999999940395","","<p>The volume calibration and headphone check are now complete.</p>","0","","","","","","","","","","","","","","","","","","","","","","","","","","","","","","","","",""
"instructions","20","308918","0.0-4.0-0.0","2","0","s6jqvxfltgxtf9c","[{""page_index"":0,""viewing_time"":1708.3999999910593},{""page_index"":1,""viewing_time"":23334.10000000894},{""page_index"":2,""viewing_time"":2669.7999999970198}]","27712.69999998808","","","","","","","","","","","","","","","","","","","","","","","","","","","","","","","","","","","",""
"audio-keyboard-response","21","309218","0.0-4.0-1.0-0.0","2","0","s6jqvxfltgxtf9c","","null","","sounds/induction/left_rev/fu_SWS.wav","","null","","","","","","","","","","","","","","","","","","","","","","","","","","","","","","","",""
"html-button-response","22","311170","0.0-4.0-1.0-1.0","2","0","s6jqvxfltgxtf9c","","1951.2000000029802","","Was the sound coming from the left or the right?","0","","","1","INDUCTION-JUDGMENT","left","0","","","","","","","","","","","","","","","","","","","","","","","","","","",""
"html-keyboard-response","23","312171","0.0-4.0-1.0-2.0","2","0","s6jqvxfltgxtf9c","","null","","<p style=""color:#054d00;""><b>Correct!</b></p>","","null","","","","","","","","","","","","","","","","","","","","","","","","","","","","","","","",""
"audio-keyboard-response","24","312980","0.0-4.0-1.0-0.1","2","0","s6jqvxfltgxtf9c","","null","","sounds/induction/left_rev/fe_SWS.wav","","null","","","","","","","","","","","","","","","","","","","","","","","","","","","","","","","",""
"html-button-response","25","313949","0.0-4.0-1.0-1.1","2","0","s6jqvxfltgxtf9c","","967.8999999910593","","Was the sound coming from the left or the right?","0","","","1","INDUCTION-JUDGMENT","left","0","","","","","","","","","","","","","","","","","","","","","","","","","","",""
"html-keyboard-response","26","314957","0.0-4.0-1.0-2.1","2","0","s6jqvxfltgxtf9c","","null","","<p style=""color:#054d00;""><b>Correct!</b></p>","","null","","","","","","","","","","","","","","","","","","","","","","","","","","","","","","","",""
"audio-keyboard-response","27","315750","0.0-4.0-1.0-0.2","2","0","s6jqvxfltgxtf9c","","null","","sounds/induction/right_rev/me_SWS.wav","","null","","","","","","","","","","","","","","","","","","","","","","","","","","","","","","","",""
"html-button-response","28","316565","0.0-4.0-1.0-1.2","2","0","s6jqvxfltgxtf9c","","813.5","","Was the sound coming from the left or the right?","1","","","1","INDUCTION-JUDGMENT","right","1","","","","","","","","","","","","","","","","","","","","","","","","","","",""
"html-keyboard-response","29","317566","0.0-4.0-1.0-2.2","2","0","s6jqvxfltgxtf9c","","null","","<p style=""color:#054d00;""><b>Correct!</b></p>","","null","","","","","","","","","","","","","","","","","","","","","","","","","","","","","","","",""
"audio-keyboard-response","30","318360","0.0-4.0-1.0-0.3","2","0","s6jqvxfltgxtf9c","","null","","sounds/induction/right_rev/su_SWS.wav","","null","","","","","","","","","","","","","","","","","","","","","","","","","","","","","","","",""
"html-button-response","31","319255","0.0-4.0-1.0-1.3","2","0","s6jqvxfltgxtf9c","","894.2000000029802","","Was the sound coming from the left or the right?","1","","","1","INDUCTION-JUDGMENT","right","1","","","","","","","","","","","","","","","","","","","","","","","","","","",""
"html-keyboard-response","32","320267","0.0-4.0-1.0-2.3","2","0","s6jqvxfltgxtf9c","","null","","<p style=""color:#054d00;""><b>Correct!</b></p>","","null","","","","","","","","","","","","","","","","","","","","","","","","","","","","","","","",""
"audio-keyboard-response","33","321080","0.0-4.0-1.0-0.4","2","0","s6jqvxfltgxtf9c","","null","","sounds/induction/right_rev/fu_SWS.wav","","null","","","","","","","","","","","","","","","","","","","","","","","","","","","","","","","",""
"html-button-response","34","322740","0.0-4.0-1.0-1.4","2","0","s6jqvxfltgxtf9c","","1659.2000000029802","","Was the sound coming from the left or the right?","1","","","1","INDUCTION-JUDGMENT","right","1","","","","","","","","","","","","","","","","","","","","","","","","","","",""
"html-keyboard-response","35","323752","0.0-4.0-1.0-2.4","2","0","s6jqvxfltgxtf9c","","null","","<p style=""color:#054d00;""><b>Correct!</b></p>","","null","","","","","","","","","","","","","","","","","","","","","","","","","","","","","","","",""
"audio-keyboard-response","36","324560","0.0-4.0-1.0-0.5","2","0","s6jqvxfltgxtf9c","","null","","sounds/induction/right_rev/ni_SWS.wav","","null","","","","","","","","","","","","","","","","","","","","","","","","","","","","","","","",""
"html-button-response","37","325408","0.0-4.0-1.0-1.5","2","0","s6jqvxfltgxtf9c","","847.5","","Was the sound coming from the left or the right?","1","","","1","INDUCTION-JUDGMENT","right","1","","","","","","","","","","","","","","","","","","","","","","","","","","",""
"html-keyboard-response","38","326427","0.0-4.0-1.0-2.5","2","0","s6jqvxfltgxtf9c","","null","","<p style=""color:#054d00;""><b>Correct!</b></p>","","null","","","","","","","","","","","","","","","","","","","","","","","","","","","","","","","",""
"audio-keyboard-response","39","327229","0.0-4.0-1.0-0.6","2","0","s6jqvxfltgxtf9c","","null","","sounds/induction/right_rev/ge_SWS.wav","","null","","","","","","","","","","","","","","","","","","","","","","","","","","","","","","","",""
"html-button-response","40","328259","0.0-4.0-1.0-1.6","2","0","s6jqvxfltgxtf9c","","1028.1000000089407","","Was the sound coming from the left or the right?","1","","","1","INDUCTION-JUDGMENT","right","1","","","","","","","","","","","","","","","","","","","","","","","","","","",""
"html-keyboard-response","41","329267","0.0-4.0-1.0-2.6","2","0","s6jqvxfltgxtf9c","","null","","<p style=""color:#054d00;""><b>Correct!</b></p>","","null","","","","","","","","","","","","","","","","","","","","","","","","","","","","","","","",""
"audio-keyboard-response","42","330070","0.0-4.0-1.0-0.7","2","0","s6jqvxfltgxtf9c","","null","","sounds/induction/right_rev/ko_SWS.wav","","null","","","","","","","","","","","","","","","","","","","","","","","","","","","","","","","",""
"html-button-response","43","331830","0.0-4.0-1.0-1.7","2","0","s6jqvxfltgxtf9c","","1759","","Was the sound coming from the left or the right?","1","","","1","INDUCTION-JUDGMENT","right","1","","","","","","","","","","","","","","","","","","","","","","","","","","",""
"html-keyboard-response","44","332832","0.0-4.0-1.0-2.7","2","0","s6jqvxfltgxtf9c","","null","","<p style=""color:#054d00;""><b>Correct!</b></p>","","null","","","","","","","","","","","","","","","","","","","","","","","","","","","","","","","",""
"audio-keyboard-response","45","333640","0.0-4.0-1.0-0.8","2","0","s6jqvxfltgxtf9c","","null","","sounds/induction/left_rev/re_SWS.wav","","null","","","","","","","","","","","","","","","","","","","","","","","","","","","","","","","",""
"html-button-response","46","334516","0.0-4.0-1.0-1.8","2","0","s6jqvxfltgxtf9c","","875.2999999970198","","Was the sound coming from the left or the right?","0","","","1","INDUCTION-JUDGMENT","left","0","","","","","","","","","","","","","","","","","","","","","","","","","","",""
"html-keyboard-response","47","335537","0.0-4.0-1.0-2.8","2","0","s6jqvxfltgxtf9c","","null","","<p style=""color:#054d00;""><b>Correct!</b></p>","","null","","","","","","","","","","","","","","","","","","","","","","","","","","","","","","","",""
"audio-keyboard-response","48","336339","0.0-4.0-1.0-0.9","2","0","s6jqvxfltgxtf9c","","null","","sounds/induction/right_rev/ko_SWS.wav","","null","","","","","","","","","","","","","","","","","","","","","","","","","","","","","","","",""
"html-button-response","49","337252","0.0-4.0-1.0-1.9","2","0","s6jqvxfltgxtf9c","","912.0999999940395","","Was the sound coming from the left or the right?","1","","","1","INDUCTION-JUDGMENT","right","1","","","","","","","","","","","","","","","","","","","","","","","","","","",""
"html-keyboard-response","50","338267","0.0-4.0-1.0-2.9","2","0","s6jqvxfltgxtf9c","","null","","<p style=""color:#054d00;""><b>Correct!</b></p>","","null","","","","","","","","","","","","","","","","","","","","","","","","","","","","","","","",""
"audio-keyboard-response","51","339070","0.0-4.0-1.0-0.10","2","0","s6jqvxfltgxtf9c","","null","","sounds/induction/right_rev/pu_SWS.wav","","null","","","","","","","","","","","","","","","","","","","","","","","","","","","","","","","",""
"html-button-response","52","340450","0.0-4.0-1.0-1.10","2","0","s6jqvxfltgxtf9c","","1379.199999988079","","Was the sound coming from the left or the right?","1","","","1","INDUCTION-JUDGMENT","right","1","","","","","","","","","","","","","","","","","","","","","","","","","","",""
"html-keyboard-response","53","341453","0.0-4.0-1.0-2.10","2","0","s6jqvxfltgxtf9c","","null","","<p style=""color:#054d00;""><b>Correct!</b></p>","","null","","","","","","","","","","","","","","","","","","","","","","","","","","","","","","","",""
"audio-keyboard-response","54","342259","0.0-4.0-1.0-0.11","2","0","s6jqvxfltgxtf9c","","null","","sounds/induction/right_rev/fe_SWS.wav","","null","","","","","","","","","","","","","","","","","","","","","","","","","","","","","","","",""
"html-button-response","55","343155","0.0-4.0-1.0-1.11","2","0","s6jqvxfltgxtf9c","","895.2999999970198","","Was the sound coming from the left or the right?","1","","","1","INDUCTION-JUDGMENT","right","1","","","","","","","","","","","","","","","","","","","","","","","","","","",""
"html-keyboard-response","56","344177","0.0-4.0-1.0-2.11","2","0","s6jqvxfltgxtf9c","","null","","<p style=""color:#054d00;""><b>Correct!</b></p>","","null","","","","","","","","","","","","","","","","","","","","","","","","","","","","","","","",""
"audio-keyboard-response","57","344989","0.0-4.0-1.0-0.12","2","0","s6jqvxfltgxtf9c","","null","","sounds/induction/right_rev/fe_SWS.wav","","null","","","","","","","","","","","","","","","","","","","","","","","","","","","","","","","",""
"html-button-response","58","345832","0.0-4.0-1.0-1.12","2","0","s6jqvxfltgxtf9c","","842.2000000029802","","Was the sound coming from the left or the right?","1","","","1","INDUCTION-JUDGMENT","right","1","","","","","","","","","","","","","","","","","","","","","","","","","","",""
"html-keyboard-response","59","346837","0.0-4.0-1.0-2.12","2","0","s6jqvxfltgxtf9c","","null","","<p style=""color:#054d00;""><b>Correct!</b></p>","","null","","","","","","","","","","","","","","","","","","","","","","","","","","","","","","","",""
"audio-keyboard-response","60","347659","0.0-4.0-1.0-0.13","2","0","s6jqvxfltgxtf9c","","null","","sounds/induction/left_rev/fe_SWS.wav","","null","","","","","","","","","","","","","","","","","","","","","","","","","","","","","","","",""
"html-button-response","61","348539","0.0-4.0-1.0-1.13","2","0","s6jqvxfltgxtf9c","","879.5","","Was the sound coming from the left or the right?","0","","","1","INDUCTION-JUDGMENT","left","0","","","","","","","","","","","","","","","","","","","","","","","","","","",""
"html-keyboard-response","62","349542","0.0-4.0-1.0-2.13","2","0","s6jqvxfltgxtf9c","","null","","<p style=""color:#054d00;""><b>Correct!</b></p>","","null","","","","","","","","","","","","","","","","","","","","","","","","","","","","","","","",""
"audio-keyboard-response","63","350349","0.0-4.0-1.0-0.14","2","0","s6jqvxfltgxtf9c","","null","","sounds/induction/left_rev/fu_SWS.wav","","null","","","","","","","","","","","","","","","","","","","","","","","","","","","","","","","",""
"html-button-response","64","352497","0.0-4.0-1.0-1.14","2","0","s6jqvxfltgxtf9c","","2146.699999988079","","Was the sound coming from the left or the right?","0","","","1","INDUCTION-JUDGMENT","left","0","","","","","","","","","","","","","","","","","","","","","","","","","","",""
"html-keyboard-response","65","353502","0.0-4.0-1.0-2.14","2","0","s6jqvxfltgxtf9c","","null","","<p style=""color:#054d00;""><b>Correct!</b></p>","","null","","","","","","","","","","","","","","","","","","","","","","","","","","","","","","","",""
"audio-keyboard-response","66","354309","0.0-4.0-1.0-0.15","2","0","s6jqvxfltgxtf9c","","null","","sounds/induction/right_rev/ru_SWS.wav","","null","","","","","","","","","","","","","","","","","","","","","","","","","","","","","","","",""
"html-button-response","67","355347","0.0-4.0-1.0-1.15","2","0","s6jqvxfltgxtf9c","","1036.2000000029802","","Was the sound coming from the left or the right?","1","","","1","INDUCTION-JUDGMENT","right","1","","","","","","","","","","","","","","","","","","","","","","","","","","",""
"html-keyboard-response","68","356349","0.0-4.0-1.0-2.15","2","0","s6jqvxfltgxtf9c","","null","","<p style=""color:#054d00;""><b>Correct!</b></p>","","null","","","","","","","","","","","","","","","","","","","","","","","","","","","","","","","",""
"audio-keyboard-response","69","357149","0.0-4.0-1.0-0.16","2","0","s6jqvxfltgxtf9c","","null","","sounds/induction/left_rev/ru_SWS.wav","","null","","","","","","","","","","","","","","","","","","","","","","","","","","","","","","","",""
"html-button-response","70","358565","0.0-4.0-1.0-1.16","2","0","s6jqvxfltgxtf9c","","1413.0999999940395","","Was the sound coming from the left or the right?","0","","","1","INDUCTION-JUDGMENT","left","0","","","","","","","","","","","","","","","","","","","","","","","","","","",""
"html-keyboard-response","71","359587","0.0-4.0-1.0-2.16","2","0","s6jqvxfltgxtf9c","","null","","<p style=""color:#054d00;""><b>Correct!</b></p>","","null","","","","","","","","","","","","","","","","","","","","","","","","","","","","","","","",""
"audio-keyboard-response","72","360390","0.0-4.0-1.0-0.17","2","0","s6jqvxfltgxtf9c","","null","","sounds/induction/left_rev/re_SWS.wav","","null","","","","","","","","","","","","","","","","","","","","","","","","","","","","","","","",""
"html-button-response","73","361440","0.0-4.0-1.0-1.17","2","0","s6jqvxfltgxtf9c","","1049","","Was the sound coming from the left or the right?","0","","","1","INDUCTION-JUDGMENT","left","0","","","","","","","","","","","","","","","","","","","","","","","","","","",""
"html-keyboard-response","74","362447","0.0-4.0-1.0-2.17","2","0","s6jqvxfltgxtf9c","","null","","<p style=""color:#054d00;""><b>Correct!</b></p>","","null","","","","","","","","","","","","","","","","","","","","","","","","","","","","","","","",""
"audio-keyboard-response","75","363258","0.0-4.0-1.0-0.18","2","0","s6jqvxfltgxtf9c","","null","","sounds/induction/right_rev/me_SWS.wav","","null","","","","","","","","","","","","","","","","","","","","","","","","","","","","","","","",""
"html-button-response","76","364098","0.0-4.0-1.0-1.18","2","0","s6jqvxfltgxtf9c","","839","","Was the sound coming from the left or the right?","1","","","1","INDUCTION-JUDGMENT","right","1","","","","","","","","","","","","","","","","","","","","","","","","","","",""
"html-keyboard-response","77","365117","0.0-4.0-1.0-2.18","2","0","s6jqvxfltgxtf9c","","null","","<p style=""color:#054d00;""><b>Correct!</b></p>","","null","","","","","","","","","","","","","","","","","","","","","","","","","","","","","","","",""
"audio-keyboard-response","78","365919","0.0-4.0-1.0-0.19","2","0","s6jqvxfltgxtf9c","","null","","sounds/induction/left_rev/me_SWS.wav","","null","","","","","","","","","","","","","","","","","","","","","","","","","","","","","","","",""
"html-button-response","79","366925","0.0-4.0-1.0-1.19","2","0","s6jqvxfltgxtf9c","","1005.3999999910593","","Was the sound coming from the left or the right?","0","","","1","INDUCTION-JUDGMENT","left","0","","","","","","","","","","","","","","","","","","","","","","","","","","",""
"html-keyboard-response","80","367929","0.0-4.0-1.0-2.19","2","0","s6jqvxfltgxtf9c","","null","","<p style=""color:#054d00;""><b>Correct!</b></p>","","null","","","","","","","","","","","","","","","","","","","","","","","","","","","","","","","",""
"audio-keyboard-response","81","368739","0.0-4.0-1.0-0.20","2","0","s6jqvxfltgxtf9c","","null","","sounds/induction/left_rev/su_SWS.wav","","null","","","","","","","","","","","","","","","","","","","","","","","","","","","","","","","",""
"html-button-response","82","370066","0.0-4.0-1.0-1.20","2","0","s6jqvxfltgxtf9c","","1325.7000000029802","","Was the sound coming from the left or the right?","0","","","1","INDUCTION-JUDGMENT","left","0","","","","","","","","","","","","","","","","","","","","","","","","","","",""
"html-keyboard-response","83","371072","0.0-4.0-1.0-2.20","2","0","s6jqvxfltgxtf9c","","null","","<p style=""color:#054d00;""><b>Correct!</b></p>","","null","","","","","","","","","","","","","","","","","","","","","","","","","","","","","","","",""
"audio-keyboard-response","84","371878","0.0-4.0-1.0-0.21","2","0","s6jqvxfltgxtf9c","","null","","sounds/induction/right_rev/su_SWS.wav","","null","","","","","","","","","","","","","","","","","","","","","","","","","","","","","","","",""
"html-button-response","85","372497","0.0-4.0-1.0-1.21","2","0","s6jqvxfltgxtf9c","","617.8999999910593","","Was the sound coming from the left or the right?","1","","","1","INDUCTION-JUDGMENT","right","1","","","","","","","","","","","","","","","","","","","","","","","","","","",""
"html-keyboard-response","86","373506","0.0-4.0-1.0-2.21","2","0","s6jqvxfltgxtf9c","","null","","<p style=""color:#054d00;""><b>Correct!</b></p>","","null","","","","","","","","","","","","","","","","","","","","","","","","","","","","","","","",""
"audio-keyboard-response","87","374319","0.0-4.0-1.0-0.22","2","0","s6jqvxfltgxtf9c","","null","","sounds/induction/left_rev/ge_SWS.wav","","null","","","","","","","","","","","","","","","","","","","","","","","","","","","","","","","",""
"html-button-response","88","375175","0.0-4.0-1.0-1.22","2","0","s6jqvxfltgxtf9c","","854.7999999970198","","Was the sound coming from the left or the right?","0","","","1","INDUCTION-JUDGMENT","left","0","","","","","","","","","","","","","","","","","","","","","","","","","","",""
"html-keyboard-response","89","376177","0.0-4.0-1.0-2.22","2","0","s6jqvxfltgxtf9c","","null","","<p style=""color:#054d00;""><b>Correct!</b></p>","","null","","","","","","","","","","","","","","","","","","","","","","","","","","","","","","","",""
"audio-keyboard-response","90","376979","0.0-4.0-1.0-0.23","2","0","s6jqvxfltgxtf9c","","null","","sounds/induction/left_rev/ko_SWS.wav","","null","","","","","","","","","","","","","","","","","","","","","","","","","","","","","","","",""
"html-button-response","91","378009","0.0-4.0-1.0-1.23","2","0","s6jqvxfltgxtf9c","","1029.5999999940395","","Was the sound coming from the left or the right?","0","","","1","INDUCTION-JUDGMENT","left","0","","","","","","","","","","","","","","","","","","","","","","","","","","",""
"html-keyboard-response","92","379016","0.0-4.0-1.0-2.23","2","0","s6jqvxfltgxtf9c","","null","","<p style=""color:#054d00;""><b>Correct!</b></p>","","null","","","","","","","","","","","","","","","","","","","","","","","","","","","","","","","",""
"audio-keyboard-response","93","379827","0.0-4.0-1.0-0.24","2","0","s6jqvxfltgxtf9c","","null","","sounds/induction/left_rev/pu_SWS.wav","","null","","","","","","","","","","","","","","","","","","","","","","","","","","","","","","","",""
"html-button-response","94","381118","0.0-4.0-1.0-1.24","2","0","s6jqvxfltgxtf9c","","1289.3999999910593","","Was the sound coming from the left or the right?","0","","","1","INDUCTION-JUDGMENT","left","0","","","","","","","","","","","","","","","","","","","","","","","","","","",""
"html-keyboard-response","95","382121","0.0-4.0-1.0-2.24","2","0","s6jqvxfltgxtf9c","","null","","<p style=""color:#054d00;""><b>Correct!</b></p>","","null","","","","","","","","","","","","","","","","","","","","","","","","","","","","","","","",""
"audio-keyboard-response","96","382939","0.0-4.0-1.0-0.25","2","0","s6jqvxfltgxtf9c","","null","","sounds/induction/right_rev/ta_SWS.wav","","null","","","","","","","","","","","","","","","","","","","","","","","","","","","","","","","",""
"html-button-response","97","383648","0.0-4.0-1.0-1.25","2","0","s6jqvxfltgxtf9c","","708","","Was the sound coming from the left or the right?","1","","","1","INDUCTION-JUDGMENT","right","1","","","","","","","","","","","","","","","","","","","","","","","","","","",""
"html-keyboard-response","98","384662","0.0-4.0-1.0-2.25","2","0","s6jqvxfltgxtf9c","","null","","<p style=""color:#054d00;""><b>Correct!</b></p>","","null","","","","","","","","","","","","","","","","","","","","","","","","","","","","","","","",""
"audio-keyboard-response","99","385469","0.0-4.0-1.0-0.26","2","0","s6jqvxfltgxtf9c","","null","","sounds/induction/right_rev/ti_SWS.wav","","null","","","","","","","","","","","","","","","","","","","","","","","","","","","","","","","",""
"html-button-response","100","386617","0.0-4.0-1.0-1.26","2","0","s6jqvxfltgxtf9c","","1147.0999999940395","","Was the sound coming from the left or the right?","1","","","1","INDUCTION-JUDGMENT","right","1","","","","","","","","","","","","","","","","","","","","","","","","","","",""
"html-keyboard-response","101","387636","0.0-4.0-1.0-2.26","2","0","s6jqvxfltgxtf9c","","null","","<p style=""color:#054d00;""><b>Correct!</b></p>","","null","","","","","","","","","","","","","","","","","","","","","","","","","","","","","","","",""
"audio-keyboard-response","102","388429","0.0-4.0-1.0-0.27","2","0","s6jqvxfltgxtf9c","","null","","sounds/induction/right_rev/pu_SWS.wav","","null","","","","","","","","","","","","","","","","","","","","","","","","","","","","","","","",""
"html-button-response","103","389460","0.0-4.0-1.0-1.27","2","0","s6jqvxfltgxtf9c","","1029.2000000029802","","Was the sound coming from the left or the right?","1","","","1","INDUCTION-JUDGMENT","right","1","","","","","","","","","","","","","","","","","","","","","","","","","","",""
"html-keyboard-response","104","390467","0.0-4.0-1.0-2.27","2","0","s6jqvxfltgxtf9c","","null","","<p style=""color:#054d00;""><b>Correct!</b></p>","","null","","","","","","","","","","","","","","","","","","","","","","","","","","","","","","","",""
"audio-keyboard-response","105","391269","0.0-4.0-1.0-0.28","2","0","s6jqvxfltgxtf9c","","null","","sounds/induction/left_rev/ti_SWS.wav","","null","","","","","","","","","","","","","","","","","","","","","","","","","","","","","","","",""
"html-button-response","106","392383","0.0-4.0-1.0-1.28","2","0","s6jqvxfltgxtf9c","","1112.5","","Was the sound coming from the left or the right?","0","","","1","INDUCTION-JUDGMENT","left","0","","","","","","","","","","","","","","","","","","","","","","","","","","",""
"html-keyboard-response","107","393396","0.0-4.0-1.0-2.28","2","0","s6jqvxfltgxtf9c","","null","","<p style=""color:#054d00;""><b>Correct!</b></p>","","null","","","","","","","","","","","","","","","","","","","","","","","","","","","","","","","",""
"audio-keyboard-response","108","394219","0.0-4.0-1.0-0.29","2","0","s6jqvxfltgxtf9c","","null","","sounds/induction/left_rev/ge_SWS.wav","","null","","","","","","","","","","","","","","","","","","","","","","","","","","","","","","","",""
"html-button-response","109","395148","0.0-4.0-1.0-1.29","2","0","s6jqvxfltgxtf9c","","928.2000000029802","","Was the sound coming from the left or the right?","0","","","1","INDUCTION-JUDGMENT","left","0","","","","","","","","","","","","","","","","","","","","","","","","","","",""
"html-keyboard-response","110","396156","0.0-4.0-1.0-2.29","2","0","s6jqvxfltgxtf9c","","null","","<p style=""color:#054d00;""><b>Correct!</b></p>","","null","","","","","","","","","","","","","","","","","","","","","","","","","","","","","","","",""
"audio-keyboard-response","111","396950","0.0-4.0-1.0-0.30","2","0","s6jqvxfltgxtf9c","","null","","sounds/induction/left_rev/ni_SWS.wav","","null","","","","","","","","","","","","","","","","","","","","","","","","","","","","","","","",""
"html-button-response","112","397688","0.0-4.0-1.0-1.30","2","0","s6jqvxfltgxtf9c","","737.2000000029802","","Was the sound coming from the left or the right?","0","","","1","INDUCTION-JUDGMENT","left","0","","","","","","","","","","","","","","","","","","","","","","","","","","",""
"html-keyboard-response","113","398696","0.0-4.0-1.0-2.30","2","0","s6jqvxfltgxtf9c","","null","","<p style=""color:#054d00;""><b>Correct!</b></p>","","null","","","","","","","","","","","","","","","","","","","","","","","","","","","","","","","",""
"audio-keyboard-response","114","399509","0.0-4.0-1.0-0.31","2","0","s6jqvxfltgxtf9c","","null","","sounds/induction/left_rev/ni_SWS.wav","","null","","","","","","","","","","","","","","","","","","","","","","","","","","","","","","","",""
"html-button-response","115","400220","0.0-4.0-1.0-1.31","2","0","s6jqvxfltgxtf9c","","710.2999999970198","","Was the sound coming from the left or the right?","0","","","1","INDUCTION-JUDGMENT","left","0","","","","","","","","","","","","","","","","","","","","","","","","","","",""
"html-keyboard-response","116","401228","0.0-4.0-1.0-2.31","2","0","s6jqvxfltgxtf9c","","null","","<p style=""color:#054d00;""><b>Correct!</b></p>","","null","","","","","","","","","","","","","","","","","","","","","","","","","","","","","","","",""
"audio-keyboard-response","117","402028","0.0-4.0-1.0-0.32","2","0","s6jqvxfltgxtf9c","","null","","sounds/induction/right_rev/ti_SWS.wav","","null","","","","","","","","","","","","","","","","","","","","","","","","","","","","","","","",""
"html-button-response","118","402783","0.0-4.0-1.0-1.32","2","0","s6jqvxfltgxtf9c","","754","","Was the sound coming from the left or the right?","1","","","1","INDUCTION-JUDGMENT","right","1","","","","","","","","","","","","","","","","","","","","","","","","","","",""
"html-keyboard-response","119","403796","0.0-4.0-1.0-2.32","2","0","s6jqvxfltgxtf9c","","null","","<p style=""color:#054d00;""><b>Correct!</b></p>","","null","","","","","","","","","","","","","","","","","","","","","","","","","","","","","","","",""
"audio-keyboard-response","120","404589","0.0-4.0-1.0-0.33","2","0","s6jqvxfltgxtf9c","","null","","sounds/induction/left_rev/ko_SWS.wav","","null","","","","","","","","","","","","","","","","","","","","","","","","","","","","","","","",""
"html-button-response","121","405520","0.0-4.0-1.0-1.33","2","0","s6jqvxfltgxtf9c","","929.7000000029802","","Was the sound coming from the left or the right?","0","","","1","INDUCTION-JUDGMENT","left","0","","","","","","","","","","","","","","","","","","","","","","","","","","",""
"html-keyboard-response","122","406536","0.0-4.0-1.0-2.33","2","0","s6jqvxfltgxtf9c","","null","","<p style=""color:#054d00;""><b>Correct!</b></p>","","null","","","","","","","","","","","","","","","","","","","","","","","","","","","","","","","",""
"audio-keyboard-response","123","407349","0.0-4.0-1.0-0.34","2","0","s6jqvxfltgxtf9c","","null","","sounds/induction/right_rev/ru_SWS.wav","","null","","","","","","","","","","","","","","","","","","","","","","","","","","","","","","","",""
"html-button-response","124","408095","0.0-4.0-1.0-1.34","2","0","s6jqvxfltgxtf9c","","744.9000000059605","","Was the sound coming from the left or the right?","1","","","1","INDUCTION-JUDGMENT","right","1","","","","","","","","","","","","","","","","","","","","","","","","","","",""
"html-keyboard-response","125","409116","0.0-4.0-1.0-2.34","2","0","s6jqvxfltgxtf9c","","null","","<p style=""color:#054d00;""><b>Correct!</b></p>","","null","","","","","","","","","","","","","","","","","","","","","","","","","","","","","","","",""
"audio-keyboard-response","126","409939","0.0-4.0-1.0-0.35","2","0","s6jqvxfltgxtf9c","","null","","sounds/induction/right_rev/ta_SWS.wav","","null","","","","","","","","","","","","","","","","","","","","","","","","","","","","","","","",""
"html-button-response","127","410932","0.0-4.0-1.0-1.35","2","0","s6jqvxfltgxtf9c","","992.5","","Was the sound coming from the left or the right?","1","","","1","INDUCTION-JUDGMENT","right","1","","","","","","","","","","","","","","","","","","","","","","","","","","",""
"html-keyboard-response","128","411936","0.0-4.0-1.0-2.35","2","0","s6jqvxfltgxtf9c","","null","","<p style=""color:#054d00;""><b>Correct!</b></p>","","null","","","","","","","","","","","","","","","","","","","","","","","","","","","","","","","",""
"audio-keyboard-response","129","412749","0.0-4.0-1.0-0.36","2","0","s6jqvxfltgxtf9c","","null","","sounds/induction/right_rev/ge_SWS.wav","","null","","","","","","","","","","","","","","","","","","","","","","","","","","","","","","","",""
"html-button-response","130","413376","0.0-4.0-1.0-1.36","2","0","s6jqvxfltgxtf9c","","625","","Was the sound coming from the left or the right?","1","","","1","INDUCTION-JUDGMENT","right","1","","","","","","","","","","","","","","","","","","","","","","","","","","",""
"html-keyboard-response","131","414377","0.0-4.0-1.0-2.36","2","0","s6jqvxfltgxtf9c","","null","","<p style=""color:#054d00;""><b>Correct!</b></p>","","null","","","","","","","","","","","","","","","","","","","","","","","","","","","","","","","",""
"audio-keyboard-response","132","415179","0.0-4.0-1.0-0.37","2","0","s6jqvxfltgxtf9c","","null","","sounds/induction/right_rev/re_SWS.wav","","null","","","","","","","","","","","","","","","","","","","","","","","","","","","","","","","",""
"html-button-response","133","415783","0.0-4.0-1.0-1.37","2","0","s6jqvxfltgxtf9c","","603.4000000059605","","Was the sound coming from the left or the right?","1","","","1","INDUCTION-JUDGMENT","right","1","","","","","","","","","","","","","","","","","","","","","","","","","","",""
"html-keyboard-response","134","416797","0.0-4.0-1.0-2.37","2","0","s6jqvxfltgxtf9c","","null","","<p style=""color:#054d00;""><b>Correct!</b></p>","","null","","","","","","","","","","","","","","","","","","","","","","","","","","","","","","","",""
"audio-keyboard-response","135","417619","0.0-4.0-1.0-0.38","2","0","s6jqvxfltgxtf9c","","null","","sounds/induction/right_rev/ni_SWS.wav","","null","","","","","","","","","","","","","","","","","","","","","","","","","","","","","","","",""
"html-button-response","136","418256","0.0-4.0-1.0-1.38","2","0","s6jqvxfltgxtf9c","","636.2999999970198","","Was the sound coming from the left or the right?","1","","","1","INDUCTION-JUDGMENT","right","1","","","","","","","","","","","","","","","","","","","","","","","","","","",""
"html-keyboard-response","137","419277","0.0-4.0-1.0-2.38","2","0","s6jqvxfltgxtf9c","","null","","<p style=""color:#054d00;""><b>Correct!</b></p>","","null","","","","","","","","","","","","","","","","","","","","","","","","","","","","","","","",""
"audio-keyboard-response","138","420069","0.0-4.0-1.0-0.39","2","0","s6jqvxfltgxtf9c","","null","","sounds/induction/right_rev/fu_SWS.wav","","null","","","","","","","","","","","","","","","","","","","","","","","","","","","","","","","",""
"html-button-response","139","421362","0.0-4.0-1.0-1.39","2","0","s6jqvxfltgxtf9c","","1291.8999999910593","","Was the sound coming from the left or the right?","1","","","1","INDUCTION-JUDGMENT","right","1","","","","","","","","","","","","","","","","","","","","","","","","","","",""
"html-keyboard-response","140","422366","0.0-4.0-1.0-2.39","2","0","s6jqvxfltgxtf9c","","null","","<p style=""color:#054d00;""><b>Correct!</b></p>","","null","","","","","","","","","","","","","","","","","","","","","","","","","","","","","","","",""
"audio-keyboard-response","141","423160","0.0-4.0-1.0-0.40","2","0","s6jqvxfltgxtf9c","","null","","sounds/induction/left_rev/ta_SWS.wav","","null","","","","","","","","","","","","","","","","","","","","","","","","","","","","","","","",""
"html-button-response","142","424225","0.0-4.0-1.0-1.40","2","0","s6jqvxfltgxtf9c","","1064.0999999940395","","Was the sound coming from the left or the right?","0","","","1","INDUCTION-JUDGMENT","left","0","","","","","","","","","","","","","","","","","","","","","","","","","","",""
"html-keyboard-response","143","425236","0.0-4.0-1.0-2.40","2","0","s6jqvxfltgxtf9c","","null","","<p style=""color:#054d00;""><b>Correct!</b></p>","","null","","","","","","","","","","","","","","","","","","","","","","","","","","","","","","","",""
"audio-keyboard-response","144","426038","0.0-4.0-1.0-0.41","2","0","s6jqvxfltgxtf9c","","null","","sounds/induction/left_rev/su_SWS.wav","","null","","","","","","","","","","","","","","","","","","","","","","","","","","","","","","","",""
"html-button-response","145","427233","0.0-4.0-1.0-1.41","2","0","s6jqvxfltgxtf9c","","1193.5","","Was the sound coming from the left or the right?","0","","","1","INDUCTION-JUDGMENT","left","0","","","","","","","","","","","","","","","","","","","","","","","","","","",""
"html-keyboard-response","146","428236","0.0-4.0-1.0-2.41","2","0","s6jqvxfltgxtf9c","","null","","<p style=""color:#054d00;""><b>Correct!</b></p>","","null","","","","","","","","","","","","","","","","","","","","","","","","","","","","","","","",""
"audio-keyboard-response","147","429059","0.0-4.0-1.0-0.42","2","0","s6jqvxfltgxtf9c","","null","","sounds/induction/left_rev/me_SWS.wav","","null","","","","","","","","","","","","","","","","","","","","","","","","","","","","","","","",""
"html-button-response","148","430208","0.0-4.0-1.0-1.42","2","0","s6jqvxfltgxtf9c","","1147.800000011921","","Was the sound coming from the left or the right?","1","","","0","INDUCTION-JUDGMENT","left","0","","","","","","","","","","","","","","","","","","","","","","","","","","",""
"html-keyboard-response","149","431227","0.0-4.0-1.0-2.42","2","0","s6jqvxfltgxtf9c","","null","","<p style=""color:#690000;""><b>Incorrect!</b></p>","","null","","","","","","","","","","","","","","","","","","","","","","","","","","","","","","","",""
"audio-keyboard-response","150","432029","0.0-4.0-1.0-0.43","2","0","s6jqvxfltgxtf9c","","null","","sounds/induction/left_rev/ru_SWS.wav","","null","","","","","","","","","","","","","","","","","","","","","","","","","","","","","","","",""
"html-button-response","151","433321","0.0-4.0-1.0-1.43","2","0","s6jqvxfltgxtf9c","","1291.5999999940395","","Was the sound coming from the left or the right?","0","","","1","INDUCTION-JUDGMENT","left","0","","","","","","","","","","","","","","","","","","","","","","","","","","",""
"html-keyboard-response","152","434326","0.0-4.0-1.0-2.43","2","0","s6jqvxfltgxtf9c","","null","","<p style=""color:#054d00;""><b>Correct!</b></p>","","null","","","","","","","","","","","","","","","","","","","","","","","","","","","","","","","",""
"audio-keyboard-response","153","435119","0.0-4.0-1.0-0.44","2","0","s6jqvxfltgxtf9c","","null","","sounds/induction/left_rev/ta_SWS.wav","","null","","","","","","","","","","","","","","","","","","","","","","","","","","","","","","","",""
"html-button-response","154","436043","0.0-4.0-1.0-1.44","2","0","s6jqvxfltgxtf9c","","922.7000000029802","","Was the sound coming from the left or the right?","0","","","1","INDUCTION-JUDGMENT","left","0","","","","","","","","","","","","","","","","","","","","","","","","","","",""
"html-keyboard-response","155","437045","0.0-4.0-1.0-2.44","2","0","s6jqvxfltgxtf9c","","null","","<p style=""color:#054d00;""><b>Correct!</b></p>","","null","","","","","","","","","","","","","","","","","","","","","","","","","","","","","","","",""
"audio-keyboard-response","156","437869","0.0-4.0-1.0-0.45","2","0","s6jqvxfltgxtf9c","","null","","sounds/induction/right_rev/re_SWS.wav","","null","","","","","","","","","","","","","","","","","","","","","","","","","","","","","","","",""
"html-button-response","157","438548","0.0-4.0-1.0-1.45","2","0","s6jqvxfltgxtf9c","","678.4000000059605","","Was the sound coming from the left or the right?","1","","","1","INDUCTION-JUDGMENT","right","1","","","","","","","","","","","","","","","","","","","","","","","","","","",""
"html-keyboard-response","158","439559","0.0-4.0-1.0-2.45","2","0","s6jqvxfltgxtf9c","","null","","<p style=""color:#054d00;""><b>Correct!</b></p>","","null","","","","","","","","","","","","","","","","","","","","","","","","","","","","","","","",""
"audio-keyboard-response","159","440359","0.0-4.0-1.0-0.46","2","0","s6jqvxfltgxtf9c","","null","","sounds/induction/left_rev/ti_SWS.wav","","null","","","","","","","","","","","","","","","","","","","","","","","","","","","","","","","",""
"html-button-response","160","441236","0.0-4.0-1.0-1.46","2","0","s6jqvxfltgxtf9c","","876","","Was the sound coming from the left or the right?","0","","","1","INDUCTION-JUDGMENT","left","0","","","","","","","","","","","","","","","","","","","","","","","","","","",""
"html-keyboard-response","161","442237","0.0-4.0-1.0-2.46","2","0","s6jqvxfltgxtf9c","","null","","<p style=""color:#054d00;""><b>Correct!</b></p>","","null","","","","","","","","","","","","","","","","","","","","","","","","","","","","","","","",""
"audio-keyboard-response","162","443059","0.0-4.0-1.0-0.47","2","0","s6jqvxfltgxtf9c","","null","","sounds/induction/left_rev/pu_SWS.wav","","null","","","","","","","","","","","","","","","","","","","","","","","","","","","","","","","",""
"html-button-response","163","444153","0.0-4.0-1.0-1.47","2","0","s6jqvxfltgxtf9c","","1093.5999999940395","","Was the sound coming from the left or the right?","1","","","0","INDUCTION-JUDGMENT","left","0","","","","","","","","","","","","","","","","","","","","","","","","","","",""
"html-keyboard-response","164","445169","0.0-4.0-1.0-2.47","2","0","s6jqvxfltgxtf9c","","null","","<p style=""color:#690000;""><b>Incorrect!</b></p>","","null","","","","","","","","","","","","","","","","","","","","","","","","","","","","","","","",""
"html-button-response","165","460269","0.0-5.0-0.0","2","0","s6jqvxfltgxtf9c","","14581.90000000596","","<p>Thank you for your answers.</p><p>You will now listen to similar sounds. The main difference is that the sounds will be longer.</p><p>Just as before, you will be asked to judge whether the sound was coming from the left or the right.</p><p>There are 10 of these longer sounds in total.","0","","","","","","","","","","","","","","","","","","","","","","","","","","","","","","","","",""
"audio-keyboard-response","166","463089","0.0-5.0-1.0-0.0","2","0","s6jqvxfltgxtf9c","","null","","sounds/sentences/left_rev/14_02_cfSWS.wav","","null","","","","","","","","","","","","","","","","","","","","","","","","","","","","","","","",""
"html-button-response","167","464039","0.0-5.0-1.0-1.0","2","0","s6jqvxfltgxtf9c","","949.3000000119209","","Was the sound coming from the left or the right?","0","","","1","INDUCTION-JUDGMENT","left","0","","","","","","","","","","","","","","","","","","","","","","","","","","",""
"html-keyboard-response","168","465056","0.0-5.0-1.0-2.0","2","0","s6jqvxfltgxtf9c","","null","","<p style=""color:#054d00;""><b>Correct!</b></p>","","null","","","","","","","","","","","","","","","","","","","","","","","","","","","","","","","",""
"html-button-response","169","466811","0.0-5.0-1.0-3.0","2","0","s6jqvxfltgxtf9c","","1252.7999999970198","","<p>Press the button below when you are ready to continue.</p>","0","","","","","","","","","","","","","","","","","","","","","","","","","","","","","","","","",""
"audio-keyboard-response","170","469368","0.0-5.0-1.0-0.1","2","0","s6jqvxfltgxtf9c","","null","","sounds/sentences/left_rev/14_04_cfSWS.wav","","null","","","","","","","","","","","","","","","","","","","","","","","","","","","","","","","",""
"html-button-response","171","470158","0.0-5.0-1.0-1.1","2","0","s6jqvxfltgxtf9c","","788.5999999940395","","Was the sound coming from the left or the right?","0","","","1","INDUCTION-JUDGMENT","left","0","","","","","","","","","","","","","","","","","","","","","","","","","","",""
"html-keyboard-response","172","471177","0.0-5.0-1.0-2.1","2","0","s6jqvxfltgxtf9c","","null","","<p style=""color:#054d00;""><b>Correct!</b></p>","","null","","","","","","","","","","","","","","","","","","","","","","","","","","","","","","","",""
"html-button-response","173","472983","0.0-5.0-1.0-3.1","2","0","s6jqvxfltgxtf9c","","1290.7999999970198","","<p>Press the button below when you are ready to continue.</p>","0","","","","","","","","","","","","","","","","","","","","","","","","","","","","","","","","",""
"audio-keyboard-response","174","475729","0.0-5.0-1.0-0.2","2","0","s6jqvxfltgxtf9c","","null","","sounds/sentences/right_rev/14_06_cfSWS.wav","","null","","","","","","","","","","","","","","","","","","","","","","","","","","","","","","","",""
"html-button-response","175","476587","0.0-5.0-1.0-1.2","2","0","s6jqvxfltgxtf9c","","857.5","","Was the sound coming from the left or the right?","1","","","1","INDUCTION-JUDGMENT","right","1","","","","","","","","","","","","","","","","","","","","","","","","","","",""
"html-keyboard-response","176","477606","0.0-5.0-1.0-2.2","2","0","s6jqvxfltgxtf9c","","null","","<p style=""color:#054d00;""><b>Correct!</b></p>","","null","","","","","","","","","","","","","","","","","","","","","","","","","","","","","","","",""
"html-button-response","177","479448","0.0-5.0-1.0-3.2","2","0","s6jqvxfltgxtf9c","","1339.2000000029802","","<p>Press the button below when you are ready to continue.</p>","0","","","","","","","","","","","","","","","","","","","","","","","","","","","","","","","","",""
"audio-keyboard-response","178","482188","0.0-5.0-1.0-0.3","2","0","s6jqvxfltgxtf9c","","null","","sounds/sentences/right_rev/14_09_cfSWS.wav","","null","","","","","","","","","","","","","","","","","","","","","","","","","","","","","","","",""
"html-button-response","179","482998","0.0-5.0-1.0-1.3","2","0","s6jqvxfltgxtf9c","","808.5","","Was the sound coming from the left or the right?","1","","","1","INDUCTION-JUDGMENT","right","1","","","","","","","","","","","","","","","","","","","","","","","","","","",""
"html-keyboard-response","180","484008","0.0-5.0-1.0-2.3","2","0","s6jqvxfltgxtf9c","","null","","<p style=""color:#054d00;""><b>Correct!</b></p>","","null","","","","","","","","","","","","","","","","","","","","","","","","","","","","","","","",""
"html-button-response","181","485538","0.0-5.0-1.0-3.3","2","0","s6jqvxfltgxtf9c","","1012","","<p>Press the button below when you are ready to continue.</p>","0","","","","","","","","","","","","","","","","","","","","","","","","","","","","","","","","",""
"audio-keyboard-response","182","488539","0.0-5.0-1.0-0.4","2","0","s6jqvxfltgxtf9c","","null","","sounds/sentences/left_rev/14_05_cfSWS.wav","","null","","","","","","","","","","","","","","","","","","","","","","","","","","","","","","","",""
"html-button-response","183","489356","0.0-5.0-1.0-1.4","2","0","s6jqvxfltgxtf9c","","816.0999999940395","","Was the sound coming from the left or the right?","0","","","1","INDUCTION-JUDGMENT","left","0","","","","","","","","","","","","","","","","","","","","","","","","","","",""
"html-keyboard-response","184","490358","0.0-5.0-1.0-2.4","2","0","s6jqvxfltgxtf9c","","null","","<p style=""color:#054d00;""><b>Correct!</b></p>","","null","","","","","","","","","","","","","","","","","","","","","","","","","","","","","","","",""
"html-button-response","185","492164","0.0-5.0-1.0-3.4","2","0","s6jqvxfltgxtf9c","","1295.7999999970198","","<p>Press the button below when you are ready to continue.</p>","0","","","","","","","","","","","","","","","","","","","","","","","","","","","","","","","","",""
"audio-keyboard-response","186","494749","0.0-5.0-1.0-0.5","2","0","s6jqvxfltgxtf9c","","null","","sounds/sentences/left_rev/14_03_cfSWS.wav","","null","","","","","","","","","","","","","","","","","","","","","","","","","","","","","","","",""
"html-button-response","187","495528","0.0-5.0-1.0-1.5","2","0","s6jqvxfltgxtf9c","","777.9000000059605","","Was the sound coming from the left or the right?","0","","","1","INDUCTION-JUDGMENT","left","0","","","","","","","","","","","","","","","","","","","","","","","","","","",""
"html-keyboard-response","188","496546","0.0-5.0-1.0-2.5","2","0","s6jqvxfltgxtf9c","","null","","<p style=""color:#054d00;""><b>Correct!</b></p>","","null","","","","","","","","","","","","","","","","","","","","","","","","","","","","","","","",""
"html-button-response","189","498419","0.0-5.0-1.0-3.5","2","0","s6jqvxfltgxtf9c","","1362.2999999970198","","<p>Press the button below when you are ready to continue.</p>","0","","","","","","","","","","","","","","","","","","","","","","","","","","","","","","","","",""
"audio-keyboard-response","190","501179","0.0-5.0-1.0-0.6","2","0","s6jqvxfltgxtf9c","","null","","sounds/sentences/right_rev/14_08_cfSWS.wav","","null","","","","","","","","","","","","","","","","","","","","","","","","","","","","","","","",""
"html-button-response","191","502044","0.0-5.0-1.0-1.6","2","0","s6jqvxfltgxtf9c","","863.7000000029802","","Was the sound coming from the left or the right?","1","","","1","INDUCTION-JUDGMENT","right","1","","","","","","","","","","","","","","","","","","","","","","","","","","",""
"html-keyboard-response","192","503045","0.0-5.0-1.0-2.6","2","0","s6jqvxfltgxtf9c","","null","","<p style=""color:#054d00;""><b>Correct!</b></p>","","null","","","","","","","","","","","","","","","","","","","","","","","","","","","","","","","",""
"html-button-response","193","504885","0.0-5.0-1.0-3.6","2","0","s6jqvxfltgxtf9c","","1337","","<p>Press the button below when you are ready to continue.</p>","0","","","","","","","","","","","","","","","","","","","","","","","","","","","","","","","","",""
"audio-keyboard-response","194","507909","0.0-5.0-1.0-0.7","2","0","s6jqvxfltgxtf9c","","null","","sounds/sentences/right_rev/14_10_cfSWS.wav","","null","","","","","","","","","","","","","","","","","","","","","","","","","","","","","","","",""
"html-button-response","195","508776","0.0-5.0-1.0-1.7","2","0","s6jqvxfltgxtf9c","","865.3999999910593","","Was the sound coming from the left or the right?","1","","","1","INDUCTION-JUDGMENT","right","1","","","","","","","","","","","","","","","","","","","","","","","","","","",""
"html-keyboard-response","196","509796","0.0-5.0-1.0-2.7","2","0","s6jqvxfltgxtf9c","","null","","<p style=""color:#054d00;""><b>Correct!</b></p>","","null","","","","","","","","","","","","","","","","","","","","","","","","","","","","","","","",""
"html-button-response","197","511393","0.0-5.0-1.0-3.7","2","0","s6jqvxfltgxtf9c","","1086.300000011921","","<p>Press the button below when you are ready to continue.</p>","0","","","","","","","","","","","","","","","","","","","","","","","","","","","","","","","","",""
"audio-keyboard-response","198","514509","0.0-5.0-1.0-0.8","2","0","s6jqvxfltgxtf9c","","null","","sounds/sentences/left_rev/14_01_cfSWS.wav","","null","","","","","","","","","","","","","","","","","","","","","","","","","","","","","","","",""
"html-button-response","199","515561","0.0-5.0-1.0-1.8","2","0","s6jqvxfltgxtf9c","","1050.5","","Was the sound coming from the left or the right?","0","","","1","INDUCTION-JUDGMENT","left","0","","","","","","","","","","","","","","","","","","","","","","","","","","",""
"html-keyboard-response","200","516563","0.0-5.0-1.0-2.8","2","0","s6jqvxfltgxtf9c","","null","","<p style=""color:#054d00;""><b>Correct!</b></p>","","null","","","","","","","","","","","","","","","","","","","","","","","","","","","","","","","",""
"html-button-response","201","517930","0.0-5.0-1.0-3.8","2","0","s6jqvxfltgxtf9c","","866.8000000119209","","<p>Press the button below when you are ready to continue.</p>","0","","","","","","","","","","","","","","","","","","","","","","","","","","","","","","","","",""
"audio-keyboard-response","202","520819","0.0-5.0-1.0-0.9","2","0","s6jqvxfltgxtf9c","","null","","sounds/sentences/right_rev/14_07_cfSWS.wav","","null","","","","","","","","","","","","","","","","","","","","","","","","","","","","","","","",""
"html-button-response","203","521480","0.0-5.0-1.0-1.9","2","0","s6jqvxfltgxtf9c","","660.5","","Was the sound coming from the left or the right?","1","","","1","INDUCTION-JUDGMENT","right","1","","","","","","","","","","","","","","","","","","","","","","","","","","",""
"html-keyboard-response","204","522496","0.0-5.0-1.0-2.9","2","0","s6jqvxfltgxtf9c","","null","","<p style=""color:#054d00;""><b>Correct!</b></p>","","null","","","","","","","","","","","","","","","","","","","","","","","","","","","","","","","",""
"html-button-response","205","523935","0.0-5.0-1.0-3.9","2","0","s6jqvxfltgxtf9c","","935.7999999970198","","<p>Press the button below when you are ready to continue.</p>","0","","","","","","","","","","","","","","","","","","","","","","","","","","","","","","","","",""
"html-keyboard-response","206","567911","0.0-6.0-0.0","2","0","s6jqvxfltgxtf9c","","43474.09999999404","","<p>In this part of the study, you will hear sounds similar to those you just heard.</p><p>Please focus on these sounds, as you may be asked questions about them later.</p><p>Occasionally, the sounds will pause for up to two seconds. When this happens, please press SPACEBAR as quickly as you can.</br>This helps ensure that you are paying attention to the sounds.</p><p>This part of the study will take about 12 minutes to complete, and you will be given the opportunity to take a couple of short breaks every few minutes.</p><p><strong>Press SPACEBAR to begin</strong></p>","","32","","","","","","","","","","","","","","","","","","","","","","","","","","","","","","","",""
"html-keyboard-response","207","568919","0.0-6.0-1.0-0.0","2","0","s6jqvxfltgxtf9c","","null","","<p style=""font-size: 40px;"">+</p>","","null","","","","","","","","","","","","","","","","","","","","","","","","","","","","","","","",""
"html-keyboard-response","208","753923","0.0-6.0-1.0-1.0","2","0","s6jqvxfltgxtf9c","","null","","","","null","","","SL-TRAIN","","","2","null","null","sounds/B/TRAIN/SEQ__05.mp3","9","","","","","","","","","","","","","","","","","","","","","",""
"html-button-response","209","758927","0.0-6.0-1.0-2.0","2","0","s6jqvxfltgxtf9c","","5003","","<p>You may take a short break if you wish.</p>","0","","","","","","","","","","","","","","","","","","","","","","","","","","","","","","","","",""
"html-keyboard-response","210","759930","0.0-6.0-1.0-3.0","2","0","s6jqvxfltgxtf9c","","null","","<p style=""font-size: 40px;"">+</p>","","null","","","","","","","","","","","","","","","","","","","","","","","","","","","","","","","",""
"html-keyboard-response","211","944933","0.0-6.0-1.0-4.0","2","0","s6jqvxfltgxtf9c","","null","","","","null","","","SL-TRAIN","","","1","1737.5","null","sounds/B/TRAIN/SEQ__11.mp3","7","","","","","","","","","","","","","","","","","","","","","",""
"html-button-response","212","947627","0.0-6.0-1.0-5.0","2","0","s6jqvxfltgxtf9c","","2691.9000000059605","","<p>You may take a short break if you wish.</p>","0","","","","","","","","","","","","","","","","","","","","","","","","","","","","","","","","",""
"html-keyboard-response","213","948629","0.0-6.0-1.0-6.0","2","0","s6jqvxfltgxtf9c","","null","","<p style=""font-size: 40px;"">+</p>","","null","","","","","","","","","","","","","","","","","","","","","","","","","","","","","","","",""
"html-keyboard-response","214","1133633","0.0-6.0-1.0-7.0","2","0","s6jqvxfltgxtf9c","","null","","","","null","","","SL-TRAIN","","","0","1939","1913.9000000059605","sounds/B/TRAIN/SEQ__07.mp3","26","","","","","","","","","","","","","","","","","","","","","",""
"html-button-response","215","1135978","0.0-6.0-1.0-8.0","2","0","s6jqvxfltgxtf9c","","2343.5999999940395","","<p>You may take a short break if you wish.</p>","0","","","","","","","","","","","","","","","","","","","","","","","","","","","","","","","","",""
"html-keyboard-response","216","1136979","0.0-6.0-1.0-9.0","2","0","s6jqvxfltgxtf9c","","null","","<p style=""font-size: 40px;"">+</p>","","null","","","","","","","","","","","","","","","","","","","","","","","","","","","","","","","",""
"html-keyboard-response","217","1321982","0.0-6.0-1.0-10.0","2","0","s6jqvxfltgxtf9c","","null","","","","null","","","SL-TRAIN","","","0","1866.7000000029802","1966.5","sounds/B/TRAIN/SEQ__10.mp3","36","","","","","","","","","","","","","","","","","","","","","",""
"html-button-response","218","1324623","0.0-6.0-1.0-11.0","2","0","s6jqvxfltgxtf9c","","2639.5","","<p>You may take a short break if you wish.</p>","0","","","","","","","","","","","","","","","","","","","","","","","","","","","","","","","","",""
"html-button-response","219","1332078","0.0-7.0-0.0","2","0","s6jqvxfltgxtf9c","","7453","","<p>Welcome to the second part of the study. This is a <u>familiarity task</u>.</p><p>You will now hear short sounds and will be asked to rate how familiar they sound to you <b>based on what you heard in the previous part of the study</b>.</p><p>You will rate 12 sounds in total.</p>","0","","","","","","","","","","","","","","","","","","","","","","","","","","","","","","","","",""
"html-keyboard-response","220","1333080","0.0-7.0-1.0-0.0","2","0","s6jqvxfltgxtf9c","","null","","","","null","","","","","","","","","","","","","","","","","","","","","","","","","","","","","","","",""
"audio-keyboard-response","221","1334050","0.0-7.0-1.0-1.0","2","0","s6jqvxfltgxtf9c","","null","","sounds/B/FAM/N002.mp3","","null","","","","","","","","","","","","","","","","","","","","","","","","","","","","","","","",""
"html-keyboard-response","222","1338340","0.0-7.0-1.0-2.0","2","0","s6jqvxfltgxtf9c","","3777.7999999970198","","<p>How familiar did this sound to you?</p><p>1&nbsp;&nbsp;&nbsp;&nbsp;&nbsp;&nbsp;&nbsp;&nbsp;&nbsp;&nbsp;&nbsp;&nbsp;&nbsp;&nbsp;&nbsp;&nbsp;&nbsp;&nbsp;&nbsp;2&nbsp;&nbsp;&nbsp;&nbsp;&nbsp;&nbsp;&nbsp;&nbsp;&nbsp;&nbsp;&nbsp;&nbsp;&nbsp;&nbsp;&nbsp;&nbsp;&nbsp;&nbsp;&nbsp;3&nbsp;&nbsp;&nbsp;&nbsp;&nbsp;&nbsp;&nbsp;&nbsp;&nbsp;&nbsp;&nbsp;&nbsp;&nbsp;&nbsp;&nbsp;&nbsp;&nbsp;&nbsp;&nbsp;4</p><p style=""font-size:14px"">Not at all familiar&nbsp;&nbsp;&nbsp;&nbsp;A little familiar&nbsp;&nbsp;&nbsp;Moderately familiar&nbsp;&nbsp;&nbsp;Extremely familiar</p><p>(press the corresponding number on your keyboard)</p>","","51","","","FAM-RESPONSE","","","","","","","","sounds/B/FAM/N002.mp3","nonword","","","","","","","","","","","","","","","","","","","",""
"html-keyboard-response","223","1340353","0.0-7.0-1.0-0.1","2","0","s6jqvxfltgxtf9c","","null","","","","null","","","","","","","","","","","","","","","","","","","","","","","","","","","","","","","",""
"audio-keyboard-response","224","1341288","0.0-7.0-1.0-1.1","2","0","s6jqvxfltgxtf9c","","null","","sounds/B/FAM/N004.mp3","","null","","","","","","","","","","","","","","","","","","","","","","","","","","","","","","","",""
"html-keyboard-response","225","1342583","0.0-7.0-1.0-2.1","2","0","s6jqvxfltgxtf9c","","777.3999999910593","","<p>How familiar did this sound to you?</p><p>1&nbsp;&nbsp;&nbsp;&nbsp;&nbsp;&nbsp;&nbsp;&nbsp;&nbsp;&nbsp;&nbsp;&nbsp;&nbsp;&nbsp;&nbsp;&nbsp;&nbsp;&nbsp;&nbsp;2&nbsp;&nbsp;&nbsp;&nbsp;&nbsp;&nbsp;&nbsp;&nbsp;&nbsp;&nbsp;&nbsp;&nbsp;&nbsp;&nbsp;&nbsp;&nbsp;&nbsp;&nbsp;&nbsp;3&nbsp;&nbsp;&nbsp;&nbsp;&nbsp;&nbsp;&nbsp;&nbsp;&nbsp;&nbsp;&nbsp;&nbsp;&nbsp;&nbsp;&nbsp;&nbsp;&nbsp;&nbsp;&nbsp;4</p><p style=""font-size:14px"">Not at all familiar&nbsp;&nbsp;&nbsp;&nbsp;A little familiar&nbsp;&nbsp;&nbsp;Moderately familiar&nbsp;&nbsp;&nbsp;Extremely familiar</p><p>(press the corresponding number on your keyboard)</p>","","52","","","FAM-RESPONSE","","","","","","","","sounds/B/FAM/N004.mp3","nonword","","","","","","","","","","","","","","","","","","","",""
"html-keyboard-response","226","1344589","0.0-7.0-1.0-0.2","2","0","s6jqvxfltgxtf9c","","null","","","","null","","","","","","","","","","","","","","","","","","","","","","","","","","","","","","","",""
"audio-keyboard-response","227","1345530","0.0-7.0-1.0-1.2","2","0","s6jqvxfltgxtf9c","","null","","sounds/B/FAM/P002.mp3","","null","","","","","","","","","","","","","","","","","","","","","","","","","","","","","","","",""
"html-keyboard-response","228","1346561","0.0-7.0-1.0-2.2","2","0","s6jqvxfltgxtf9c","","513.8999999910593","","<p>How familiar did this sound to you?</p><p>1&nbsp;&nbsp;&nbsp;&nbsp;&nbsp;&nbsp;&nbsp;&nbsp;&nbsp;&nbsp;&nbsp;&nbsp;&nbsp;&nbsp;&nbsp;&nbsp;&nbsp;&nbsp;&nbsp;2&nbsp;&nbsp;&nbsp;&nbsp;&nbsp;&nbsp;&nbsp;&nbsp;&nbsp;&nbsp;&nbsp;&nbsp;&nbsp;&nbsp;&nbsp;&nbsp;&nbsp;&nbsp;&nbsp;3&nbsp;&nbsp;&nbsp;&nbsp;&nbsp;&nbsp;&nbsp;&nbsp;&nbsp;&nbsp;&nbsp;&nbsp;&nbsp;&nbsp;&nbsp;&nbsp;&nbsp;&nbsp;&nbsp;4</p><p style=""font-size:14px"">Not at all familiar&nbsp;&nbsp;&nbsp;&nbsp;A little familiar&nbsp;&nbsp;&nbsp;Moderately familiar&nbsp;&nbsp;&nbsp;Extremely familiar</p><p>(press the corresponding number on your keyboard)</p>","","52","","","FAM-RESPONSE","","","","","","","","sounds/B/FAM/P002.mp3","partword","","","","","","","","","","","","","","","","","","","",""
"html-keyboard-response","229","1348577","0.0-7.0-1.0-0.3","2","0","s6jqvxfltgxtf9c","","null","","","","null","","","","","","","","","","","","","","","","","","","","","","","","","","","","","","","",""
"audio-keyboard-response","230","1349519","0.0-7.0-1.0-1.3","2","0","s6jqvxfltgxtf9c","","null","","sounds/B/FAM/P003.mp3","","null","","","","","","","","","","","","","","","","","","","","","","","","","","","","","","","",""
"html-keyboard-response","231","1350836","0.0-7.0-1.0-2.3","2","0","s6jqvxfltgxtf9c","","808.7999999970198","","<p>How familiar did this sound to you?</p><p>1&nbsp;&nbsp;&nbsp;&nbsp;&nbsp;&nbsp;&nbsp;&nbsp;&nbsp;&nbsp;&nbsp;&nbsp;&nbsp;&nbsp;&nbsp;&nbsp;&nbsp;&nbsp;&nbsp;2&nbsp;&nbsp;&nbsp;&nbsp;&nbsp;&nbsp;&nbsp;&nbsp;&nbsp;&nbsp;&nbsp;&nbsp;&nbsp;&nbsp;&nbsp;&nbsp;&nbsp;&nbsp;&nbsp;3&nbsp;&nbsp;&nbsp;&nbsp;&nbsp;&nbsp;&nbsp;&nbsp;&nbsp;&nbsp;&nbsp;&nbsp;&nbsp;&nbsp;&nbsp;&nbsp;&nbsp;&nbsp;&nbsp;4</p><p style=""font-size:14px"">Not at all familiar&nbsp;&nbsp;&nbsp;&nbsp;A little familiar&nbsp;&nbsp;&nbsp;Moderately familiar&nbsp;&nbsp;&nbsp;Extremely familiar</p><p>(press the corresponding number on your keyboard)</p>","","51","","","FAM-RESPONSE","","","","","","","","sounds/B/FAM/P003.mp3","partword","","","","","","","","","","","","","","","","","","","",""
"html-keyboard-response","232","1352844","0.0-7.0-1.0-0.4","2","0","s6jqvxfltgxtf9c","","null","","","","null","","","","","","","","","","","","","","","","","","","","","","","","","","","","","","","",""
"audio-keyboard-response","233","1353779","0.0-7.0-1.0-1.4","2","0","s6jqvxfltgxtf9c","","null","","sounds/B/FAM/N001.mp3","","null","","","","","","","","","","","","","","","","","","","","","","","","","","","","","","","",""
"html-keyboard-response","234","1354880","0.0-7.0-1.0-2.4","2","0","s6jqvxfltgxtf9c","","592.8000000119209","","<p>How familiar did this sound to you?</p><p>1&nbsp;&nbsp;&nbsp;&nbsp;&nbsp;&nbsp;&nbsp;&nbsp;&nbsp;&nbsp;&nbsp;&nbsp;&nbsp;&nbsp;&nbsp;&nbsp;&nbsp;&nbsp;&nbsp;2&nbsp;&nbsp;&nbsp;&nbsp;&nbsp;&nbsp;&nbsp;&nbsp;&nbsp;&nbsp;&nbsp;&nbsp;&nbsp;&nbsp;&nbsp;&nbsp;&nbsp;&nbsp;&nbsp;3&nbsp;&nbsp;&nbsp;&nbsp;&nbsp;&nbsp;&nbsp;&nbsp;&nbsp;&nbsp;&nbsp;&nbsp;&nbsp;&nbsp;&nbsp;&nbsp;&nbsp;&nbsp;&nbsp;4</p><p style=""font-size:14px"">Not at all familiar&nbsp;&nbsp;&nbsp;&nbsp;A little familiar&nbsp;&nbsp;&nbsp;Moderately familiar&nbsp;&nbsp;&nbsp;Extremely familiar</p><p>(press the corresponding number on your keyboard)</p>","","52","","","FAM-RESPONSE","","","","","","","","sounds/B/FAM/N001.mp3","nonword","","","","","","","","","","","","","","","","","","","",""
"html-keyboard-response","235","1356889","0.0-7.0-1.0-0.5","2","0","s6jqvxfltgxtf9c","","null","","","","null","","","","","","","","","","","","","","","","","","","","","","","","","","","","","","","",""
"audio-keyboard-response","236","1357839","0.0-7.0-1.0-1.5","2","0","s6jqvxfltgxtf9c","","null","","sounds/B/FAM/W004.mp3","","null","","","","","","","","","","","","","","","","","","","","","","","","","","","","","","","",""
"html-keyboard-response","237","1359084","0.0-7.0-1.0-2.5","2","0","s6jqvxfltgxtf9c","","741.5999999940395","","<p>How familiar did this sound to you?</p><p>1&nbsp;&nbsp;&nbsp;&nbsp;&nbsp;&nbsp;&nbsp;&nbsp;&nbsp;&nbsp;&nbsp;&nbsp;&nbsp;&nbsp;&nbsp;&nbsp;&nbsp;&nbsp;&nbsp;2&nbsp;&nbsp;&nbsp;&nbsp;&nbsp;&nbsp;&nbsp;&nbsp;&nbsp;&nbsp;&nbsp;&nbsp;&nbsp;&nbsp;&nbsp;&nbsp;&nbsp;&nbsp;&nbsp;3&nbsp;&nbsp;&nbsp;&nbsp;&nbsp;&nbsp;&nbsp;&nbsp;&nbsp;&nbsp;&nbsp;&nbsp;&nbsp;&nbsp;&nbsp;&nbsp;&nbsp;&nbsp;&nbsp;4</p><p style=""font-size:14px"">Not at all familiar&nbsp;&nbsp;&nbsp;&nbsp;A little familiar&nbsp;&nbsp;&nbsp;Moderately familiar&nbsp;&nbsp;&nbsp;Extremely familiar</p><p>(press the corresponding number on your keyboard)</p>","","52","","","FAM-RESPONSE","","","","","","","","sounds/B/FAM/W004.mp3","word","","","","","","","","","","","","","","","","","","","",""
"html-keyboard-response","238","1361092","0.0-7.0-1.0-0.6","2","0","s6jqvxfltgxtf9c","","null","","","","null","","","","","","","","","","","","","","","","","","","","","","","","","","","","","","","",""
"audio-keyboard-response","239","1362039","0.0-7.0-1.0-1.6","2","0","s6jqvxfltgxtf9c","","null","","sounds/B/FAM/N003.mp3","","null","","","","","","","","","","","","","","","","","","","","","","","","","","","","","","","",""
"html-keyboard-response","240","1363055","0.0-7.0-1.0-2.6","2","0","s6jqvxfltgxtf9c","","512.5","","<p>How familiar did this sound to you?</p><p>1&nbsp;&nbsp;&nbsp;&nbsp;&nbsp;&nbsp;&nbsp;&nbsp;&nbsp;&nbsp;&nbsp;&nbsp;&nbsp;&nbsp;&nbsp;&nbsp;&nbsp;&nbsp;&nbsp;2&nbsp;&nbsp;&nbsp;&nbsp;&nbsp;&nbsp;&nbsp;&nbsp;&nbsp;&nbsp;&nbsp;&nbsp;&nbsp;&nbsp;&nbsp;&nbsp;&nbsp;&nbsp;&nbsp;3&nbsp;&nbsp;&nbsp;&nbsp;&nbsp;&nbsp;&nbsp;&nbsp;&nbsp;&nbsp;&nbsp;&nbsp;&nbsp;&nbsp;&nbsp;&nbsp;&nbsp;&nbsp;&nbsp;4</p><p style=""font-size:14px"">Not at all familiar&nbsp;&nbsp;&nbsp;&nbsp;A little familiar&nbsp;&nbsp;&nbsp;Moderately familiar&nbsp;&nbsp;&nbsp;Extremely familiar</p><p>(press the corresponding number on your keyboard)</p>","","50","","","FAM-RESPONSE","","","","","","","","sounds/B/FAM/N003.mp3","nonword","","","","","","","","","","","","","","","","","","","",""
"html-keyboard-response","241","1365066","0.0-7.0-1.0-0.7","2","0","s6jqvxfltgxtf9c","","null","","","","null","","","","","","","","","","","","","","","","","","","","","","","","","","","","","","","",""
"audio-keyboard-response","242","1366009","0.0-7.0-1.0-1.7","2","0","s6jqvxfltgxtf9c","","null","","sounds/B/FAM/W001.mp3","","null","","","","","","","","","","","","","","","","","","","","","","","","","","","","","","","",""
"html-keyboard-response","243","1367066","0.0-7.0-1.0-2.7","2","0","s6jqvxfltgxtf9c","","540.8999999910593","","<p>How familiar did this sound to you?</p><p>1&nbsp;&nbsp;&nbsp;&nbsp;&nbsp;&nbsp;&nbsp;&nbsp;&nbsp;&nbsp;&nbsp;&nbsp;&nbsp;&nbsp;&nbsp;&nbsp;&nbsp;&nbsp;&nbsp;2&nbsp;&nbsp;&nbsp;&nbsp;&nbsp;&nbsp;&nbsp;&nbsp;&nbsp;&nbsp;&nbsp;&nbsp;&nbsp;&nbsp;&nbsp;&nbsp;&nbsp;&nbsp;&nbsp;3&nbsp;&nbsp;&nbsp;&nbsp;&nbsp;&nbsp;&nbsp;&nbsp;&nbsp;&nbsp;&nbsp;&nbsp;&nbsp;&nbsp;&nbsp;&nbsp;&nbsp;&nbsp;&nbsp;4</p><p style=""font-size:14px"">Not at all familiar&nbsp;&nbsp;&nbsp;&nbsp;A little familiar&nbsp;&nbsp;&nbsp;Moderately familiar&nbsp;&nbsp;&nbsp;Extremely familiar</p><p>(press the corresponding number on your keyboard)</p>","","51","","","FAM-RESPONSE","","","","","","","","sounds/B/FAM/W001.mp3","word","","","","","","","","","","","","","","","","","","","",""
"html-keyboard-response","244","1369084","0.0-7.0-1.0-0.8","2","0","s6jqvxfltgxtf9c","","null","","","","null","","","","","","","","","","","","","","","","","","","","","","","","","","","","","","","",""
"audio-keyboard-response","245","1370019","0.0-7.0-1.0-1.8","2","0","s6jqvxfltgxtf9c","","null","","sounds/B/FAM/W002.mp3","","null","","","","","","","","","","","","","","","","","","","","","","","","","","","","","","","",""
"html-keyboard-response","246","1371347","0.0-7.0-1.0-2.8","2","0","s6jqvxfltgxtf9c","","810.5","","<p>How familiar did this sound to you?</p><p>1&nbsp;&nbsp;&nbsp;&nbsp;&nbsp;&nbsp;&nbsp;&nbsp;&nbsp;&nbsp;&nbsp;&nbsp;&nbsp;&nbsp;&nbsp;&nbsp;&nbsp;&nbsp;&nbsp;2&nbsp;&nbsp;&nbsp;&nbsp;&nbsp;&nbsp;&nbsp;&nbsp;&nbsp;&nbsp;&nbsp;&nbsp;&nbsp;&nbsp;&nbsp;&nbsp;&nbsp;&nbsp;&nbsp;3&nbsp;&nbsp;&nbsp;&nbsp;&nbsp;&nbsp;&nbsp;&nbsp;&nbsp;&nbsp;&nbsp;&nbsp;&nbsp;&nbsp;&nbsp;&nbsp;&nbsp;&nbsp;&nbsp;4</p><p style=""font-size:14px"">Not at all familiar&nbsp;&nbsp;&nbsp;&nbsp;A little familiar&nbsp;&nbsp;&nbsp;Moderately familiar&nbsp;&nbsp;&nbsp;Extremely familiar</p><p>(press the corresponding number on your keyboard)</p>","","52","","","FAM-RESPONSE","","","","","","","","sounds/B/FAM/W002.mp3","word","","","","","","","","","","","","","","","","","","","",""
"html-keyboard-response","247","1373356","0.0-7.0-1.0-0.9","2","0","s6jqvxfltgxtf9c","","null","","","","null","","","","","","","","","","","","","","","","","","","","","","","","","","","","","","","",""
"audio-keyboard-response","248","1374289","0.0-7.0-1.0-1.9","2","0","s6jqvxfltgxtf9c","","null","","sounds/B/FAM/W003.mp3","","null","","","","","","","","","","","","","","","","","","","","","","","","","","","","","","","",""
"html-keyboard-response","249","1375337","0.0-7.0-1.0-2.9","2","0","s6jqvxfltgxtf9c","","530.6000000089407","","<p>How familiar did this sound to you?</p><p>1&nbsp;&nbsp;&nbsp;&nbsp;&nbsp;&nbsp;&nbsp;&nbsp;&nbsp;&nbsp;&nbsp;&nbsp;&nbsp;&nbsp;&nbsp;&nbsp;&nbsp;&nbsp;&nbsp;2&nbsp;&nbsp;&nbsp;&nbsp;&nbsp;&nbsp;&nbsp;&nbsp;&nbsp;&nbsp;&nbsp;&nbsp;&nbsp;&nbsp;&nbsp;&nbsp;&nbsp;&nbsp;&nbsp;3&nbsp;&nbsp;&nbsp;&nbsp;&nbsp;&nbsp;&nbsp;&nbsp;&nbsp;&nbsp;&nbsp;&nbsp;&nbsp;&nbsp;&nbsp;&nbsp;&nbsp;&nbsp;&nbsp;4</p><p style=""font-size:14px"">Not at all familiar&nbsp;&nbsp;&nbsp;&nbsp;A little familiar&nbsp;&nbsp;&nbsp;Moderately familiar&nbsp;&nbsp;&nbsp;Extremely familiar</p><p>(press the corresponding number on your keyboard)</p>","","52","","","FAM-RESPONSE","","","","","","","","sounds/B/FAM/W003.mp3","word","","","","","","","","","","","","","","","","","","","",""
"html-keyboard-response","250","1377346","0.0-7.0-1.0-0.10","2","0","s6jqvxfltgxtf9c","","null","","","","null","","","","","","","","","","","","","","","","","","","","","","","","","","","","","","","",""
"audio-keyboard-response","251","1378289","0.0-7.0-1.0-1.10","2","0","s6jqvxfltgxtf9c","","null","","sounds/B/FAM/P001.mp3","","null","","","","","","","","","","","","","","","","","","","","","","","","","","","","","","","",""
"html-keyboard-response","252","1379486","0.0-7.0-1.0-2.10","2","0","s6jqvxfltgxtf9c","","689.1000000089407","","<p>How familiar did this sound to you?</p><p>1&nbsp;&nbsp;&nbsp;&nbsp;&nbsp;&nbsp;&nbsp;&nbsp;&nbsp;&nbsp;&nbsp;&nbsp;&nbsp;&nbsp;&nbsp;&nbsp;&nbsp;&nbsp;&nbsp;2&nbsp;&nbsp;&nbsp;&nbsp;&nbsp;&nbsp;&nbsp;&nbsp;&nbsp;&nbsp;&nbsp;&nbsp;&nbsp;&nbsp;&nbsp;&nbsp;&nbsp;&nbsp;&nbsp;3&nbsp;&nbsp;&nbsp;&nbsp;&nbsp;&nbsp;&nbsp;&nbsp;&nbsp;&nbsp;&nbsp;&nbsp;&nbsp;&nbsp;&nbsp;&nbsp;&nbsp;&nbsp;&nbsp;4</p><p style=""font-size:14px"">Not at all familiar&nbsp;&nbsp;&nbsp;&nbsp;A little familiar&nbsp;&nbsp;&nbsp;Moderately familiar&nbsp;&nbsp;&nbsp;Extremely familiar</p><p>(press the corresponding number on your keyboard)</p>","","52","","","FAM-RESPONSE","","","","","","","","sounds/B/FAM/P001.mp3","partword","","","","","","","","","","","","","","","","","","","",""
"html-keyboard-response","253","1381512","0.0-7.0-1.0-0.11","2","0","s6jqvxfltgxtf9c","","null","","","","null","","","","","","","","","","","","","","","","","","","","","","","","","","","","","","","",""
"audio-keyboard-response","254","1382449","0.0-7.0-1.0-1.11","2","0","s6jqvxfltgxtf9c","","null","","sounds/B/FAM/P004.mp3","","null","","","","","","","","","","","","","","","","","","","","","","","","","","","","","","","",""
"html-keyboard-response","255","1383458","0.0-7.0-1.0-2.11","2","0","s6jqvxfltgxtf9c","","507.29999999701977","","<p>How familiar did this sound to you?</p><p>1&nbsp;&nbsp;&nbsp;&nbsp;&nbsp;&nbsp;&nbsp;&nbsp;&nbsp;&nbsp;&nbsp;&nbsp;&nbsp;&nbsp;&nbsp;&nbsp;&nbsp;&nbsp;&nbsp;2&nbsp;&nbsp;&nbsp;&nbsp;&nbsp;&nbsp;&nbsp;&nbsp;&nbsp;&nbsp;&nbsp;&nbsp;&nbsp;&nbsp;&nbsp;&nbsp;&nbsp;&nbsp;&nbsp;3&nbsp;&nbsp;&nbsp;&nbsp;&nbsp;&nbsp;&nbsp;&nbsp;&nbsp;&nbsp;&nbsp;&nbsp;&nbsp;&nbsp;&nbsp;&nbsp;&nbsp;&nbsp;&nbsp;4</p><p style=""font-size:14px"">Not at all familiar&nbsp;&nbsp;&nbsp;&nbsp;A little familiar&nbsp;&nbsp;&nbsp;Moderately familiar&nbsp;&nbsp;&nbsp;Extremely familiar</p><p>(press the corresponding number on your keyboard)</p>","","52","","","FAM-RESPONSE","","","","","","","","sounds/B/FAM/P004.mp3","partword","","","","","","","","","","","","","","","","","","","",""
"html-button-response","256","1400949","0.0-8.0-0.0","2","0","s6jqvxfltgxtf9c","","16479.20000000298","","<p>You will now listen to longer sound sequences.</p><p>Each sound sequence will last about 16 seconds.</p><p>On each trial, you will be given a <u>TARGET SOUND</u>. Your task is to listen very carefully for this sound.</p><p>Every time you hear the <u>TARGET SOUND</u>, you will press the <b>SPACEBAR</b> as quickly and accurately as you can.</p>","0","","","","","","","","","","","","","","","","","","","","","","","","","","","","","","","","",""
"html-button-response","257","1417794","0.0-8.0-1.0","2","0","s6jqvxfltgxtf9c","","16586.40000000596","","<p>It is very important that you make your responses as quickly and accurately as possible.</p><p>To help you make your responses, you will be able to listen to the <u>TARGET SOUND</u> at the beginning of each trial.</p><p>There will be 36 total trials.</p><p><b>Note: This is meant to be a difficult task. We simply want you to try your best.</p>","0","","","","","","","","","","","","","","","","","","","","","","","","","","","","","","","","",""
"html-button-response","258","1419951","0.0-8.0-2.0-0.0","2","0","s6jqvxfltgxtf9c","","1904.9000000059605","","<p>Trial 1 of 36</p>","0","","","","","","","","","","","","","","FE","sounds/syllables/fe_SWS.wav","1500,4200,6900,8700","3","","","","","","","","","","","","","","","",""
"html-keyboard-response","259","1422824","0.0-8.0-2.0-1.0","2","0","s6jqvxfltgxtf9c","","2871.4000000059605","","","","80","","","","","","","","","","","","","FE","","1500,4200,6900,8700","3","","","","","","","","","","","","","","","",""
"audio-keyboard-response","260","1423288","0.0-8.0-2.0-2.0-0.0","2","0","s6jqvxfltgxtf9c","","null","","sounds/syllables/fe_SWS.wav","","null","","","","","","","","","","","","","","","","","","","","","","","","","","","","","","","",""
"html-keyboard-response","261","1426205","0.0-8.0-2.0-2.0-1.0","2","0","s6jqvxfltgxtf9c","","2916.2000000029802","","<p>To replay the <u>TARGET SOUND</u>, press P.</p> When you are ready to begin, press SPACEBAR.","","80","","","","","","","","","","","","","","","","","","","","","","","","","","","","","","","",""
"audio-keyboard-response","262","1427008","0.0-8.0-2.0-2.1-0.1","2","0","s6jqvxfltgxtf9c","","null","","sounds/syllables/fe_SWS.wav","","null","","","","","","","","","","","","","","","","","","","","","","","","","","","","","","","",""
"html-keyboard-response","263","1427685","0.0-8.0-2.0-2.1-1.1","2","0","s6jqvxfltgxtf9c","","675.7999999970198","","<p>To replay the <u>TARGET SOUND</u>, press P.</p> When you are ready to begin, press SPACEBAR.","","32","","","","","","","","","","","","","","","","","","","","","","","","","","","","","","","",""
"audio-keyboard-response","264","1442638","0.0-8.0-2.0-3.0","2","0","s6jqvxfltgxtf9c","","651","","sounds/B/TD/FE_03_TD.mp3","","32","","","TD_SUMMARY","","","","","","","","","","FE","","1500,4200,6900,8700","3","1500","4200","6900","8700","1162.7999999970198","255.5","null","null","650.8999999910593_1173.7999999970198_1562.7999999970198_2662.7999999970198_3573.5_4068.3999999910593_4455.5_5870.79999999702_6970.70000000298_8387_10046.59999999404_11434.39999999106_13716.20000000298","2","","","","","",""
"html-button-response","265","1444739","0.0-8.0-2.0-0.1","2","0","s6jqvxfltgxtf9c","","2098.2000000029802","","<p>Trial 2 of 36</p>","0","","","","","","","","","","","","","","NI","sounds/syllables/ni_SWS.wav","1200,7500,9300,12900","2","","","","","","","","","","","","","","","",""
"html-keyboard-response","266","1447056","0.0-8.0-2.0-1.1","2","0","s6jqvxfltgxtf9c","","2316.7000000029802","","","","80","","","","","","","","","","","","","NI","","1200,7500,9300,12900","2","","","","","","","","","","","","","","","",""
"audio-keyboard-response","267","1447358","0.0-8.0-2.0-2.2-0.2","2","0","s6jqvxfltgxtf9c","","null","","sounds/syllables/ni_SWS.wav","","null","","","","","","","","","","","","","","","","","","","","","","","","","","","","","","","",""
"html-keyboard-response","268","1449281","0.0-8.0-2.0-2.2-1.2","2","0","s6jqvxfltgxtf9c","","1921.699999988079","","<p>To replay the <u>TARGET SOUND</u>, press P.</p> When you are ready to begin, press SPACEBAR.","","80","","","","","","","","","","","","","","","","","","","","","","","","","","","","","","","",""
"audio-keyboard-response","269","1450088","0.0-8.0-2.0-2.3-0.3","2","0","s6jqvxfltgxtf9c","","null","","sounds/syllables/ni_SWS.wav","","null","","","","","","","","","","","","","","","","","","","","","","","","","","","","","","","",""
"html-keyboard-response","270","1450800","0.0-8.0-2.0-2.3-1.3","2","0","s6jqvxfltgxtf9c","","711","","<p>To replay the <u>TARGET SOUND</u>, press P.</p> When you are ready to begin, press SPACEBAR.","","32","","","","","","","","","","","","","","","","","","","","","","","","","","","","","","","",""
"audio-keyboard-response","271","1465758","0.0-8.0-2.0-3.1","2","0","s6jqvxfltgxtf9c","","381","","sounds/B/TD/NI_10_TD.mp3","","32","","","TD_SUMMARY","","","","","","","","","","NI","","1200,7500,9300,12900","2","1200","7500","9300","12900","null","1025.4000000059605","null","1098.7000000029802","_____________376.09999999403954_1300.2999999970198_2476.2000000029802_3515.7999999970198_4750.9000000059605_5958.70000000298_6887.29999999702_8525.40000000596_8790.40000000596_9054.79999999702_10807.09999999404_11174.5_12640.59999999404_13998.70000000298","2","","","","","",""
"html-button-response","272","1467938","0.0-8.0-2.0-0.2","2","0","s6jqvxfltgxtf9c","","2177.9000000059605","","<p>Trial 3 of 36</p>","0","","","","","","","","","","","","","","TI","sounds/syllables/ti_SWS.wav","900,3600,8100,11700","1","","","","","","","","","","","","","","","",""
"html-keyboard-response","273","1469664","0.0-8.0-2.0-1.2","2","0","s6jqvxfltgxtf9c","","1718","","","","80","","","","","","","","","","","","","TI","","900,3600,8100,11700","1","","","","","","","","","","","","","","","",""
"audio-keyboard-response","274","1469967","0.0-8.0-2.0-2.4-0.4","2","0","s6jqvxfltgxtf9c","","null","","sounds/syllables/ti_SWS.wav","","null","","","","","","","","","","","","","","","","","","","","","","","","","","","","","","","",""
"html-keyboard-response","275","1470967","0.0-8.0-2.0-2.4-1.4","2","0","s6jqvxfltgxtf9c","","999.7999999970198","","<p>To replay the <u>TARGET SOUND</u>, press P.</p> When you are ready to begin, press SPACEBAR.","","32","","","","","","","","","","","","","","","","","","","","","","","","","","","","","","","",""
"audio-keyboard-response","276","1485918","0.0-8.0-2.0-3.2","2","0","s6jqvxfltgxtf9c","","541","","sounds/B/TD/TI_08_TD.mp3","","32","","","TD_SUMMARY","","","","","","","","","","TI","","900,3600,8100,11700","1","900","3600","8100","11700","342.3999999910593","727.0999999940395","533.7999999970198","615.3999999910593","___________________________533.5_1242.3999999910593_2963.3999999910593_4327.0999999940395_5679.899999991059_6171.399999991059_6408.199999988079_7802.5999999940395_8633.79999999702_9853_11255.79999999702_12315.39999999106_13678.699999988079","1","","","","","",""
"html-button-response","277","1487339","0.0-8.0-2.0-0.3","2","0","s6jqvxfltgxtf9c","","1420","","<p>Trial 4 of 36</p>","0","","","","","","","","","","","","","","RU","sounds/syllables/ru_SWS.wav","5100,6900,10500,12300","3","","","","","","","","","","","","","","","",""
"html-keyboard-response","278","1489114","0.0-8.0-2.0-1.3","2","0","s6jqvxfltgxtf9c","","1773.7000000029802","","","","80","","","","","","","","","","","","","RU","","5100,6900,10500,12300","3","","","","","","","","","","","","","","","",""
"audio-keyboard-response","279","1489407","0.0-8.0-2.0-2.5-0.5","2","0","s6jqvxfltgxtf9c","","null","","sounds/syllables/ru_SWS.wav","","null","","","","","","","","","","","","","","","","","","","","","","","","","","","","","","","",""
"html-keyboard-response","280","1490055","0.0-8.0-2.0-2.5-1.5","2","0","s6jqvxfltgxtf9c","","647.0999999940395","","<p>To replay the <u>TARGET SOUND</u>, press P.</p> When you are ready to begin, press SPACEBAR.","","32","","","","","","","","","","","","","","","","","","","","","","","","","","","","","","","",""
"audio-keyboard-response","281","1505018","0.0-8.0-2.0-3.3","2","0","s6jqvxfltgxtf9c","","451","","sounds/B/TD/RU_08_TD.mp3","","32","","","TD_SUMMARY","","","","","","","","","","RU","","5100,6900,10500,12300","3","5100","6900","10500","12300","1000.7999999970198","760.9000000059605","null","1111.7999999970198","________________________________________448.20000000298023_3177.5999999940395_3848.5999999940395_4979.29999999702_5185_6100.79999999702_6919.4000000059605_7660.9000000059605_9008.70000000298_10333_11874.09999999404_13411.79999999702","1","","","","","",""
"html-button-response","282","1506988","0.0-8.0-2.0-0.4","2","0","s6jqvxfltgxtf9c","","1968.2000000029802","","<p>Trial 5 of 36</p>","0","","","","","","","","","","","","","","TA","sounds/syllables/ta_SWS.wav","1500,4200,6900,9600","3","","","","","","","","","","","","","","","",""
"html-keyboard-response","283","1508173","0.0-8.0-2.0-1.4","2","0","s6jqvxfltgxtf9c","","1183.8999999910593","","","","80","","","","","","","","","","","","","TA","","1500,4200,6900,9600","3","","","","","","","","","","","","","","","",""
"audio-keyboard-response","284","1508477","0.0-8.0-2.0-2.6-0.6","2","0","s6jqvxfltgxtf9c","","null","","sounds/syllables/ta_SWS.wav","","null","","","","","","","","","","","","","","","","","","","","","","","","","","","","","","","",""
"html-keyboard-response","285","1509391","0.0-8.0-2.0-2.6-1.6","2","0","s6jqvxfltgxtf9c","","913.1999999880791","","<p>To replay the <u>TARGET SOUND</u>, press P.</p> When you are ready to begin, press SPACEBAR.","","32","","","","","","","","","","","","","","","","","","","","","","","","","","","","","","","",""
"audio-keyboard-response","286","1524337","0.0-8.0-2.0-3.4","2","0","s6jqvxfltgxtf9c","","411","","sounds/B/TD/TA_04_TD.mp3","","32","","","TD_SUMMARY","","","","","","","","","","TA","","1500,4200,6900,9600","3","1500","4200","6900","9600","704.9000000059605","1028.9000000059605","454.40000000596046","null","____________________________________________________406.1000000089407_1364.9000000059605_1608.300000011921_2204.9000000059605_3795.2000000029802_4019.300000011921_5228.9000000059605_6051.800000011921_6906.800000011921_7354.4000000059605_9263.800000011921_9608.60000000894_11634.70000000298_11915_12703_13747.40000000596","1","","","","","",""
"html-button-response","287","1526089","0.0-8.0-2.0-0.5","2","0","s6jqvxfltgxtf9c","","1749.2000000029802","","<p>Trial 6 of 36</p>","0","","","","","","","","","","","","","","PU","sounds/syllables/pu_SWS.wav","900,2700,4500,9900","1","","","","","","","","","","","","","","","",""
"html-keyboard-response","288","1528510","0.0-8.0-2.0-1.5","2","0","s6jqvxfltgxtf9c","","2420.7000000029802","","","","80","","","","","","","","","","","","","PU","","900,2700,4500,9900","1","","","","","","","","","","","","","","","",""
"audio-keyboard-response","289","1528808","0.0-8.0-2.0-2.7-0.7","2","0","s6jqvxfltgxtf9c","","null","","sounds/syllables/pu_SWS.wav","","null","","","","","","","","","","","","","","","","","","","","","","","","","","","","","","","",""
"html-keyboard-response","290","1530002","0.0-8.0-2.0-2.7-1.7","2","0","s6jqvxfltgxtf9c","","1193.300000011921","","<p>To replay the <u>TARGET SOUND</u>, press P.</p> When you are ready to begin, press SPACEBAR.","","32","","","","","","","","","","","","","","","","","","","","","","","","","","","","","","","",""
"audio-keyboard-response","291","1544948","0.0-8.0-2.0-3.5","2","0","s6jqvxfltgxtf9c","","699","","sounds/B/TD/PU_07_TD.mp3","","32","","","TD_SUMMARY","","","","","","","","","","PU","","900,2700,4500,9900","1","900","2700","4500","9900","858","1081.7999999970198","415.79999999701977","844","____________________________________________________________________697.2000000029802_1019.5_1758_2475.5999999940395_2836_3781.7999999970198_4190.0999999940395_4915.79999999702_5867.20000000298_6156.0999999940395_7463.5999999940395_8330.09999999404_9634.29999999702_10744_11425.09999999404_12916.29999999702","1","","","","","",""
"html-button-response","292","1546424","0.0-8.0-2.0-0.6","2","0","s6jqvxfltgxtf9c","","1474.7999999970198","","<p>Trial 7 of 36</p>","0","","","","","","","","","","","","","","ME","sounds/syllables/me_SWS.wav","1200,5700,7500,9300","2","","","","","","","","","","","","","","","",""
"html-keyboard-response","293","1547864","0.0-8.0-2.0-1.6","2","0","s6jqvxfltgxtf9c","","1439","","","","80","","","","","","","","","","","","","ME","","1200,5700,7500,9300","2","","","","","","","","","","","","","","","",""
"audio-keyboard-response","294","1548169","0.0-8.0-2.0-2.8-0.8","2","0","s6jqvxfltgxtf9c","","null","","sounds/syllables/me_SWS.wav","","null","","","","","","","","","","","","","","","","","","","","","","","","","","","","","","","",""
"html-keyboard-response","295","1548506","0.0-8.0-2.0-2.8-1.8","2","0","s6jqvxfltgxtf9c","","336.80000001192093","","<p>To replay the <u>TARGET SOUND</u>, press P.</p> When you are ready to begin, press SPACEBAR.","","32","","","","","","","","","","","","","","","","","","","","","","","","","","","","","","","",""
"audio-keyboard-response","296","1563468","0.0-8.0-2.0-3.6","2","0","s6jqvxfltgxtf9c","","339","","sounds/B/TD/ME_07_TD.mp3","","32","","","TD_SUMMARY","","","","","","","","","","ME","","1200,5700,7500,9300","2","1200","5700","7500","9300","749.4000000059605","777.4000000059605","459","545.4000000059605","____________________________________________________________________________________336.40000000596046_1030.5_1949.4000000059605_3531.7000000029802_4201.79999999702_5907.20000000298_6239_6477.4000000059605_7791.70000000298_7959_9391.59999999404_9617.79999999702_9845.40000000596_11323.5_11743.29999999702_13137.90000000596","1","","","","","",""
"html-button-response","297","1565195","0.0-8.0-2.0-0.7","2","0","s6jqvxfltgxtf9c","","1725.5","","<p>Trial 8 of 36</p>","0","","","","","","","","","","","","","","FE","sounds/syllables/fe_SWS.wav","3300,6900,9600,12300","3","","","","","","","","","","","","","","","",""
"html-keyboard-response","298","1566364","0.0-8.0-2.0-1.7","2","0","s6jqvxfltgxtf9c","","1167.7999999970198","","","","80","","","","","","","","","","","","","FE","","3300,6900,9600,12300","3","","","","","","","","","","","","","","","",""
"audio-keyboard-response","299","1566658","0.0-8.0-2.0-2.9-0.9","2","0","s6jqvxfltgxtf9c","","null","","sounds/syllables/fe_SWS.wav","","null","","","","","","","","","","","","","","","","","","","","","","","","","","","","","","","",""
"html-keyboard-response","300","1568572","0.0-8.0-2.0-2.9-1.9","2","0","s6jqvxfltgxtf9c","","1913","","<p>To replay the <u>TARGET SOUND</u>, press P.</p> When you are ready to begin, press SPACEBAR.","","32","","","","","","","","","","","","","","","","","","","","","","","","","","","","","","","",""
"audio-keyboard-response","301","1583528","0.0-8.0-2.0-3.7","2","0","s6jqvxfltgxtf9c","","301","","sounds/B/TD/FE_07_TD.mp3","","32","","","TD_SUMMARY","","","","","","","","","","FE","","3300,6900,9600,12300","3","3300","6900","9600","12300","520.0999999940395","1147","null","666.0999999940395","____________________________________________________________________________________________________303.29999999701977_2165.5999999940395_2433.2999999970198_2624.5_3320.5999999940395_3560.5_3820.0999999940395_5025.899999991059_5231_6788.399999991059_8047_8929_9729.89999999106_11181_11529.699999988079_11738.199999988079_12966.09999999404_14352.09999999404","1","","","","","",""
"html-button-response","302","1584570","0.0-8.0-2.0-0.8","2","0","s6jqvxfltgxtf9c","","1040.0999999940395","","<p>Trial 9 of 36</p>","0","","","","","","","","","","","","","","FU","sounds/syllables/fu_SWS.wav","1800,4500,7200,9000","1","","","","","","","","","","","","","","","",""
"html-keyboard-response","303","1586481","0.0-8.0-2.0-1.8","2","0","s6jqvxfltgxtf9c","","1910.7000000029802","","","","80","","","","","","","","","","","","","FU","","1800,4500,7200,9000","1","","","","","","","","","","","","","","","",""
"audio-keyboard-response","304","1586778","0.0-8.0-2.0-2.10-0.10","2","0","s6jqvxfltgxtf9c","","null","","sounds/syllables/fu_SWS.wav","","null","","","","","","","","","","","","","","","","","","","","","","","","","","","","","","","",""
"html-keyboard-response","305","1587085","0.0-8.0-2.0-2.10-1.10","2","0","s6jqvxfltgxtf9c","","306.70000000298023","","<p>To replay the <u>TARGET SOUND</u>, press P.</p> When you are ready to begin, press SPACEBAR.","","32","","","","","","","","","","","","","","","","","","","","","","","","","","","","","","","",""
"audio-keyboard-response","306","1602028","0.0-8.0-2.0-3.8","2","0","s6jqvxfltgxtf9c","","808","","sounds/B/TD/FU_08_TD.mp3","","32","","","TD_SUMMARY","","","","","","","","","","FU","","1800,4500,7200,9000","1","1800","4500","7200","9000","237.40000000596046","981.2000000029802","1072","419.6000000089407","______________________________________________________________________________________________________________________805.3000000119209_1756.7000000029802_2037.4000000059605_3002_4274.300000011921_5481.20000000298_5964_6204.300000011921_6619.5_8272_9419.60000000894","1","","","","","",""
"html-button-response","307","1606837","0.0-8.0-2.0-0.9","2","0","s6jqvxfltgxtf9c","","4808.29999999702","","<p>Trial 10 of 36</p>","0","","","","","","","","","","","","","","TA","sounds/syllables/ta_SWS.wav","1500,5100,9600,13200","3","","","","","","","","","","","","","","","",""
"html-keyboard-response","308","1607895","0.0-8.0-2.0-1.9","2","0","s6jqvxfltgxtf9c","","1056.5","","","","80","","","","","","","","","","","","","TA","","1500,5100,9600,13200","3","","","","","","","","","","","","","","","",""
"audio-keyboard-response","309","1608197","0.0-8.0-2.0-2.11-0.11","2","0","s6jqvxfltgxtf9c","","null","","sounds/syllables/ta_SWS.wav","","null","","","","","","","","","","","","","","","","","","","","","","","","","","","","","","","",""
"html-keyboard-response","310","1608916","0.0-8.0-2.0-2.11-1.11","2","0","s6jqvxfltgxtf9c","","717.5","","<p>To replay the <u>TARGET SOUND</u>, press P.</p> When you are ready to begin, press SPACEBAR.","","32","","","","","","","","","","","","","","","","","","","","","","","","","","","","","","","",""
"audio-keyboard-response","311","1623867","0.0-8.0-2.0-3.9","2","0","s6jqvxfltgxtf9c","","619","","sounds/B/TD/TA_07_TD.mp3","","32","","","TD_SUMMARY","","","","","","","","","","TA","","1500,5100,9600,13200","3","1500","5100","9600","13200","567.4000000059605","973.7999999970198","389.40000000596046","null","_________________________________________________________________________________________________________________________________616.6000000089407_884.9000000059605_2067.4000000059605_3161_6073.79999999702_8426.60000000894_8926_9989.40000000596_11131_12575.5","1","","","","","",""
"html-button-response","312","1625348","0.0-8.0-2.0-0.10","2","0","s6jqvxfltgxtf9c","","1479.2999999970198","","<p>Trial 11 of 36</p>","0","","","","","","","","","","","","","","KO","sounds/syllables/ko_SWS.wav","1200,5700,10200,12900","2","","","","","","","","","","","","","","","",""
"html-keyboard-response","313","1626497","0.0-8.0-2.0-1.10","2","0","s6jqvxfltgxtf9c","","1147.5","","","","80","","","","","","","","","","","","","KO","","1200,5700,10200,12900","2","","","","","","","","","","","","","","","",""
"audio-keyboard-response","314","1626798","0.0-8.0-2.0-2.12-0.12","2","0","s6jqvxfltgxtf9c","","null","","sounds/syllables/ko_SWS.wav","","null","","","","","","","","","","","","","","","","","","","","","","","","","","","","","","","",""
"html-keyboard-response","315","1627506","0.0-8.0-2.0-2.12-1.12","2","0","s6jqvxfltgxtf9c","","708.0999999940395","","<p>To replay the <u>TARGET SOUND</u>, press P.</p> When you are ready to begin, press SPACEBAR.","","32","","","","","","","","","","","","","","","","","","","","","","","","","","","","","","","",""
"audio-keyboard-response","316","1642457","0.0-8.0-2.0-3.10","2","0","s6jqvxfltgxtf9c","","389","","sounds/B/TD/KO_02_TD.mp3","","32","","","TD_SUMMARY","","","","","","","","","","KO","","1200,5700,10200,12900","2","1200","5700","10200","12900","875.1000000089407","305.1000000089407","null","null","___________________________________________________________________________________________________________________________________________388.90000000596046_894.8000000119209_2075.1000000089407_3655.2000000029802_4073.5_4756.4000000059605_5777.800000011921_6005.100000008941_7071.5_7237_8632.800000011921_8850.800000011921_9758.40000000596_10067.5_11463.5","1","","","","","",""
"html-button-response","317","1643984","0.0-8.0-2.0-0.11","2","0","s6jqvxfltgxtf9c","","1525","","<p>Trial 12 of 36</p>","0","","","","","","","","","","","","","","ME","sounds/syllables/me_SWS.wav","2100,3900,8400,12000","2","","","","","","","","","","","","","","","",""
"html-keyboard-response","318","1645024","0.0-8.0-2.0-1.11","2","0","s6jqvxfltgxtf9c","","1039","","","","80","","","","","","","","","","","","","ME","","2100,3900,8400,12000","2","","","","","","","","","","","","","","","",""
"audio-keyboard-response","319","1645328","0.0-8.0-2.0-2.13-0.13","2","0","s6jqvxfltgxtf9c","","null","","sounds/syllables/me_SWS.wav","","null","","","","","","","","","","","","","","","","","","","","","","","","","","","","","","","",""
"html-keyboard-response","320","1646055","0.0-8.0-2.0-2.13-1.13","2","0","s6jqvxfltgxtf9c","","727.2999999970198","","<p>To replay the <u>TARGET SOUND</u>, press P.</p> When you are ready to begin, press SPACEBAR.","","32","","","","","","","","","","","","","","","","","","","","","","","","","","","","","","","",""
"audio-keyboard-response","321","1661017","0.0-8.0-2.0-3.11","2","0","s6jqvxfltgxtf9c","","320","","sounds/B/TD/ME_06_TD.mp3","","32","","","TD_SUMMARY","","","","","","","","","","ME","","2100,3900,8400,12000","2","2100","3900","8400","12000","null","null","383.79999999701977","930.2999999970198","__________________________________________________________________________________________________________________________________________________________319.19999998807907_2202.699999988079_3810.199999988079_6138.29999999702_8430.39999999106_8783.79999999702_9672.09999999404_11000.39999999106_12930.29999999702","1","","","","","",""
"html-button-response","322","1662413","0.0-8.0-2.0-0.12","2","0","s6jqvxfltgxtf9c","","1394.4000000059605","","<p>Trial 13 of 36</p>","0","","","","","","","","","","","","","","RE","sounds/syllables/re_SWS.wav","3300,6000,9600,11400","3","","","","","","","","","","","","","","","",""
"html-keyboard-response","323","1663623","0.0-8.0-2.0-1.12","2","0","s6jqvxfltgxtf9c","","1208.5","","","","80","","","","","","","","","","","","","RE","","3300,6000,9600,11400","3","","","","","","","","","","","","","","","",""
"audio-keyboard-response","324","1663928","0.0-8.0-2.0-2.14-0.14","2","0","s6jqvxfltgxtf9c","","null","","sounds/syllables/re_SWS.wav","","null","","","","","","","","","","","","","","","","","","","","","","","","","","","","","","","",""
"html-keyboard-response","325","1665083","0.0-8.0-2.0-2.14-1.14","2","0","s6jqvxfltgxtf9c","","1154.3999999910593","","<p>To replay the <u>TARGET SOUND</u>, press P.</p> When you are ready to begin, press SPACEBAR.","","32","","","","","","","","","","","","","","","","","","","","","","","","","","","","","","","",""
"audio-keyboard-response","326","1680037","0.0-8.0-2.0-3.12","2","0","s6jqvxfltgxtf9c","","581","","sounds/B/TD/RE_02_TD.mp3","","32","","","TD_SUMMARY","","","","","","","","","","RE","","3300,6000,9600,11400","3","3300","6000","9600","11400","789.7999999970198","960.5","1138.5999999940395","619.3999999910593","___________________________________________________________________________________________________________________________________________________________________573.3999999910593_921.6999999880791_2107.5_2612.699999988079_4089.7999999970198_5724.79999999702_5921.699999988079_6960.5_8335.79999999702_9510.89999999106_10738.59999999404_11557.199999988079_12019.39999999106","1","","","","","",""
"html-button-response","327","1681534","0.0-8.0-2.0-0.13","2","0","s6jqvxfltgxtf9c","","1495.0999999940395","","<p>Trial 14 of 36</p>","0","","","","","","","","","","","","","","PU","sounds/syllables/pu_SWS.wav","2700,5400,9000,11700","1","","","","","","","","","","","","","","","",""
"html-keyboard-response","328","1682676","0.0-8.0-2.0-1.13","2","0","s6jqvxfltgxtf9c","","1141.2000000029802","","","","80","","","","","","","","","","","","","PU","","2700,5400,9000,11700","1","","","","","","","","","","","","","","","",""
"audio-keyboard-response","329","1682968","0.0-8.0-2.0-2.15-0.15","2","0","s6jqvxfltgxtf9c","","null","","sounds/syllables/pu_SWS.wav","","null","","","","","","","","","","","","","","","","","","","","","","","","","","","","","","","",""
