"trial_type","trial_index","time_elapsed","internal_node_id","counterbalance","lang_instruct","ParticipantID","view_history","rt","url","stimulus","button_pressed","key_press","correctRESP","correct","designation","location","correctanswer","timeouts","pause_rt01","pause_rt02","train_file","numKeyPress","sound","fam_type","SYLLABLE","EXEMPLAR","TD_LOCS","TD_TYPE","TDLOC_01","TDLOC_02","TDLOC_03","TDLOC_04","TD_RT_01","TD_RT_02","TD_RT_03","TD_RT_04","TD_SUBJ_RTs","number_of_plays","responses","slider_start","response","question_order","syllable","syllable_type"
"pavlovia","0","4","0.0-0.0","2","0","0pd42c8c956frqp","","","","","","","","","","","","","","","","","","","","","","","","","","","","","","","","","","","","","",""
"instructions","1","111499","0.0-1.0","2","0","0pd42c8c956frqp","[{""page_index"":0,""viewing_time"":32525.39999999851},{""page_index"":1,""viewing_time"":78964.70000000298}]","111493.5","","","","","","","","","","","","","","","","","","","","","","","","","","","","","","","","","","","",""
"external-html","2","114973","0.0-2.0","2","0","0pd42c8c956frqp","","3130","consent/consent.html","","","","","","","","","","","","","","","","","","","","","","","","","","","","","","","","","","",""
"html-button-response","3","174286","0.0-3.0-0.0-0.0","2","0","0pd42c8c956frqp","","59309.300000000745","","<p>Welcome to the study. You will first complete a short volume calibration and headphone check.</p><p>Please make sure you are in a quiet listening environment, that you are wearing headphones, and that your computer's volume is turned on.<p></p>","0","","","","","","","","","","","","","","","","","","","","","","","","","","","","","","","","",""
"html-button-response","4","176332","0.0-3.0-0.0-1.0","2","0","0pd42c8c956frqp","","1790.1000000014901","","<p>The volume calibration will be first.</p><p>You will hear a thirty-second noise. Please adjust your computer's volume so that this noise is being presented at a comfortable level.<p></p>","0","","","","","","","","","","","","","","","","","","","","","","","","","","","","","","","","",""
"audio-button-response","5","180865","0.0-3.0-0.0-2.0","2","0","0pd42c8c956frqp","","4208","","audCalib/volumetest.mp3","0","","","","","","","","","","","","","","","","","","","","","","","","","","","","","","","","",""
"html-button-response","6","188583","0.0-3.0-1.0-0.0","2","0","0pd42c8c956frqp","","7716.199999999255","","<p>You will now complete a short headphone check.</p><p>On each trial, you will hear three tones. One of these tones will be quieter than the others. Your task is to identify whether the quiet tone occured first, second, or third.</p><p>There are six trials in total.<p></p>","0","","","","","","","","","","","","","","","","","","","","","","","","","","","","","","","","",""
"html-keyboard-response","7","189340","0.0-3.0-1.0-1.0-0.0","2","0","0pd42c8c956frqp","","null","","<div style=""font-size:60px;"">+</div>","","null","","","","","","","","","","","","","","","","","","","","","","","","","","","","","","","",""
"audio-button-response","8","193904","0.0-3.0-1.0-1.0-1.0","2","0","0pd42c8c956frqp","","4560","","audCalib/t1_2.mp3","0","","0","1","headphone-test","","","","","","","","","","","","","","","","","","","","","","","","","","","","",""
"html-keyboard-response","9","194657","0.0-3.0-1.0-1.0-0.1","2","0","0pd42c8c956frqp","","null","","<div style=""font-size:60px;"">+</div>","","null","","","","","","","","","","","","","","","","","","","","","","","","","","","","","","","",""
"audio-button-response","10","198879","0.0-3.0-1.0-1.0-1.1","2","0","0pd42c8c956frqp","","4219","","audCalib/t3_1.mp3","2","","2","1","headphone-test","","","","","","","","","","","","","","","","","","","","","","","","","","","","",""
"html-keyboard-response","11","199634","0.0-3.0-1.0-1.0-0.2","2","0","0pd42c8c956frqp","","null","","<div style=""font-size:60px;"">+</div>","","null","","","","","","","","","","","","","","","","","","","","","","","","","","","","","","","",""
"audio-button-response","12","203297","0.0-3.0-1.0-1.0-1.2","2","0","0pd42c8c956frqp","","3659","","audCalib/t2_1.mp3","1","","1","1","headphone-test","","","","","","","","","","","","","","","","","","","","","","","","","","","","",""
"html-keyboard-response","13","204050","0.0-3.0-1.0-1.0-0.3","2","0","0pd42c8c956frqp","","null","","<div style=""font-size:60px;"">+</div>","","null","","","","","","","","","","","","","","","","","","","","","","","","","","","","","","","",""
"audio-button-response","14","207814","0.0-3.0-1.0-1.0-1.3","2","0","0pd42c8c956frqp","","3760","","audCalib/t2_2.mp3","1","","1","1","headphone-test","","","","","","","","","","","","","","","","","","","","","","","","","","","","",""
"html-keyboard-response","15","208567","0.0-3.0-1.0-1.0-0.4","2","0","0pd42c8c956frqp","","null","","<div style=""font-size:60px;"">+</div>","","null","","","","","","","","","","","","","","","","","","","","","","","","","","","","","","","",""
"audio-button-response","16","212582","0.0-3.0-1.0-1.0-1.4","2","0","0pd42c8c956frqp","","4011","","audCalib/t1_1.mp3","0","","0","1","headphone-test","","","","","","","","","","","","","","","","","","","","","","","","","","","","",""
"html-keyboard-response","17","213335","0.0-3.0-1.0-1.0-0.5","2","0","0pd42c8c956frqp","","null","","<div style=""font-size:60px;"">+</div>","","null","","","","","","","","","","","","","","","","","","","","","","","","","","","","","","","",""
"audio-button-response","18","217334","0.0-3.0-1.0-1.0-1.5","2","0","0pd42c8c956frqp","","3995","","audCalib/t3_2.mp3","2","","2","1","headphone-test","","","","","","","","","","","","","","","","","","","","","","","","","","","","",""
"html-button-response","19","219309","0.0-3.0-2.0","2","0","0pd42c8c956frqp","","1718.6000000014901","","<p>The volume calibration and headphone check are now complete.</p>","0","","","","","","","","","","","","","","","","","","","","","","","","","","","","","","","","",""
"instructions","20","240501","0.0-4.0-0.0","2","0","0pd42c8c956frqp","[{""page_index"":0,""viewing_time"":1200},{""page_index"":1,""viewing_time"":17395.70000000298},{""page_index"":2,""viewing_time"":2595.599999997765}]","21191.70000000298","","","","","","","","","","","","","","","","","","","","","","","","","","","","","","","","","","","",""
"audio-keyboard-response","21","240807","0.0-4.0-1.0-0.0","2","0","0pd42c8c956frqp","","null","","sounds/induction/right_rev/me_SWS.wav","","null","","","","","","","","","","","","","","","","","","","","","","","","","","","","","","","",""
"html-button-response","22","241865","0.0-4.0-1.0-1.0","2","0","0pd42c8c956frqp","","1056.800000000745","","Was the sound coming from the left or the right?","1","","","1","INDUCTION-JUDGMENT","right","1","","","","","","","","","","","","","","","","","","","","","","","","","","",""
"html-keyboard-response","23","242869","0.0-4.0-1.0-2.0","2","0","0pd42c8c956frqp","","null","","<p style=""color:#054d00;""><b>Correct!</b></p>","","null","","","","","","","","","","","","","","","","","","","","","","","","","","","","","","","",""
"audio-keyboard-response","24","243676","0.0-4.0-1.0-0.1","2","0","0pd42c8c956frqp","","null","","sounds/induction/left_rev/ni_SWS.wav","","null","","","","","","","","","","","","","","","","","","","","","","","","","","","","","","","",""
"html-button-response","25","244282","0.0-4.0-1.0-1.1","2","0","0pd42c8c956frqp","","604.5999999977648","","Was the sound coming from the left or the right?","0","","","1","INDUCTION-JUDGMENT","left","0","","","","","","","","","","","","","","","","","","","","","","","","","","",""
"html-keyboard-response","26","245287","0.0-4.0-1.0-2.1","2","0","0pd42c8c956frqp","","null","","<p style=""color:#054d00;""><b>Correct!</b></p>","","null","","","","","","","","","","","","","","","","","","","","","","","","","","","","","","","",""
"audio-keyboard-response","27","246087","0.0-4.0-1.0-0.2","2","0","0pd42c8c956frqp","","null","","sounds/induction/left_rev/su_SWS.wav","","null","","","","","","","","","","","","","","","","","","","","","","","","","","","","","","","",""
"html-button-response","28","246617","0.0-4.0-1.0-1.2","2","0","0pd42c8c956frqp","","529.9000000022352","","Was the sound coming from the left or the right?","0","","","1","INDUCTION-JUDGMENT","left","0","","","","","","","","","","","","","","","","","","","","","","","","","","",""
"html-keyboard-response","29","247619","0.0-4.0-1.0-2.2","2","0","0pd42c8c956frqp","","null","","<p style=""color:#054d00;""><b>Correct!</b></p>","","null","","","","","","","","","","","","","","","","","","","","","","","","","","","","","","","",""
"audio-keyboard-response","30","248423","0.0-4.0-1.0-0.3","2","0","0pd42c8c956frqp","","null","","sounds/induction/left_rev/ta_SWS.wav","","null","","","","","","","","","","","","","","","","","","","","","","","","","","","","","","","",""
"html-button-response","31","249017","0.0-4.0-1.0-1.3","2","0","0pd42c8c956frqp","","593.9000000022352","","Was the sound coming from the left or the right?","0","","","1","INDUCTION-JUDGMENT","left","0","","","","","","","","","","","","","","","","","","","","","","","","","","",""
"html-keyboard-response","32","250021","0.0-4.0-1.0-2.3","2","0","0pd42c8c956frqp","","null","","<p style=""color:#054d00;""><b>Correct!</b></p>","","null","","","","","","","","","","","","","","","","","","","","","","","","","","","","","","","",""
"audio-keyboard-response","33","250828","0.0-4.0-1.0-0.4","2","0","0pd42c8c956frqp","","null","","sounds/induction/right_rev/ru_SWS.wav","","null","","","","","","","","","","","","","","","","","","","","","","","","","","","","","","","",""
"html-button-response","34","251281","0.0-4.0-1.0-1.4","2","0","0pd42c8c956frqp","","451.1000000014901","","Was the sound coming from the left or the right?","1","","","1","INDUCTION-JUDGMENT","right","1","","","","","","","","","","","","","","","","","","","","","","","","","","",""
"html-keyboard-response","35","252284","0.0-4.0-1.0-2.4","2","0","0pd42c8c956frqp","","null","","<p style=""color:#054d00;""><b>Correct!</b></p>","","null","","","","","","","","","","","","","","","","","","","","","","","","","","","","","","","",""
"audio-keyboard-response","36","253089","0.0-4.0-1.0-0.5","2","0","0pd42c8c956frqp","","null","","sounds/induction/right_rev/fu_SWS.wav","","null","","","","","","","","","","","","","","","","","","","","","","","","","","","","","","","",""
"html-button-response","37","253631","0.0-4.0-1.0-1.5","2","0","0pd42c8c956frqp","","540.5","","Was the sound coming from the left or the right?","1","","","1","INDUCTION-JUDGMENT","right","1","","","","","","","","","","","","","","","","","","","","","","","","","","",""
"html-keyboard-response","38","254633","0.0-4.0-1.0-2.5","2","0","0pd42c8c956frqp","","null","","<p style=""color:#054d00;""><b>Correct!</b></p>","","null","","","","","","","","","","","","","","","","","","","","","","","","","","","","","","","",""
"audio-keyboard-response","39","255441","0.0-4.0-1.0-0.6","2","0","0pd42c8c956frqp","","null","","sounds/induction/left_rev/ko_SWS.wav","","null","","","","","","","","","","","","","","","","","","","","","","","","","","","","","","","",""
"html-button-response","40","256032","0.0-4.0-1.0-1.6","2","0","0pd42c8c956frqp","","590.1000000014901","","Was the sound coming from the left or the right?","0","","","1","INDUCTION-JUDGMENT","left","0","","","","","","","","","","","","","","","","","","","","","","","","","","",""
"html-keyboard-response","41","257036","0.0-4.0-1.0-2.6","2","0","0pd42c8c956frqp","","null","","<p style=""color:#054d00;""><b>Correct!</b></p>","","null","","","","","","","","","","","","","","","","","","","","","","","","","","","","","","","",""
"audio-keyboard-response","42","257836","0.0-4.0-1.0-0.7","2","0","0pd42c8c956frqp","","null","","sounds/induction/right_rev/me_SWS.wav","","null","","","","","","","","","","","","","","","","","","","","","","","","","","","","","","","",""
"html-button-response","43","258295","0.0-4.0-1.0-1.7","2","0","0pd42c8c956frqp","","458.20000000298023","","Was the sound coming from the left or the right?","1","","","1","INDUCTION-JUDGMENT","right","1","","","","","","","","","","","","","","","","","","","","","","","","","","",""
"html-keyboard-response","44","259296","0.0-4.0-1.0-2.7","2","0","0pd42c8c956frqp","","null","","<p style=""color:#054d00;""><b>Correct!</b></p>","","null","","","","","","","","","","","","","","","","","","","","","","","","","","","","","","","",""
"audio-keyboard-response","45","260102","0.0-4.0-1.0-0.8","2","0","0pd42c8c956frqp","","null","","sounds/induction/right_rev/fe_SWS.wav","","null","","","","","","","","","","","","","","","","","","","","","","","","","","","","","","","",""
"html-button-response","46","260687","0.0-4.0-1.0-1.8","2","0","0pd42c8c956frqp","","584.1000000014901","","Was the sound coming from the left or the right?","1","","","1","INDUCTION-JUDGMENT","right","1","","","","","","","","","","","","","","","","","","","","","","","","","","",""
"html-keyboard-response","47","261688","0.0-4.0-1.0-2.8","2","0","0pd42c8c956frqp","","null","","<p style=""color:#054d00;""><b>Correct!</b></p>","","null","","","","","","","","","","","","","","","","","","","","","","","","","","","","","","","",""
"audio-keyboard-response","48","262497","0.0-4.0-1.0-0.9","2","0","0pd42c8c956frqp","","null","","sounds/induction/right_rev/ge_SWS.wav","","null","","","","","","","","","","","","","","","","","","","","","","","","","","","","","","","",""
"html-button-response","49","263064","0.0-4.0-1.0-1.9","2","0","0pd42c8c956frqp","","565.6999999992549","","Was the sound coming from the left or the right?","1","","","1","INDUCTION-JUDGMENT","right","1","","","","","","","","","","","","","","","","","","","","","","","","","","",""
"html-keyboard-response","50","264065","0.0-4.0-1.0-2.9","2","0","0pd42c8c956frqp","","null","","<p style=""color:#054d00;""><b>Correct!</b></p>","","null","","","","","","","","","","","","","","","","","","","","","","","","","","","","","","","",""
"audio-keyboard-response","51","264870","0.0-4.0-1.0-0.10","2","0","0pd42c8c956frqp","","null","","sounds/induction/right_rev/ti_SWS.wav","","null","","","","","","","","","","","","","","","","","","","","","","","","","","","","","","","",""
"html-button-response","52","265539","0.0-4.0-1.0-1.10","2","0","0pd42c8c956frqp","","667.7000000029802","","Was the sound coming from the left or the right?","1","","","1","INDUCTION-JUDGMENT","right","1","","","","","","","","","","","","","","","","","","","","","","","","","","",""
"html-keyboard-response","53","266540","0.0-4.0-1.0-2.10","2","0","0pd42c8c956frqp","","null","","<p style=""color:#054d00;""><b>Correct!</b></p>","","null","","","","","","","","","","","","","","","","","","","","","","","","","","","","","","","",""
"audio-keyboard-response","54","267345","0.0-4.0-1.0-0.11","2","0","0pd42c8c956frqp","","null","","sounds/induction/right_rev/fu_SWS.wav","","null","","","","","","","","","","","","","","","","","","","","","","","","","","","","","","","",""
"html-button-response","55","268014","0.0-4.0-1.0-1.11","2","0","0pd42c8c956frqp","","668.5","","Was the sound coming from the left or the right?","1","","","1","INDUCTION-JUDGMENT","right","1","","","","","","","","","","","","","","","","","","","","","","","","","","",""
"html-keyboard-response","56","269020","0.0-4.0-1.0-2.11","2","0","0pd42c8c956frqp","","null","","<p style=""color:#054d00;""><b>Correct!</b></p>","","null","","","","","","","","","","","","","","","","","","","","","","","","","","","","","","","",""
"audio-keyboard-response","57","269825","0.0-4.0-1.0-0.12","2","0","0pd42c8c956frqp","","null","","sounds/induction/right_rev/su_SWS.wav","","null","","","","","","","","","","","","","","","","","","","","","","","","","","","","","","","",""
"html-button-response","58","270392","0.0-4.0-1.0-1.12","2","0","0pd42c8c956frqp","","566.1999999992549","","Was the sound coming from the left or the right?","1","","","1","INDUCTION-JUDGMENT","right","1","","","","","","","","","","","","","","","","","","","","","","","","","","",""
"html-keyboard-response","59","271398","0.0-4.0-1.0-2.12","2","0","0pd42c8c956frqp","","null","","<p style=""color:#054d00;""><b>Correct!</b></p>","","null","","","","","","","","","","","","","","","","","","","","","","","","","","","","","","","",""
"audio-keyboard-response","60","272203","0.0-4.0-1.0-0.13","2","0","0pd42c8c956frqp","","null","","sounds/induction/right_rev/ni_SWS.wav","","null","","","","","","","","","","","","","","","","","","","","","","","","","","","","","","","",""
"html-button-response","61","272785","0.0-4.0-1.0-1.13","2","0","0pd42c8c956frqp","","580","","Was the sound coming from the left or the right?","1","","","1","INDUCTION-JUDGMENT","right","1","","","","","","","","","","","","","","","","","","","","","","","","","","",""
"html-keyboard-response","62","273787","0.0-4.0-1.0-2.13","2","0","0pd42c8c956frqp","","null","","<p style=""color:#054d00;""><b>Correct!</b></p>","","null","","","","","","","","","","","","","","","","","","","","","","","","","","","","","","","",""
"audio-keyboard-response","63","274593","0.0-4.0-1.0-0.14","2","0","0pd42c8c956frqp","","null","","sounds/induction/right_rev/ge_SWS.wav","","null","","","","","","","","","","","","","","","","","","","","","","","","","","","","","","","",""
"html-button-response","64","275022","0.0-4.0-1.0-1.14","2","0","0pd42c8c956frqp","","428.1000000014901","","Was the sound coming from the left or the right?","1","","","1","INDUCTION-JUDGMENT","right","1","","","","","","","","","","","","","","","","","","","","","","","","","","",""
"html-keyboard-response","65","276026","0.0-4.0-1.0-2.14","2","0","0pd42c8c956frqp","","null","","<p style=""color:#054d00;""><b>Correct!</b></p>","","null","","","","","","","","","","","","","","","","","","","","","","","","","","","","","","","",""
"audio-keyboard-response","66","276827","0.0-4.0-1.0-0.15","2","0","0pd42c8c956frqp","","null","","sounds/induction/left_rev/ko_SWS.wav","","null","","","","","","","","","","","","","","","","","","","","","","","","","","","","","","","",""
"html-button-response","67","277857","0.0-4.0-1.0-1.15","2","0","0pd42c8c956frqp","","1029.199999999255","","Was the sound coming from the left or the right?","0","","","1","INDUCTION-JUDGMENT","left","0","","","","","","","","","","","","","","","","","","","","","","","","","","",""
"html-keyboard-response","68","278859","0.0-4.0-1.0-2.15","2","0","0pd42c8c956frqp","","null","","<p style=""color:#054d00;""><b>Correct!</b></p>","","null","","","","","","","","","","","","","","","","","","","","","","","","","","","","","","","",""
"audio-keyboard-response","69","279664","0.0-4.0-1.0-0.16","2","0","0pd42c8c956frqp","","null","","sounds/induction/left_rev/pu_SWS.wav","","null","","","","","","","","","","","","","","","","","","","","","","","","","","","","","","","",""
"html-button-response","70","280243","0.0-4.0-1.0-1.16","2","0","0pd42c8c956frqp","","575.6999999992549","","Was the sound coming from the left or the right?","0","","","1","INDUCTION-JUDGMENT","left","0","","","","","","","","","","","","","","","","","","","","","","","","","","",""
"html-keyboard-response","71","281248","0.0-4.0-1.0-2.16","2","0","0pd42c8c956frqp","","null","","<p style=""color:#054d00;""><b>Correct!</b></p>","","null","","","","","","","","","","","","","","","","","","","","","","","","","","","","","","","",""
"audio-keyboard-response","72","282054","0.0-4.0-1.0-0.17","2","0","0pd42c8c956frqp","","null","","sounds/induction/left_rev/ge_SWS.wav","","null","","","","","","","","","","","","","","","","","","","","","","","","","","","","","","","",""
"html-button-response","73","282497","0.0-4.0-1.0-1.17","2","0","0pd42c8c956frqp","","442.30000000074506","","Was the sound coming from the left or the right?","0","","","1","INDUCTION-JUDGMENT","left","0","","","","","","","","","","","","","","","","","","","","","","","","","","",""
"html-keyboard-response","74","283499","0.0-4.0-1.0-2.17","2","0","0pd42c8c956frqp","","null","","<p style=""color:#054d00;""><b>Correct!</b></p>","","null","","","","","","","","","","","","","","","","","","","","","","","","","","","","","","","",""
"audio-keyboard-response","75","284304","0.0-4.0-1.0-0.18","2","0","0pd42c8c956frqp","","null","","sounds/induction/left_rev/ni_SWS.wav","","null","","","","","","","","","","","","","","","","","","","","","","","","","","","","","","","",""
"html-button-response","76","284750","0.0-4.0-1.0-1.18","2","0","0pd42c8c956frqp","","444.8999999985099","","Was the sound coming from the left or the right?","0","","","1","INDUCTION-JUDGMENT","left","0","","","","","","","","","","","","","","","","","","","","","","","","","","",""
"html-keyboard-response","77","285755","0.0-4.0-1.0-2.18","2","0","0pd42c8c956frqp","","null","","<p style=""color:#054d00;""><b>Correct!</b></p>","","null","","","","","","","","","","","","","","","","","","","","","","","","","","","","","","","",""
"audio-keyboard-response","78","286560","0.0-4.0-1.0-0.19","2","0","0pd42c8c956frqp","","null","","sounds/induction/right_rev/ti_SWS.wav","","null","","","","","","","","","","","","","","","","","","","","","","","","","","","","","","","",""
"html-button-response","79","287078","0.0-4.0-1.0-1.19","2","0","0pd42c8c956frqp","","516.1000000014901","","Was the sound coming from the left or the right?","1","","","1","INDUCTION-JUDGMENT","right","1","","","","","","","","","","","","","","","","","","","","","","","","","","",""
"html-keyboard-response","80","288080","0.0-4.0-1.0-2.19","2","0","0pd42c8c956frqp","","null","","<p style=""color:#054d00;""><b>Correct!</b></p>","","null","","","","","","","","","","","","","","","","","","","","","","","","","","","","","","","",""
"audio-keyboard-response","81","288886","0.0-4.0-1.0-0.20","2","0","0pd42c8c956frqp","","null","","sounds/induction/left_rev/fu_SWS.wav","","null","","","","","","","","","","","","","","","","","","","","","","","","","","","","","","","",""
"html-button-response","82","289364","0.0-4.0-1.0-1.20","2","0","0pd42c8c956frqp","","477.79999999701977","","Was the sound coming from the left or the right?","0","","","1","INDUCTION-JUDGMENT","left","0","","","","","","","","","","","","","","","","","","","","","","","","","","",""
"html-keyboard-response","83","290367","0.0-4.0-1.0-2.20","2","0","0pd42c8c956frqp","","null","","<p style=""color:#054d00;""><b>Correct!</b></p>","","null","","","","","","","","","","","","","","","","","","","","","","","","","","","","","","","",""
"audio-keyboard-response","84","291174","0.0-4.0-1.0-0.21","2","0","0pd42c8c956frqp","","null","","sounds/induction/right_rev/ru_SWS.wav","","null","","","","","","","","","","","","","","","","","","","","","","","","","","","","","","","",""
"html-button-response","85","291577","0.0-4.0-1.0-1.21","2","0","0pd42c8c956frqp","","401.69999999925494","","Was the sound coming from the left or the right?","1","","","1","INDUCTION-JUDGMENT","right","1","","","","","","","","","","","","","","","","","","","","","","","","","","",""
"html-keyboard-response","86","292581","0.0-4.0-1.0-2.21","2","0","0pd42c8c956frqp","","null","","<p style=""color:#054d00;""><b>Correct!</b></p>","","null","","","","","","","","","","","","","","","","","","","","","","","","","","","","","","","",""
"audio-keyboard-response","87","293382","0.0-4.0-1.0-0.22","2","0","0pd42c8c956frqp","","null","","sounds/induction/right_rev/re_SWS.wav","","null","","","","","","","","","","","","","","","","","","","","","","","","","","","","","","","",""
"html-button-response","88","293823","0.0-4.0-1.0-1.22","2","0","0pd42c8c956frqp","","440.30000000074506","","Was the sound coming from the left or the right?","1","","","1","INDUCTION-JUDGMENT","right","1","","","","","","","","","","","","","","","","","","","","","","","","","","",""
"html-keyboard-response","89","294827","0.0-4.0-1.0-2.22","2","0","0pd42c8c956frqp","","null","","<p style=""color:#054d00;""><b>Correct!</b></p>","","null","","","","","","","","","","","","","","","","","","","","","","","","","","","","","","","",""
"audio-keyboard-response","90","295632","0.0-4.0-1.0-0.23","2","0","0pd42c8c956frqp","","null","","sounds/induction/left_rev/fu_SWS.wav","","null","","","","","","","","","","","","","","","","","","","","","","","","","","","","","","","",""
"html-button-response","91","296150","0.0-4.0-1.0-1.23","2","0","0pd42c8c956frqp","","516.5","","Was the sound coming from the left or the right?","0","","","1","INDUCTION-JUDGMENT","left","0","","","","","","","","","","","","","","","","","","","","","","","","","","",""
"html-keyboard-response","92","297152","0.0-4.0-1.0-2.23","2","0","0pd42c8c956frqp","","null","","<p style=""color:#054d00;""><b>Correct!</b></p>","","null","","","","","","","","","","","","","","","","","","","","","","","","","","","","","","","",""
"audio-keyboard-response","93","297958","0.0-4.0-1.0-0.24","2","0","0pd42c8c956frqp","","null","","sounds/induction/left_rev/ru_SWS.wav","","null","","","","","","","","","","","","","","","","","","","","","","","","","","","","","","","",""
"html-button-response","94","298543","0.0-4.0-1.0-1.24","2","0","0pd42c8c956frqp","","584.8000000007451","","Was the sound coming from the left or the right?","0","","","1","INDUCTION-JUDGMENT","left","0","","","","","","","","","","","","","","","","","","","","","","","","","","",""
"html-keyboard-response","95","299547","0.0-4.0-1.0-2.24","2","0","0pd42c8c956frqp","","null","","<p style=""color:#054d00;""><b>Correct!</b></p>","","null","","","","","","","","","","","","","","","","","","","","","","","","","","","","","","","",""
"audio-keyboard-response","96","300352","0.0-4.0-1.0-0.25","2","0","0pd42c8c956frqp","","null","","sounds/induction/right_rev/re_SWS.wav","","null","","","","","","","","","","","","","","","","","","","","","","","","","","","","","","","",""
"html-button-response","97","300773","0.0-4.0-1.0-1.25","2","0","0pd42c8c956frqp","","419.5","","Was the sound coming from the left or the right?","1","","","1","INDUCTION-JUDGMENT","right","1","","","","","","","","","","","","","","","","","","","","","","","","","","",""
"html-keyboard-response","98","301776","0.0-4.0-1.0-2.25","2","0","0pd42c8c956frqp","","null","","<p style=""color:#054d00;""><b>Correct!</b></p>","","null","","","","","","","","","","","","","","","","","","","","","","","","","","","","","","","",""
"audio-keyboard-response","99","302581","0.0-4.0-1.0-0.26","2","0","0pd42c8c956frqp","","null","","sounds/induction/right_rev/pu_SWS.wav","","null","","","","","","","","","","","","","","","","","","","","","","","","","","","","","","","",""
"html-button-response","100","304804","0.0-4.0-1.0-1.26","2","0","0pd42c8c956frqp","","2221.39999999851","","Was the sound coming from the left or the right?","1","","","1","INDUCTION-JUDGMENT","right","1","","","","","","","","","","","","","","","","","","","","","","","","","","",""
"html-keyboard-response","101","305805","0.0-4.0-1.0-2.26","2","0","0pd42c8c956frqp","","null","","<p style=""color:#054d00;""><b>Correct!</b></p>","","null","","","","","","","","","","","","","","","","","","","","","","","","","","","","","","","",""
"audio-keyboard-response","102","306608","0.0-4.0-1.0-0.27","2","0","0pd42c8c956frqp","","null","","sounds/induction/right_rev/ta_SWS.wav","","null","","","","","","","","","","","","","","","","","","","","","","","","","","","","","","","",""
"html-button-response","103","307050","0.0-4.0-1.0-1.27","2","0","0pd42c8c956frqp","","441.1000000014901","","Was the sound coming from the left or the right?","1","","","1","INDUCTION-JUDGMENT","right","1","","","","","","","","","","","","","","","","","","","","","","","","","","",""
"html-keyboard-response","104","308053","0.0-4.0-1.0-2.27","2","0","0pd42c8c956frqp","","null","","<p style=""color:#054d00;""><b>Correct!</b></p>","","null","","","","","","","","","","","","","","","","","","","","","","","","","","","","","","","",""
"audio-keyboard-response","105","308853","0.0-4.0-1.0-0.28","2","0","0pd42c8c956frqp","","null","","sounds/induction/left_rev/re_SWS.wav","","null","","","","","","","","","","","","","","","","","","","","","","","","","","","","","","","",""
"html-button-response","106","309230","0.0-4.0-1.0-1.28","2","0","0pd42c8c956frqp","","375.29999999701977","","Was the sound coming from the left or the right?","0","","","1","INDUCTION-JUDGMENT","left","0","","","","","","","","","","","","","","","","","","","","","","","","","","",""
"html-keyboard-response","107","310235","0.0-4.0-1.0-2.28","2","0","0pd42c8c956frqp","","null","","<p style=""color:#054d00;""><b>Correct!</b></p>","","null","","","","","","","","","","","","","","","","","","","","","","","","","","","","","","","",""
"audio-keyboard-response","108","311040","0.0-4.0-1.0-0.29","2","0","0pd42c8c956frqp","","null","","sounds/induction/left_rev/su_SWS.wav","","null","","","","","","","","","","","","","","","","","","","","","","","","","","","","","","","",""
"html-button-response","109","311631","0.0-4.0-1.0-1.29","2","0","0pd42c8c956frqp","","590.1999999992549","","Was the sound coming from the left or the right?","0","","","1","INDUCTION-JUDGMENT","left","0","","","","","","","","","","","","","","","","","","","","","","","","","","",""
"html-keyboard-response","110","312635","0.0-4.0-1.0-2.29","2","0","0pd42c8c956frqp","","null","","<p style=""color:#054d00;""><b>Correct!</b></p>","","null","","","","","","","","","","","","","","","","","","","","","","","","","","","","","","","",""
"audio-keyboard-response","111","313440","0.0-4.0-1.0-0.30","2","0","0pd42c8c956frqp","","null","","sounds/induction/left_rev/fe_SWS.wav","","null","","","","","","","","","","","","","","","","","","","","","","","","","","","","","","","",""
"html-button-response","112","313951","0.0-4.0-1.0-1.30","2","0","0pd42c8c956frqp","","510","","Was the sound coming from the left or the right?","0","","","1","INDUCTION-JUDGMENT","left","0","","","","","","","","","","","","","","","","","","","","","","","","","","",""
"html-keyboard-response","113","314955","0.0-4.0-1.0-2.30","2","0","0pd42c8c956frqp","","null","","<p style=""color:#054d00;""><b>Correct!</b></p>","","null","","","","","","","","","","","","","","","","","","","","","","","","","","","","","","","",""
"audio-keyboard-response","114","315760","0.0-4.0-1.0-0.31","2","0","0pd42c8c956frqp","","null","","sounds/induction/right_rev/ko_SWS.wav","","null","","","","","","","","","","","","","","","","","","","","","","","","","","","","","","","",""
"html-button-response","115","316204","0.0-4.0-1.0-1.31","2","0","0pd42c8c956frqp","","443.5","","Was the sound coming from the left or the right?","1","","","1","INDUCTION-JUDGMENT","right","1","","","","","","","","","","","","","","","","","","","","","","","","","","",""
"html-keyboard-response","116","317205","0.0-4.0-1.0-2.31","2","0","0pd42c8c956frqp","","null","","<p style=""color:#054d00;""><b>Correct!</b></p>","","null","","","","","","","","","","","","","","","","","","","","","","","","","","","","","","","",""
"audio-keyboard-response","117","318010","0.0-4.0-1.0-0.32","2","0","0pd42c8c956frqp","","null","","sounds/induction/left_rev/me_SWS.wav","","null","","","","","","","","","","","","","","","","","","","","","","","","","","","","","","","",""
"html-button-response","118","318524","0.0-4.0-1.0-1.32","2","0","0pd42c8c956frqp","","512.6999999992549","","Was the sound coming from the left or the right?","0","","","1","INDUCTION-JUDGMENT","left","0","","","","","","","","","","","","","","","","","","","","","","","","","","",""
"html-keyboard-response","119","319525","0.0-4.0-1.0-2.32","2","0","0pd42c8c956frqp","","null","","<p style=""color:#054d00;""><b>Correct!</b></p>","","null","","","","","","","","","","","","","","","","","","","","","","","","","","","","","","","",""
"audio-keyboard-response","120","320330","0.0-4.0-1.0-0.33","2","0","0pd42c8c956frqp","","null","","sounds/induction/left_rev/fe_SWS.wav","","null","","","","","","","","","","","","","","","","","","","","","","","","","","","","","","","",""
"html-button-response","121","321031","0.0-4.0-1.0-1.33","2","0","0pd42c8c956frqp","","699.9000000022352","","Was the sound coming from the left or the right?","0","","","1","INDUCTION-JUDGMENT","left","0","","","","","","","","","","","","","","","","","","","","","","","","","","",""
"html-keyboard-response","122","322037","0.0-4.0-1.0-2.33","2","0","0pd42c8c956frqp","","null","","<p style=""color:#054d00;""><b>Correct!</b></p>","","null","","","","","","","","","","","","","","","","","","","","","","","","","","","","","","","",""
"audio-keyboard-response","123","322842","0.0-4.0-1.0-0.34","2","0","0pd42c8c956frqp","","null","","sounds/induction/left_rev/ti_SWS.wav","","null","","","","","","","","","","","","","","","","","","","","","","","","","","","","","","","",""
"html-button-response","124","323343","0.0-4.0-1.0-1.34","2","0","0pd42c8c956frqp","","500","","Was the sound coming from the left or the right?","0","","","1","INDUCTION-JUDGMENT","left","0","","","","","","","","","","","","","","","","","","","","","","","","","","",""
"html-keyboard-response","125","324346","0.0-4.0-1.0-2.34","2","0","0pd42c8c956frqp","","null","","<p style=""color:#054d00;""><b>Correct!</b></p>","","null","","","","","","","","","","","","","","","","","","","","","","","","","","","","","","","",""
"audio-keyboard-response","126","325146","0.0-4.0-1.0-0.35","2","0","0pd42c8c956frqp","","null","","sounds/induction/right_rev/pu_SWS.wav","","null","","","","","","","","","","","","","","","","","","","","","","","","","","","","","","","",""
"html-button-response","127","325606","0.0-4.0-1.0-1.35","2","0","0pd42c8c956frqp","","458.5999999977648","","Was the sound coming from the left or the right?","1","","","1","INDUCTION-JUDGMENT","right","1","","","","","","","","","","","","","","","","","","","","","","","","","","",""
"html-keyboard-response","128","326606","0.0-4.0-1.0-2.35","2","0","0pd42c8c956frqp","","null","","<p style=""color:#054d00;""><b>Correct!</b></p>","","null","","","","","","","","","","","","","","","","","","","","","","","","","","","","","","","",""
"audio-keyboard-response","129","327408","0.0-4.0-1.0-0.36","2","0","0pd42c8c956frqp","","null","","sounds/induction/left_rev/me_SWS.wav","","null","","","","","","","","","","","","","","","","","","","","","","","","","","","","","","","",""
"html-button-response","130","329530","0.0-4.0-1.0-1.36","2","0","0pd42c8c956frqp","","2121.300000000745","","Was the sound coming from the left or the right?","0","","","1","INDUCTION-JUDGMENT","left","0","","","","","","","","","","","","","","","","","","","","","","","","","","",""
"html-keyboard-response","131","330532","0.0-4.0-1.0-2.36","2","0","0pd42c8c956frqp","","null","","<p style=""color:#054d00;""><b>Correct!</b></p>","","null","","","","","","","","","","","","","","","","","","","","","","","","","","","","","","","",""
"audio-keyboard-response","132","331338","0.0-4.0-1.0-0.37","2","0","0pd42c8c956frqp","","null","","sounds/induction/left_rev/ta_SWS.wav","","null","","","","","","","","","","","","","","","","","","","","","","","","","","","","","","","",""
"html-button-response","133","331817","0.0-4.0-1.0-1.37","2","0","0pd42c8c956frqp","","478.1000000014901","","Was the sound coming from the left or the right?","0","","","1","INDUCTION-JUDGMENT","left","0","","","","","","","","","","","","","","","","","","","","","","","","","","",""
"html-keyboard-response","134","332821","0.0-4.0-1.0-2.37","2","0","0pd42c8c956frqp","","null","","<p style=""color:#054d00;""><b>Correct!</b></p>","","null","","","","","","","","","","","","","","","","","","","","","","","","","","","","","","","",""
"audio-keyboard-response","135","333626","0.0-4.0-1.0-0.38","2","0","0pd42c8c956frqp","","null","","sounds/induction/left_rev/re_SWS.wav","","null","","","","","","","","","","","","","","","","","","","","","","","","","","","","","","","",""
"html-button-response","136","334111","0.0-4.0-1.0-1.38","2","0","0pd42c8c956frqp","","484.30000000074506","","Was the sound coming from the left or the right?","0","","","1","INDUCTION-JUDGMENT","left","0","","","","","","","","","","","","","","","","","","","","","","","","","","",""
"html-keyboard-response","137","335114","0.0-4.0-1.0-2.38","2","0","0pd42c8c956frqp","","null","","<p style=""color:#054d00;""><b>Correct!</b></p>","","null","","","","","","","","","","","","","","","","","","","","","","","","","","","","","","","",""
"audio-keyboard-response","138","335919","0.0-4.0-1.0-0.39","2","0","0pd42c8c956frqp","","null","","sounds/induction/left_rev/pu_SWS.wav","","null","","","","","","","","","","","","","","","","","","","","","","","","","","","","","","","",""
"html-button-response","139","336325","0.0-4.0-1.0-1.39","2","0","0pd42c8c956frqp","","404.5999999977648","","Was the sound coming from the left or the right?","0","","","1","INDUCTION-JUDGMENT","left","0","","","","","","","","","","","","","","","","","","","","","","","","","","",""
"html-keyboard-response","140","337328","0.0-4.0-1.0-2.39","2","0","0pd42c8c956frqp","","null","","<p style=""color:#054d00;""><b>Correct!</b></p>","","null","","","","","","","","","","","","","","","","","","","","","","","","","","","","","","","",""
"audio-keyboard-response","141","338133","0.0-4.0-1.0-0.40","2","0","0pd42c8c956frqp","","null","","sounds/induction/right_rev/ko_SWS.wav","","null","","","","","","","","","","","","","","","","","","","","","","","","","","","","","","","",""
"html-button-response","142","338578","0.0-4.0-1.0-1.40","2","0","0pd42c8c956frqp","","444.69999999925494","","Was the sound coming from the left or the right?","1","","","1","INDUCTION-JUDGMENT","right","1","","","","","","","","","","","","","","","","","","","","","","","","","","",""
"html-keyboard-response","143","339579","0.0-4.0-1.0-2.40","2","0","0pd42c8c956frqp","","null","","<p style=""color:#054d00;""><b>Correct!</b></p>","","null","","","","","","","","","","","","","","","","","","","","","","","","","","","","","","","",""
"audio-keyboard-response","144","340389","0.0-4.0-1.0-0.41","2","0","0pd42c8c956frqp","","null","","sounds/induction/left_rev/ti_SWS.wav","","null","","","","","","","","","","","","","","","","","","","","","","","","","","","","","","","",""
"html-button-response","145","340882","0.0-4.0-1.0-1.41","2","0","0pd42c8c956frqp","","492.4000000022352","","Was the sound coming from the left or the right?","0","","","1","INDUCTION-JUDGMENT","left","0","","","","","","","","","","","","","","","","","","","","","","","","","","",""
"html-keyboard-response","146","341887","0.0-4.0-1.0-2.41","2","0","0pd42c8c956frqp","","null","","<p style=""color:#054d00;""><b>Correct!</b></p>","","null","","","","","","","","","","","","","","","","","","","","","","","","","","","","","","","",""
"audio-keyboard-response","147","342693","0.0-4.0-1.0-0.42","2","0","0pd42c8c956frqp","","null","","sounds/induction/left_rev/ge_SWS.wav","","null","","","","","","","","","","","","","","","","","","","","","","","","","","","","","","","",""
"html-button-response","148","343103","0.0-4.0-1.0-1.42","2","0","0pd42c8c956frqp","","409.30000000074506","","Was the sound coming from the left or the right?","0","","","1","INDUCTION-JUDGMENT","left","0","","","","","","","","","","","","","","","","","","","","","","","","","","",""
"html-keyboard-response","149","344106","0.0-4.0-1.0-2.42","2","0","0pd42c8c956frqp","","null","","<p style=""color:#054d00;""><b>Correct!</b></p>","","null","","","","","","","","","","","","","","","","","","","","","","","","","","","","","","","",""
"audio-keyboard-response","150","344911","0.0-4.0-1.0-0.43","2","0","0pd42c8c956frqp","","null","","sounds/induction/right_rev/ni_SWS.wav","","null","","","","","","","","","","","","","","","","","","","","","","","","","","","","","","","",""
"html-button-response","151","345299","0.0-4.0-1.0-1.43","2","0","0pd42c8c956frqp","","386.30000000074506","","Was the sound coming from the left or the right?","1","","","1","INDUCTION-JUDGMENT","right","1","","","","","","","","","","","","","","","","","","","","","","","","","","",""
"html-keyboard-response","152","346303","0.0-4.0-1.0-2.43","2","0","0pd42c8c956frqp","","null","","<p style=""color:#054d00;""><b>Correct!</b></p>","","null","","","","","","","","","","","","","","","","","","","","","","","","","","","","","","","",""
"audio-keyboard-response","153","347109","0.0-4.0-1.0-0.44","2","0","0pd42c8c956frqp","","null","","sounds/induction/right_rev/ta_SWS.wav","","null","","","","","","","","","","","","","","","","","","","","","","","","","","","","","","","",""
"html-button-response","154","347545","0.0-4.0-1.0-1.44","2","0","0pd42c8c956frqp","","434.8999999985099","","Was the sound coming from the left or the right?","1","","","1","INDUCTION-JUDGMENT","right","1","","","","","","","","","","","","","","","","","","","","","","","","","","",""
"html-keyboard-response","155","348549","0.0-4.0-1.0-2.44","2","0","0pd42c8c956frqp","","null","","<p style=""color:#054d00;""><b>Correct!</b></p>","","null","","","","","","","","","","","","","","","","","","","","","","","","","","","","","","","",""
"audio-keyboard-response","156","349354","0.0-4.0-1.0-0.45","2","0","0pd42c8c956frqp","","null","","sounds/induction/right_rev/su_SWS.wav","","null","","","","","","","","","","","","","","","","","","","","","","","","","","","","","","","",""
"html-button-response","157","350135","0.0-4.0-1.0-1.45","2","0","0pd42c8c956frqp","","780.3000000007451","","Was the sound coming from the left or the right?","1","","","1","INDUCTION-JUDGMENT","right","1","","","","","","","","","","","","","","","","","","","","","","","","","","",""
"html-keyboard-response","158","351141","0.0-4.0-1.0-2.45","2","0","0pd42c8c956frqp","","null","","<p style=""color:#054d00;""><b>Correct!</b></p>","","null","","","","","","","","","","","","","","","","","","","","","","","","","","","","","","","",""
"audio-keyboard-response","159","351946","0.0-4.0-1.0-0.46","2","0","0pd42c8c956frqp","","null","","sounds/induction/left_rev/ru_SWS.wav","","null","","","","","","","","","","","","","","","","","","","","","","","","","","","","","","","",""
"html-button-response","160","352567","0.0-4.0-1.0-1.46","2","0","0pd42c8c956frqp","","620.4000000022352","","Was the sound coming from the left or the right?","0","","","1","INDUCTION-JUDGMENT","left","0","","","","","","","","","","","","","","","","","","","","","","","","","","",""
"html-keyboard-response","161","353571","0.0-4.0-1.0-2.46","2","0","0pd42c8c956frqp","","null","","<p style=""color:#054d00;""><b>Correct!</b></p>","","null","","","","","","","","","","","","","","","","","","","","","","","","","","","","","","","",""
"audio-keyboard-response","162","354378","0.0-4.0-1.0-0.47","2","0","0pd42c8c956frqp","","null","","sounds/induction/right_rev/fe_SWS.wav","","null","","","","","","","","","","","","","","","","","","","","","","","","","","","","","","","",""
"html-button-response","163","354904","0.0-4.0-1.0-1.47","2","0","0pd42c8c956frqp","","524.8000000007451","","Was the sound coming from the left or the right?","1","","","1","INDUCTION-JUDGMENT","right","1","","","","","","","","","","","","","","","","","","","","","","","","","","",""
"html-keyboard-response","164","355908","0.0-4.0-1.0-2.47","2","0","0pd42c8c956frqp","","null","","<p style=""color:#054d00;""><b>Correct!</b></p>","","null","","","","","","","","","","","","","","","","","","","","","","","","","","","","","","","",""
"html-button-response","165","368396","0.0-5.0-0.0","2","0","0pd42c8c956frqp","","11985.699999999255","","<p>Thank you for your answers.</p><p>You will now listen to similar sounds. The main difference is that the sounds will be longer.</p><p>Just as before, you will be asked to judge whether the sound was coming from the left or the right.</p><p>There are 10 of these longer sounds in total.","0","","","","","","","","","","","","","","","","","","","","","","","","","","","","","","","","",""
"audio-keyboard-response","166","370953","0.0-5.0-1.0-0.0","2","0","0pd42c8c956frqp","","null","","sounds/sentences/left_rev/14_04_cfSWS.wav","","null","","","","","","","","","","","","","","","","","","","","","","","","","","","","","","","",""
"html-button-response","167","371960","0.0-5.0-1.0-1.0","2","0","0pd42c8c956frqp","","1005.1000000014901","","Was the sound coming from the left or the right?","0","","","1","INDUCTION-JUDGMENT","left","0","","","","","","","","","","","","","","","","","","","","","","","","","","",""
"html-keyboard-response","168","372966","0.0-5.0-1.0-2.0","2","0","0pd42c8c956frqp","","null","","<p style=""color:#054d00;""><b>Correct!</b></p>","","null","","","","","","","","","","","","","","","","","","","","","","","","","","","","","","","",""
"html-button-response","169","374377","0.0-5.0-1.0-3.0","2","0","0pd42c8c956frqp","","910.5","","<p>Press the button below when you are ready to continue.</p>","0","","","","","","","","","","","","","","","","","","","","","","","","","","","","","","","","",""
"audio-keyboard-response","170","376964","0.0-5.0-1.0-0.1","2","0","0pd42c8c956frqp","","null","","sounds/sentences/left_rev/14_03_cfSWS.wav","","null","","","","","","","","","","","","","","","","","","","","","","","","","","","","","","","",""
"html-button-response","171","377522","0.0-5.0-1.0-1.1","2","0","0pd42c8c956frqp","","556.1999999992549","","Was the sound coming from the left or the right?","0","","","1","INDUCTION-JUDGMENT","left","0","","","","","","","","","","","","","","","","","","","","","","","","","","",""
"html-keyboard-response","172","378527","0.0-5.0-1.0-2.1","2","0","0pd42c8c956frqp","","null","","<p style=""color:#054d00;""><b>Correct!</b></p>","","null","","","","","","","","","","","","","","","","","","","","","","","","","","","","","","","",""
"html-button-response","173","379768","0.0-5.0-1.0-3.1","2","0","0pd42c8c956frqp","","738.9000000022352","","<p>Press the button below when you are ready to continue.</p>","0","","","","","","","","","","","","","","","","","","","","","","","","","","","","","","","","",""
"audio-keyboard-response","174","382521","0.0-5.0-1.0-0.2","2","0","0pd42c8c956frqp","","null","","sounds/sentences/right_rev/14_08_cfSWS.wav","","null","","","","","","","","","","","","","","","","","","","","","","","","","","","","","","","",""
"html-button-response","175","383137","0.0-5.0-1.0-1.2","2","0","0pd42c8c956frqp","","614.7999999970198","","Was the sound coming from the left or the right?","1","","","1","INDUCTION-JUDGMENT","right","1","","","","","","","","","","","","","","","","","","","","","","","","","","",""
"html-keyboard-response","176","384143","0.0-5.0-1.0-2.2","2","0","0pd42c8c956frqp","","null","","<p style=""color:#054d00;""><b>Correct!</b></p>","","null","","","","","","","","","","","","","","","","","","","","","","","","","","","","","","","",""
"html-button-response","177","385392","0.0-5.0-1.0-3.2","2","0","0pd42c8c956frqp","","747.1999999992549","","<p>Press the button below when you are ready to continue.</p>","0","","","","","","","","","","","","","","","","","","","","","","","","","","","","","","","","",""
"audio-keyboard-response","178","388212","0.0-5.0-1.0-0.3","2","0","0pd42c8c956frqp","","null","","sounds/sentences/left_rev/14_02_cfSWS.wav","","null","","","","","","","","","","","","","","","","","","","","","","","","","","","","","","","",""
"html-button-response","179","388702","0.0-5.0-1.0-1.3","2","0","0pd42c8c956frqp","","488.69999999925494","","Was the sound coming from the left or the right?","0","","","1","INDUCTION-JUDGMENT","left","0","","","","","","","","","","","","","","","","","","","","","","","","","","",""
"html-keyboard-response","180","389705","0.0-5.0-1.0-2.3","2","0","0pd42c8c956frqp","","null","","<p style=""color:#054d00;""><b>Correct!</b></p>","","null","","","","","","","","","","","","","","","","","","","","","","","","","","","","","","","",""
"html-button-response","181","390896","0.0-5.0-1.0-3.3","2","0","0pd42c8c956frqp","","686","","<p>Press the button below when you are ready to continue.</p>","0","","","","","","","","","","","","","","","","","","","","","","","","","","","","","","","","",""
"audio-keyboard-response","182","394014","0.0-5.0-1.0-0.4","2","0","0pd42c8c956frqp","","null","","sounds/sentences/left_rev/14_01_cfSWS.wav","","null","","","","","","","","","","","","","","","","","","","","","","","","","","","","","","","",""
"html-button-response","183","394539","0.0-5.0-1.0-1.4","2","0","0pd42c8c956frqp","","523.8999999985099","","Was the sound coming from the left or the right?","0","","","1","INDUCTION-JUDGMENT","left","0","","","","","","","","","","","","","","","","","","","","","","","","","","",""
"html-keyboard-response","184","395545","0.0-5.0-1.0-2.4","2","0","0pd42c8c956frqp","","null","","<p style=""color:#054d00;""><b>Correct!</b></p>","","null","","","","","","","","","","","","","","","","","","","","","","","","","","","","","","","",""
"html-button-response","185","399036","0.0-5.0-1.0-3.4","2","0","0pd42c8c956frqp","","2989.099999997765","","<p>Press the button below when you are ready to continue.</p>","0","","","","","","","","","","","","","","","","","","","","","","","","","","","","","","","","",""
"audio-keyboard-response","186","401929","0.0-5.0-1.0-0.5","2","0","0pd42c8c956frqp","","null","","sounds/sentences/right_rev/14_07_cfSWS.wav","","null","","","","","","","","","","","","","","","","","","","","","","","","","","","","","","","",""
"html-button-response","187","402428","0.0-5.0-1.0-1.5","2","0","0pd42c8c956frqp","","498.19999999925494","","Was the sound coming from the left or the right?","1","","","1","INDUCTION-JUDGMENT","right","1","","","","","","","","","","","","","","","","","","","","","","","","","","",""
"html-keyboard-response","188","403433","0.0-5.0-1.0-2.5","2","0","0pd42c8c956frqp","","null","","<p style=""color:#054d00;""><b>Correct!</b></p>","","null","","","","","","","","","","","","","","","","","","","","","","","","","","","","","","","",""
"html-button-response","189","404536","0.0-5.0-1.0-3.5","2","0","0pd42c8c956frqp","","600.8999999985099","","<p>Press the button below when you are ready to continue.</p>","0","","","","","","","","","","","","","","","","","","","","","","","","","","","","","","","","",""
"audio-keyboard-response","190","407283","0.0-5.0-1.0-0.6","2","0","0pd42c8c956frqp","","null","","sounds/sentences/right_rev/14_06_cfSWS.wav","","null","","","","","","","","","","","","","","","","","","","","","","","","","","","","","","","",""
"html-button-response","191","407782","0.0-5.0-1.0-1.6","2","0","0pd42c8c956frqp","","497.5","","Was the sound coming from the left or the right?","1","","","1","INDUCTION-JUDGMENT","right","1","","","","","","","","","","","","","","","","","","","","","","","","","","",""
"html-keyboard-response","192","408787","0.0-5.0-1.0-2.6","2","0","0pd42c8c956frqp","","null","","<p style=""color:#054d00;""><b>Correct!</b></p>","","null","","","","","","","","","","","","","","","","","","","","","","","","","","","","","","","",""
"html-button-response","193","409909","0.0-5.0-1.0-3.6","2","0","0pd42c8c956frqp","","620.1999999992549","","<p>Press the button below when you are ready to continue.</p>","0","","","","","","","","","","","","","","","","","","","","","","","","","","","","","","","","",""
"audio-keyboard-response","194","412638","0.0-5.0-1.0-0.7","2","0","0pd42c8c956frqp","","null","","sounds/sentences/right_rev/14_09_cfSWS.wav","","null","","","","","","","","","","","","","","","","","","","","","","","","","","","","","","","",""
"html-button-response","195","413222","0.0-5.0-1.0-1.7","2","0","0pd42c8c956frqp","","583.0999999977648","","Was the sound coming from the left or the right?","1","","","1","INDUCTION-JUDGMENT","right","1","","","","","","","","","","","","","","","","","","","","","","","","","","",""
"html-keyboard-response","196","414227","0.0-5.0-1.0-2.7","2","0","0pd42c8c956frqp","","null","","<p style=""color:#054d00;""><b>Correct!</b></p>","","null","","","","","","","","","","","","","","","","","","","","","","","","","","","","","","","",""
"html-button-response","197","415492","0.0-5.0-1.0-3.7","2","0","0pd42c8c956frqp","","759","","<p>Press the button below when you are ready to continue.</p>","0","","","","","","","","","","","","","","","","","","","","","","","","","","","","","","","","",""
"audio-keyboard-response","198","418488","0.0-5.0-1.0-0.8","2","0","0pd42c8c956frqp","","null","","sounds/sentences/left_rev/14_05_cfSWS.wav","","null","","","","","","","","","","","","","","","","","","","","","","","","","","","","","","","",""
"html-button-response","199","418973","0.0-5.0-1.0-1.8","2","0","0pd42c8c956frqp","","483.69999999925494","","Was the sound coming from the left or the right?","0","","","1","INDUCTION-JUDGMENT","left","0","","","","","","","","","","","","","","","","","","","","","","","","","","",""
"html-keyboard-response","200","419976","0.0-5.0-1.0-2.8","2","0","0pd42c8c956frqp","","null","","<p style=""color:#054d00;""><b>Correct!</b></p>","","null","","","","","","","","","","","","","","","","","","","","","","","","","","","","","","","",""
"html-button-response","201","421171","0.0-5.0-1.0-3.8","2","0","0pd42c8c956frqp","","691.8000000007451","","<p>Press the button below when you are ready to continue.</p>","0","","","","","","","","","","","","","","","","","","","","","","","","","","","","","","","","",""
"audio-keyboard-response","202","424190","0.0-5.0-1.0-0.9","2","0","0pd42c8c956frqp","","null","","sounds/sentences/right_rev/14_10_cfSWS.wav","","null","","","","","","","","","","","","","","","","","","","","","","","","","","","","","","","",""
"html-button-response","203","424776","0.0-5.0-1.0-1.9","2","0","0pd42c8c956frqp","","585.3999999985099","","Was the sound coming from the left or the right?","1","","","1","INDUCTION-JUDGMENT","right","1","","","","","","","","","","","","","","","","","","","","","","","","","","",""
"html-keyboard-response","204","425779","0.0-5.0-1.0-2.9","2","0","0pd42c8c956frqp","","null","","<p style=""color:#054d00;""><b>Correct!</b></p>","","null","","","","","","","","","","","","","","","","","","","","","","","","","","","","","","","",""
"html-button-response","205","426890","0.0-5.0-1.0-3.9","2","0","0pd42c8c956frqp","","609.3000000007451","","<p>Press the button below when you are ready to continue.</p>","0","","","","","","","","","","","","","","","","","","","","","","","","","","","","","","","","",""
"html-keyboard-response","206","441367","0.0-6.0-0.0","2","0","0pd42c8c956frqp","","13971.599999997765","","<p>In this part of the study, you will hear sounds similar to those you just heard.</p><p>Please focus on these sounds, as you may be asked questions about them later.</p><p>Occasionally, the sounds will pause for up to two seconds. When this happens, please press SPACEBAR as quickly as you can.</br>This helps ensure that you are paying attention to the sounds.</p><p>This part of the study will take about 12 minutes to complete, and you will be given the opportunity to take a couple of short breaks every few minutes.</p><p><strong>Press SPACEBAR to begin</strong></p>","","32","","","","","","","","","","","","","","","","","","","","","","","","","","","","","","","",""
"html-keyboard-response","207","442370","0.0-6.0-1.0-0.0","2","0","0pd42c8c956frqp","","null","","<p style=""font-size: 40px;"">+</p>","","null","","","","","","","","","","","","","","","","","","","","","","","","","","","","","","","",""
"html-keyboard-response","208","627385","0.0-6.0-1.0-1.0","2","0","0pd42c8c956frqp","","null","","","","null","","","SL-TRAIN","","","0","614.3999999985099","918","sounds/B/TRAIN/SEQ__09.mp3","2","","","","","","","","","","","","","","","","","","","","","",""
"html-button-response","209","629615","0.0-6.0-1.0-2.0","2","0","0pd42c8c956frqp","","2229","","<p>You may take a short break if you wish.</p>","0","","","","","","","","","","","","","","","","","","","","","","","","","","","","","","","","",""
"html-keyboard-response","210","630616","0.0-6.0-1.0-3.0","2","0","0pd42c8c956frqp","","null","","<p style=""font-size: 40px;"">+</p>","","null","","","","","","","","","","","","","","","","","","","","","","","","","","","","","","","",""
"html-keyboard-response","211","815621","0.0-6.0-1.0-4.0","2","0","0pd42c8c956frqp","","null","","","","null","","","SL-TRAIN","","","0","1340.699999999255","1198.699999999255","sounds/B/TRAIN/SEQ__04.mp3","4","","","","","","","","","","","","","","","","","","","","","",""
"html-button-response","212","818153","0.0-6.0-1.0-5.0","2","0","0pd42c8c956frqp","","2531.199999999255","","<p>You may take a short break if you wish.</p>","0","","","","","","","","","","","","","","","","","","","","","","","","","","","","","","","","",""
"html-keyboard-response","213","819157","0.0-6.0-1.0-6.0","2","0","0pd42c8c956frqp","","null","","<p style=""font-size: 40px;"">+</p>","","null","","","","","","","","","","","","","","","","","","","","","","","","","","","","","","","",""
"html-keyboard-response","214","1004161","0.0-6.0-1.0-7.0","2","0","0pd42c8c956frqp","","null","","","","null","","","SL-TRAIN","","","0","1377.5","1252","sounds/B/TRAIN/SEQ__08.mp3","6","","","","","","","","","","","","","","","","","","","","","",""
"html-button-response","215","1006207","0.0-6.0-1.0-8.0","2","0","0pd42c8c956frqp","","2044.5","","<p>You may take a short break if you wish.</p>","0","","","","","","","","","","","","","","","","","","","","","","","","","","","","","","","","",""
"html-keyboard-response","216","1007212","0.0-6.0-1.0-9.0","2","0","0pd42c8c956frqp","","null","","<p style=""font-size: 40px;"">+</p>","","null","","","","","","","","","","","","","","","","","","","","","","","","","","","","","","","",""
"html-keyboard-response","217","1192223","0.0-6.0-1.0-10.0","2","0","0pd42c8c956frqp","","null","","","","null","","","SL-TRAIN","","","0","1702.5","1376.699999999255","sounds/B/TRAIN/SEQ__07.mp3","8","","","","","","","","","","","","","","","","","","","","","",""
"html-button-response","218","1194171","0.0-6.0-1.0-11.0","2","0","0pd42c8c956frqp","","1946.5","","<p>You may take a short break if you wish.</p>","0","","","","","","","","","","","","","","","","","","","","","","","","","","","","","","","","",""
"html-button-response","219","1201523","0.0-7.0-0.0","2","0","0pd42c8c956frqp","","7350.20000000298","","<p>Welcome to the second part of the study. This is a <u>familiarity task</u>.</p><p>You will now hear short sounds and will be asked to rate how familiar they sound to you <b>based on what you heard in the previous part of the study</b>.</p><p>You will rate 12 sounds in total.</p>","0","","","","","","","","","","","","","","","","","","","","","","","","","","","","","","","","",""
"html-keyboard-response","220","1202528","0.0-7.0-1.0-0.0","2","0","0pd42c8c956frqp","","null","","","","null","","","","","","","","","","","","","","","","","","","","","","","","","","","","","","","",""
"audio-keyboard-response","221","1203538","0.0-7.0-1.0-1.0","2","0","0pd42c8c956frqp","","null","","sounds/B/FAM/P001.mp3","","null","","","","","","","","","","","","","","","","","","","","","","","","","","","","","","","",""
"html-keyboard-response","222","1207041","0.0-7.0-1.0-2.0","2","0","0pd42c8c956frqp","","2996.699999999255","","<p>How familiar did this sound to you?</p><p>1&nbsp;&nbsp;&nbsp;&nbsp;&nbsp;&nbsp;&nbsp;&nbsp;&nbsp;&nbsp;&nbsp;&nbsp;&nbsp;&nbsp;&nbsp;&nbsp;&nbsp;&nbsp;&nbsp;2&nbsp;&nbsp;&nbsp;&nbsp;&nbsp;&nbsp;&nbsp;&nbsp;&nbsp;&nbsp;&nbsp;&nbsp;&nbsp;&nbsp;&nbsp;&nbsp;&nbsp;&nbsp;&nbsp;3&nbsp;&nbsp;&nbsp;&nbsp;&nbsp;&nbsp;&nbsp;&nbsp;&nbsp;&nbsp;&nbsp;&nbsp;&nbsp;&nbsp;&nbsp;&nbsp;&nbsp;&nbsp;&nbsp;4</p><p style=""font-size:14px"">Not at all familiar&nbsp;&nbsp;&nbsp;&nbsp;A little familiar&nbsp;&nbsp;&nbsp;Moderately familiar&nbsp;&nbsp;&nbsp;Extremely familiar</p><p>(press the corresponding number on your keyboard)</p>","","52","","","FAM-RESPONSE","","","","","","","","sounds/B/FAM/P001.mp3","partword","","","","","","","","","","","","","","","","","","","",""
"html-keyboard-response","223","1209046","0.0-7.0-1.0-0.1","2","0","0pd42c8c956frqp","","null","","","","null","","","","","","","","","","","","","","","","","","","","","","","","","","","","","","","",""
"audio-keyboard-response","224","1209986","0.0-7.0-1.0-1.1","2","0","0pd42c8c956frqp","","null","","sounds/B/FAM/N002.mp3","","null","","","","","","","","","","","","","","","","","","","","","","","","","","","","","","","",""
"html-keyboard-response","225","1212189","0.0-7.0-1.0-2.1","2","0","0pd42c8c956frqp","","1700.800000000745","","<p>How familiar did this sound to you?</p><p>1&nbsp;&nbsp;&nbsp;&nbsp;&nbsp;&nbsp;&nbsp;&nbsp;&nbsp;&nbsp;&nbsp;&nbsp;&nbsp;&nbsp;&nbsp;&nbsp;&nbsp;&nbsp;&nbsp;2&nbsp;&nbsp;&nbsp;&nbsp;&nbsp;&nbsp;&nbsp;&nbsp;&nbsp;&nbsp;&nbsp;&nbsp;&nbsp;&nbsp;&nbsp;&nbsp;&nbsp;&nbsp;&nbsp;3&nbsp;&nbsp;&nbsp;&nbsp;&nbsp;&nbsp;&nbsp;&nbsp;&nbsp;&nbsp;&nbsp;&nbsp;&nbsp;&nbsp;&nbsp;&nbsp;&nbsp;&nbsp;&nbsp;4</p><p style=""font-size:14px"">Not at all familiar&nbsp;&nbsp;&nbsp;&nbsp;A little familiar&nbsp;&nbsp;&nbsp;Moderately familiar&nbsp;&nbsp;&nbsp;Extremely familiar</p><p>(press the corresponding number on your keyboard)</p>","","51","","","FAM-RESPONSE","","","","","","","","sounds/B/FAM/N002.mp3","nonword","","","","","","","","","","","","","","","","","","","",""
"html-keyboard-response","226","1214199","0.0-7.0-1.0-0.2","2","0","0pd42c8c956frqp","","null","","","","null","","","","","","","","","","","","","","","","","","","","","","","","","","","","","","","",""
"audio-keyboard-response","227","1215143","0.0-7.0-1.0-1.2","2","0","0pd42c8c956frqp","","null","","sounds/B/FAM/P002.mp3","","null","","","","","","","","","","","","","","","","","","","","","","","","","","","","","","","",""
"html-keyboard-response","228","1216118","0.0-7.0-1.0-2.2","2","0","0pd42c8c956frqp","","472.6000000014901","","<p>How familiar did this sound to you?</p><p>1&nbsp;&nbsp;&nbsp;&nbsp;&nbsp;&nbsp;&nbsp;&nbsp;&nbsp;&nbsp;&nbsp;&nbsp;&nbsp;&nbsp;&nbsp;&nbsp;&nbsp;&nbsp;&nbsp;2&nbsp;&nbsp;&nbsp;&nbsp;&nbsp;&nbsp;&nbsp;&nbsp;&nbsp;&nbsp;&nbsp;&nbsp;&nbsp;&nbsp;&nbsp;&nbsp;&nbsp;&nbsp;&nbsp;3&nbsp;&nbsp;&nbsp;&nbsp;&nbsp;&nbsp;&nbsp;&nbsp;&nbsp;&nbsp;&nbsp;&nbsp;&nbsp;&nbsp;&nbsp;&nbsp;&nbsp;&nbsp;&nbsp;4</p><p style=""font-size:14px"">Not at all familiar&nbsp;&nbsp;&nbsp;&nbsp;A little familiar&nbsp;&nbsp;&nbsp;Moderately familiar&nbsp;&nbsp;&nbsp;Extremely familiar</p><p>(press the corresponding number on your keyboard)</p>","","52","","","FAM-RESPONSE","","","","","","","","sounds/B/FAM/P002.mp3","partword","","","","","","","","","","","","","","","","","","","",""
"html-keyboard-response","229","1218124","0.0-7.0-1.0-0.3","2","0","0pd42c8c956frqp","","null","","","","null","","","","","","","","","","","","","","","","","","","","","","","","","","","","","","","",""
"audio-keyboard-response","230","1219069","0.0-7.0-1.0-1.3","2","0","0pd42c8c956frqp","","null","","sounds/B/FAM/W003.mp3","","null","","","","","","","","","","","","","","","","","","","","","","","","","","","","","","","",""
"html-keyboard-response","231","1219952","0.0-7.0-1.0-2.3","2","0","0pd42c8c956frqp","","378.19999999925494","","<p>How familiar did this sound to you?</p><p>1&nbsp;&nbsp;&nbsp;&nbsp;&nbsp;&nbsp;&nbsp;&nbsp;&nbsp;&nbsp;&nbsp;&nbsp;&nbsp;&nbsp;&nbsp;&nbsp;&nbsp;&nbsp;&nbsp;2&nbsp;&nbsp;&nbsp;&nbsp;&nbsp;&nbsp;&nbsp;&nbsp;&nbsp;&nbsp;&nbsp;&nbsp;&nbsp;&nbsp;&nbsp;&nbsp;&nbsp;&nbsp;&nbsp;3&nbsp;&nbsp;&nbsp;&nbsp;&nbsp;&nbsp;&nbsp;&nbsp;&nbsp;&nbsp;&nbsp;&nbsp;&nbsp;&nbsp;&nbsp;&nbsp;&nbsp;&nbsp;&nbsp;4</p><p style=""font-size:14px"">Not at all familiar&nbsp;&nbsp;&nbsp;&nbsp;A little familiar&nbsp;&nbsp;&nbsp;Moderately familiar&nbsp;&nbsp;&nbsp;Extremely familiar</p><p>(press the corresponding number on your keyboard)</p>","","51","","","FAM-RESPONSE","","","","","","","","sounds/B/FAM/W003.mp3","word","","","","","","","","","","","","","","","","","","","",""
"html-keyboard-response","232","1221959","0.0-7.0-1.0-0.4","2","0","0pd42c8c956frqp","","null","","","","null","","","","","","","","","","","","","","","","","","","","","","","","","","","","","","","",""
"audio-keyboard-response","233","1222903","0.0-7.0-1.0-1.4","2","0","0pd42c8c956frqp","","null","","sounds/B/FAM/N004.mp3","","null","","","","","","","","","","","","","","","","","","","","","","","","","","","","","","","",""
"html-keyboard-response","234","1224288","0.0-7.0-1.0-2.4","2","0","0pd42c8c956frqp","","882.6999999992549","","<p>How familiar did this sound to you?</p><p>1&nbsp;&nbsp;&nbsp;&nbsp;&nbsp;&nbsp;&nbsp;&nbsp;&nbsp;&nbsp;&nbsp;&nbsp;&nbsp;&nbsp;&nbsp;&nbsp;&nbsp;&nbsp;&nbsp;2&nbsp;&nbsp;&nbsp;&nbsp;&nbsp;&nbsp;&nbsp;&nbsp;&nbsp;&nbsp;&nbsp;&nbsp;&nbsp;&nbsp;&nbsp;&nbsp;&nbsp;&nbsp;&nbsp;3&nbsp;&nbsp;&nbsp;&nbsp;&nbsp;&nbsp;&nbsp;&nbsp;&nbsp;&nbsp;&nbsp;&nbsp;&nbsp;&nbsp;&nbsp;&nbsp;&nbsp;&nbsp;&nbsp;4</p><p style=""font-size:14px"">Not at all familiar&nbsp;&nbsp;&nbsp;&nbsp;A little familiar&nbsp;&nbsp;&nbsp;Moderately familiar&nbsp;&nbsp;&nbsp;Extremely familiar</p><p>(press the corresponding number on your keyboard)</p>","","50","","","FAM-RESPONSE","","","","","","","","sounds/B/FAM/N004.mp3","nonword","","","","","","","","","","","","","","","","","","","",""
"html-keyboard-response","235","1226293","0.0-7.0-1.0-0.5","2","0","0pd42c8c956frqp","","null","","","","null","","","","","","","","","","","","","","","","","","","","","","","","","","","","","","","",""
"audio-keyboard-response","236","1227234","0.0-7.0-1.0-1.5","2","0","0pd42c8c956frqp","","null","","sounds/B/FAM/W001.mp3","","null","","","","","","","","","","","","","","","","","","","","","","","","","","","","","","","",""
"html-keyboard-response","237","1227989","0.0-7.0-1.0-2.5","2","0","0pd42c8c956frqp","","254","","<p>How familiar did this sound to you?</p><p>1&nbsp;&nbsp;&nbsp;&nbsp;&nbsp;&nbsp;&nbsp;&nbsp;&nbsp;&nbsp;&nbsp;&nbsp;&nbsp;&nbsp;&nbsp;&nbsp;&nbsp;&nbsp;&nbsp;2&nbsp;&nbsp;&nbsp;&nbsp;&nbsp;&nbsp;&nbsp;&nbsp;&nbsp;&nbsp;&nbsp;&nbsp;&nbsp;&nbsp;&nbsp;&nbsp;&nbsp;&nbsp;&nbsp;3&nbsp;&nbsp;&nbsp;&nbsp;&nbsp;&nbsp;&nbsp;&nbsp;&nbsp;&nbsp;&nbsp;&nbsp;&nbsp;&nbsp;&nbsp;&nbsp;&nbsp;&nbsp;&nbsp;4</p><p style=""font-size:14px"">Not at all familiar&nbsp;&nbsp;&nbsp;&nbsp;A little familiar&nbsp;&nbsp;&nbsp;Moderately familiar&nbsp;&nbsp;&nbsp;Extremely familiar</p><p>(press the corresponding number on your keyboard)</p>","","51","","","FAM-RESPONSE","","","","","","","","sounds/B/FAM/W001.mp3","word","","","","","","","","","","","","","","","","","","","",""
"html-keyboard-response","238","1229996","0.0-7.0-1.0-0.6","2","0","0pd42c8c956frqp","","null","","","","null","","","","","","","","","","","","","","","","","","","","","","","","","","","","","","","",""
"audio-keyboard-response","239","1230940","0.0-7.0-1.0-1.6","2","0","0pd42c8c956frqp","","null","","sounds/B/FAM/W004.mp3","","null","","","","","","","","","","","","","","","","","","","","","","","","","","","","","","","",""
"html-keyboard-response","240","1232202","0.0-7.0-1.0-2.6","2","0","0pd42c8c956frqp","","755.5","","<p>How familiar did this sound to you?</p><p>1&nbsp;&nbsp;&nbsp;&nbsp;&nbsp;&nbsp;&nbsp;&nbsp;&nbsp;&nbsp;&nbsp;&nbsp;&nbsp;&nbsp;&nbsp;&nbsp;&nbsp;&nbsp;&nbsp;2&nbsp;&nbsp;&nbsp;&nbsp;&nbsp;&nbsp;&nbsp;&nbsp;&nbsp;&nbsp;&nbsp;&nbsp;&nbsp;&nbsp;&nbsp;&nbsp;&nbsp;&nbsp;&nbsp;3&nbsp;&nbsp;&nbsp;&nbsp;&nbsp;&nbsp;&nbsp;&nbsp;&nbsp;&nbsp;&nbsp;&nbsp;&nbsp;&nbsp;&nbsp;&nbsp;&nbsp;&nbsp;&nbsp;4</p><p style=""font-size:14px"">Not at all familiar&nbsp;&nbsp;&nbsp;&nbsp;A little familiar&nbsp;&nbsp;&nbsp;Moderately familiar&nbsp;&nbsp;&nbsp;Extremely familiar</p><p>(press the corresponding number on your keyboard)</p>","","51","","","FAM-RESPONSE","","","","","","","","sounds/B/FAM/W004.mp3","word","","","","","","","","","","","","","","","","","","","",""
"html-keyboard-response","241","1234210","0.0-7.0-1.0-0.7","2","0","0pd42c8c956frqp","","null","","","","null","","","","","","","","","","","","","","","","","","","","","","","","","","","","","","","",""
"audio-keyboard-response","242","1235154","0.0-7.0-1.0-1.7","2","0","0pd42c8c956frqp","","null","","sounds/B/FAM/N001.mp3","","null","","","","","","","","","","","","","","","","","","","","","","","","","","","","","","","",""
"html-keyboard-response","243","1236183","0.0-7.0-1.0-2.7","2","0","0pd42c8c956frqp","","527.5","","<p>How familiar did this sound to you?</p><p>1&nbsp;&nbsp;&nbsp;&nbsp;&nbsp;&nbsp;&nbsp;&nbsp;&nbsp;&nbsp;&nbsp;&nbsp;&nbsp;&nbsp;&nbsp;&nbsp;&nbsp;&nbsp;&nbsp;2&nbsp;&nbsp;&nbsp;&nbsp;&nbsp;&nbsp;&nbsp;&nbsp;&nbsp;&nbsp;&nbsp;&nbsp;&nbsp;&nbsp;&nbsp;&nbsp;&nbsp;&nbsp;&nbsp;3&nbsp;&nbsp;&nbsp;&nbsp;&nbsp;&nbsp;&nbsp;&nbsp;&nbsp;&nbsp;&nbsp;&nbsp;&nbsp;&nbsp;&nbsp;&nbsp;&nbsp;&nbsp;&nbsp;4</p><p style=""font-size:14px"">Not at all familiar&nbsp;&nbsp;&nbsp;&nbsp;A little familiar&nbsp;&nbsp;&nbsp;Moderately familiar&nbsp;&nbsp;&nbsp;Extremely familiar</p><p>(press the corresponding number on your keyboard)</p>","","51","","","FAM-RESPONSE","","","","","","","","sounds/B/FAM/N001.mp3","nonword","","","","","","","","","","","","","","","","","","","",""
"html-keyboard-response","244","1238187","0.0-7.0-1.0-0.8","2","0","0pd42c8c956frqp","","null","","","","null","","","","","","","","","","","","","","","","","","","","","","","","","","","","","","","",""
"audio-keyboard-response","245","1239127","0.0-7.0-1.0-1.8","2","0","0pd42c8c956frqp","","null","","sounds/B/FAM/P004.mp3","","null","","","","","","","","","","","","","","","","","","","","","","","","","","","","","","","",""
"html-keyboard-response","246","1240534","0.0-7.0-1.0-2.8","2","0","0pd42c8c956frqp","","905","","<p>How familiar did this sound to you?</p><p>1&nbsp;&nbsp;&nbsp;&nbsp;&nbsp;&nbsp;&nbsp;&nbsp;&nbsp;&nbsp;&nbsp;&nbsp;&nbsp;&nbsp;&nbsp;&nbsp;&nbsp;&nbsp;&nbsp;2&nbsp;&nbsp;&nbsp;&nbsp;&nbsp;&nbsp;&nbsp;&nbsp;&nbsp;&nbsp;&nbsp;&nbsp;&nbsp;&nbsp;&nbsp;&nbsp;&nbsp;&nbsp;&nbsp;3&nbsp;&nbsp;&nbsp;&nbsp;&nbsp;&nbsp;&nbsp;&nbsp;&nbsp;&nbsp;&nbsp;&nbsp;&nbsp;&nbsp;&nbsp;&nbsp;&nbsp;&nbsp;&nbsp;4</p><p style=""font-size:14px"">Not at all familiar&nbsp;&nbsp;&nbsp;&nbsp;A little familiar&nbsp;&nbsp;&nbsp;Moderately familiar&nbsp;&nbsp;&nbsp;Extremely familiar</p><p>(press the corresponding number on your keyboard)</p>","","51","","","FAM-RESPONSE","","","","","","","","sounds/B/FAM/P004.mp3","partword","","","","","","","","","","","","","","","","","","","",""
"html-keyboard-response","247","1242540","0.0-7.0-1.0-0.9","2","0","0pd42c8c956frqp","","null","","","","null","","","","","","","","","","","","","","","","","","","","","","","","","","","","","","","",""
"audio-keyboard-response","248","1243484","0.0-7.0-1.0-1.9","2","0","0pd42c8c956frqp","","null","","sounds/B/FAM/P003.mp3","","null","","","","","","","","","","","","","","","","","","","","","","","","","","","","","","","",""
"html-keyboard-response","249","1244332","0.0-7.0-1.0-2.9","2","0","0pd42c8c956frqp","","345.6000000014901","","<p>How familiar did this sound to you?</p><p>1&nbsp;&nbsp;&nbsp;&nbsp;&nbsp;&nbsp;&nbsp;&nbsp;&nbsp;&nbsp;&nbsp;&nbsp;&nbsp;&nbsp;&nbsp;&nbsp;&nbsp;&nbsp;&nbsp;2&nbsp;&nbsp;&nbsp;&nbsp;&nbsp;&nbsp;&nbsp;&nbsp;&nbsp;&nbsp;&nbsp;&nbsp;&nbsp;&nbsp;&nbsp;&nbsp;&nbsp;&nbsp;&nbsp;3&nbsp;&nbsp;&nbsp;&nbsp;&nbsp;&nbsp;&nbsp;&nbsp;&nbsp;&nbsp;&nbsp;&nbsp;&nbsp;&nbsp;&nbsp;&nbsp;&nbsp;&nbsp;&nbsp;4</p><p style=""font-size:14px"">Not at all familiar&nbsp;&nbsp;&nbsp;&nbsp;A little familiar&nbsp;&nbsp;&nbsp;Moderately familiar&nbsp;&nbsp;&nbsp;Extremely familiar</p><p>(press the corresponding number on your keyboard)</p>","","52","","","FAM-RESPONSE","","","","","","","","sounds/B/FAM/P003.mp3","partword","","","","","","","","","","","","","","","","","","","",""
"html-keyboard-response","250","1246339","0.0-7.0-1.0-0.10","2","0","0pd42c8c956frqp","","null","","","","null","","","","","","","","","","","","","","","","","","","","","","","","","","","","","","","",""
"audio-keyboard-response","251","1247281","0.0-7.0-1.0-1.10","2","0","0pd42c8c956frqp","","null","","sounds/B/FAM/N003.mp3","","null","","","","","","","","","","","","","","","","","","","","","","","","","","","","","","","",""
"html-keyboard-response","252","1248447","0.0-7.0-1.0-2.10","2","0","0pd42c8c956frqp","","664","","<p>How familiar did this sound to you?</p><p>1&nbsp;&nbsp;&nbsp;&nbsp;&nbsp;&nbsp;&nbsp;&nbsp;&nbsp;&nbsp;&nbsp;&nbsp;&nbsp;&nbsp;&nbsp;&nbsp;&nbsp;&nbsp;&nbsp;2&nbsp;&nbsp;&nbsp;&nbsp;&nbsp;&nbsp;&nbsp;&nbsp;&nbsp;&nbsp;&nbsp;&nbsp;&nbsp;&nbsp;&nbsp;&nbsp;&nbsp;&nbsp;&nbsp;3&nbsp;&nbsp;&nbsp;&nbsp;&nbsp;&nbsp;&nbsp;&nbsp;&nbsp;&nbsp;&nbsp;&nbsp;&nbsp;&nbsp;&nbsp;&nbsp;&nbsp;&nbsp;&nbsp;4</p><p style=""font-size:14px"">Not at all familiar&nbsp;&nbsp;&nbsp;&nbsp;A little familiar&nbsp;&nbsp;&nbsp;Moderately familiar&nbsp;&nbsp;&nbsp;Extremely familiar</p><p>(press the corresponding number on your keyboard)</p>","","51","","","FAM-RESPONSE","","","","","","","","sounds/B/FAM/N003.mp3","nonword","","","","","","","","","","","","","","","","","","","",""
"html-keyboard-response","253","1250455","0.0-7.0-1.0-0.11","2","0","0pd42c8c956frqp","","null","","","","null","","","","","","","","","","","","","","","","","","","","","","","","","","","","","","","",""
"audio-keyboard-response","254","1251399","0.0-7.0-1.0-1.11","2","0","0pd42c8c956frqp","","null","","sounds/B/FAM/W002.mp3","","null","","","","","","","","","","","","","","","","","","","","","","","","","","","","","","","",""
"html-keyboard-response","255","1252233","0.0-7.0-1.0-2.11","2","0","0pd42c8c956frqp","","332.30000000074506","","<p>How familiar did this sound to you?</p><p>1&nbsp;&nbsp;&nbsp;&nbsp;&nbsp;&nbsp;&nbsp;&nbsp;&nbsp;&nbsp;&nbsp;&nbsp;&nbsp;&nbsp;&nbsp;&nbsp;&nbsp;&nbsp;&nbsp;2&nbsp;&nbsp;&nbsp;&nbsp;&nbsp;&nbsp;&nbsp;&nbsp;&nbsp;&nbsp;&nbsp;&nbsp;&nbsp;&nbsp;&nbsp;&nbsp;&nbsp;&nbsp;&nbsp;3&nbsp;&nbsp;&nbsp;&nbsp;&nbsp;&nbsp;&nbsp;&nbsp;&nbsp;&nbsp;&nbsp;&nbsp;&nbsp;&nbsp;&nbsp;&nbsp;&nbsp;&nbsp;&nbsp;4</p><p style=""font-size:14px"">Not at all familiar&nbsp;&nbsp;&nbsp;&nbsp;A little familiar&nbsp;&nbsp;&nbsp;Moderately familiar&nbsp;&nbsp;&nbsp;Extremely familiar</p><p>(press the corresponding number on your keyboard)</p>","","52","","","FAM-RESPONSE","","","","","","","","sounds/B/FAM/W002.mp3","word","","","","","","","","","","","","","","","","","","","",""
"html-button-response","256","1263348","0.0-8.0-0.0","2","0","0pd42c8c956frqp","","10111.89999999851","","<p>You will now listen to longer sound sequences.</p><p>Each sound sequence will last about 16 seconds.</p><p>On each trial, you will be given a <u>TARGET SOUND</u>. Your task is to listen very carefully for this sound.</p><p>Every time you hear the <u>TARGET SOUND</u>, you will press the <b>SPACEBAR</b> as quickly and accurately as you can.</p>","0","","","","","","","","","","","","","","","","","","","","","","","","","","","","","","","","",""
"html-button-response","257","1272240","0.0-8.0-1.0","2","0","0pd42c8c956frqp","","8637.199999999255","","<p>It is very important that you make your responses as quickly and accurately as possible.</p><p>To help you make your responses, you will be able to listen to the <u>TARGET SOUND</u> at the beginning of each trial.</p><p>There will be 36 total trials.</p><p><b>Note: This is meant to be a difficult task. We simply want you to try your best.</p>","0","","","","","","","","","","","","","","","","","","","","","","","","","","","","","","","","",""
"html-button-response","258","1273590","0.0-8.0-2.0-0.0","2","0","0pd42c8c956frqp","","1096.8999999985099","","<p>Trial 1 of 36</p>","0","","","","","","","","","","","","","","TA","sounds/syllables/ta_SWS.wav","2400,4200,6000,10500","3","","","","","","","","","","","","","","","",""
"html-keyboard-response","259","1276475","0.0-8.0-2.0-1.0","2","0","0pd42c8c956frqp","","2883.39999999851","","","","80","","","","","","","","","","","","","TA","","2400,4200,6000,10500","3","","","","","","","","","","","","","","","",""
"audio-keyboard-response","260","1276779","0.0-8.0-2.0-2.0-0.0","2","0","0pd42c8c956frqp","","null","","sounds/syllables/ta_SWS.wav","","null","","","","","","","","","","","","","","","","","","","","","","","","","","","","","","","",""
"html-keyboard-response","261","1280329","0.0-8.0-2.0-2.0-1.0","2","0","0pd42c8c956frqp","","3548.89999999851","","<p>To replay the <u>TARGET SOUND</u>, press P.</p> When you are ready to begin, press SPACEBAR.","","80","","","","","","","","","","","","","","","","","","","","","","","","","","","","","","","",""
"audio-keyboard-response","262","1281137","0.0-8.0-2.0-2.1-0.1","2","0","0pd42c8c956frqp","","null","","sounds/syllables/ta_SWS.wav","","null","","","","","","","","","","","","","","","","","","","","","","","","","","","","","","","",""
"html-keyboard-response","263","1281880","0.0-8.0-2.0-2.1-1.1","2","0","0pd42c8c956frqp","","742.8000000007451","","<p>To replay the <u>TARGET SOUND</u>, press P.</p> When you are ready to begin, press SPACEBAR.","","32","","","","","","","","","","","","","","","","","","","","","","","","","","","","","","","",""
"audio-keyboard-response","264","1296834","0.0-8.0-2.0-3.0","2","0","0pd42c8c956frqp","","10832","","sounds/B/TD/TA_06_TD.mp3","","32","","","TD_SUMMARY","","","","","","","","","","TA","","2400,4200,6000,10500","3","2400","4200","6000","10500","null","null","null","331.1000000014901","10831.10000000149","2","","","","","",""
"html-button-response","265","1298110","0.0-8.0-2.0-0.1","2","0","0pd42c8c956frqp","","1272.8999999985099","","<p>Trial 2 of 36</p>","0","","","","","","","","","","","","","","KO","sounds/syllables/ko_SWS.wav","1200,5700,10200,12900","2","","","","","","","","","","","","","","","",""
"html-keyboard-response","266","1299607","0.0-8.0-2.0-1.1","2","0","0pd42c8c956frqp","","1496.199999999255","","","","80","","","","","","","","","","","","","KO","","1200,5700,10200,12900","2","","","","","","","","","","","","","","","",""
"audio-keyboard-response","267","1299912","0.0-8.0-2.0-2.2-0.2","2","0","0pd42c8c956frqp","","null","","sounds/syllables/ko_SWS.wav","","null","","","","","","","","","","","","","","","","","","","","","","","","","","","","","","","",""
"html-keyboard-response","268","1301021","0.0-8.0-2.0-2.2-1.2","2","0","0pd42c8c956frqp","","1108.5999999977648","","<p>To replay the <u>TARGET SOUND</u>, press P.</p> When you are ready to begin, press SPACEBAR.","","32","","","","","","","","","","","","","","","","","","","","","","","","","","","","","","","",""
"audio-keyboard-response","269","1315971","0.0-8.0-2.0-3.1","2","0","0pd42c8c956frqp","","1797","","sounds/B/TD/KO_02_TD.mp3","","32","","","TD_SUMMARY","","","","","","","","","","KO","","1200,5700,10200,12900","2","1200","5700","10200","12900","600.3999999985099","null","null","null","_1800.3999999985099_8295.29999999702","1","","","","","",""
"html-button-response","270","1316907","0.0-8.0-2.0-0.2","2","0","0pd42c8c956frqp","","933.1999999992549","","<p>Trial 3 of 36</p>","0","","","","","","","","","","","","","","GE","sounds/syllables/ge_SWS.wav","3600,6300,9900,11700","1","","","","","","","","","","","","","","","",""
"html-keyboard-response","271","1319125","0.0-8.0-2.0-1.2","2","0","0pd42c8c956frqp","","2217.699999999255","","","","80","","","","","","","","","","","","","GE","","3600,6300,9900,11700","1","","","","","","","","","","","","","","","",""
"audio-keyboard-response","272","1319427","0.0-8.0-2.0-2.3-0.3","2","0","0pd42c8c956frqp","","null","","sounds/syllables/ge_SWS.wav","","null","","","","","","","","","","","","","","","","","","","","","","","","","","","","","","","",""
"html-keyboard-response","273","1321564","0.0-8.0-2.0-2.3-1.3","2","0","0pd42c8c956frqp","","2135.699999999255","","<p>To replay the <u>TARGET SOUND</u>, press P.</p> When you are ready to begin, press SPACEBAR.","","32","","","","","","","","","","","","","","","","","","","","","","","","","","","","","","","",""
"audio-keyboard-response","274","1336515","0.0-8.0-2.0-3.2","2","0","0pd42c8c956frqp","","1088","","sounds/B/TD/GE_09_TD.mp3","","32","","","TD_SUMMARY","","","","","","","","","","GE","","3600,6300,9900,11700","1","3600","6300","9900","11700","null","null","null","null","___1092.0999999977648_2147.699999999255_2316.5_2493","1","","","","","",""
"html-button-response","275","1337208","0.0-8.0-2.0-0.3","2","0","0pd42c8c956frqp","","690.1999999992549","","<p>Trial 4 of 36</p>","0","","","","","","","","","","","","","","FE","sounds/syllables/fe_SWS.wav","1500,3300,6000,8700","3","","","","","","","","","","","","","","","",""
"html-keyboard-response","276","1338567","0.0-8.0-2.0-1.3","2","0","0pd42c8c956frqp","","1358.699999999255","","","","80","","","","","","","","","","","","","FE","","1500,3300,6000,8700","3","","","","","","","","","","","","","","","",""
"audio-keyboard-response","277","1338867","0.0-8.0-2.0-2.4-0.4","2","0","0pd42c8c956frqp","","null","","sounds/syllables/fe_SWS.wav","","null","","","","","","","","","","","","","","","","","","","","","","","","","","","","","","","",""
"html-keyboard-response","278","1339188","0.0-8.0-2.0-2.4-1.4","2","0","0pd42c8c956frqp","","320.4000000022352","","<p>To replay the <u>TARGET SOUND</u>, press P.</p> When you are ready to begin, press SPACEBAR.","","32","","","","","","","","","","","","","","","","","","","","","","","","","","","","","","","",""
"audio-keyboard-response","279","1354136","0.0-8.0-2.0-3.3","2","0","0pd42c8c956frqp","","373","","sounds/B/TD/FE_02_TD.mp3","","32","","","TD_SUMMARY","","","","","","","","","","FE","","1500,3300,6000,8700","3","1500","3300","6000","8700","null","null","null","null","_______372.5999999977648_1473.8999999985099","1","","","","","",""
"html-button-response","280","1356396","0.0-8.0-2.0-0.4","2","0","0pd42c8c956frqp","","2257.599999997765","","<p>Trial 5 of 36</p>","0","","","","","","","","","","","","","","FE","sounds/syllables/fe_SWS.wav","2400,5100,8700,12300","3","","","","","","","","","","","","","","","",""
"html-keyboard-response","281","1358808","0.0-8.0-2.0-1.4","2","0","0pd42c8c956frqp","","2411.10000000149","","","","80","","","","","","","","","","","","","FE","","2400,5100,8700,12300","3","","","","","","","","","","","","","","","",""
"audio-keyboard-response","282","1359112","0.0-8.0-2.0-2.5-0.5","2","0","0pd42c8c956frqp","","null","","sounds/syllables/fe_SWS.wav","","null","","","","","","","","","","","","","","","","","","","","","","","","","","","","","","","",""
"html-keyboard-response","283","1359621","0.0-8.0-2.0-2.5-1.5","2","0","0pd42c8c956frqp","","508.3999999985099","","<p>To replay the <u>TARGET SOUND</u>, press P.</p> When you are ready to begin, press SPACEBAR.","","32","","","","","","","","","","","","","","","","","","","","","","","","","","","","","","","",""
"audio-keyboard-response","284","1374568","0.0-8.0-2.0-3.4","2","0","0pd42c8c956frqp","","2827","","sounds/B/TD/FE_06_TD.mp3","","32","","","TD_SUMMARY","","","","","","","","","","FE","","2400,5100,8700,12300","3","2400","5100","8700","12300","427.3999999985099","null","null","null","_________2827.39999999851","1","","","","","",""
"html-button-response","285","1377057","0.0-8.0-2.0-0.5","2","0","0pd42c8c956frqp","","2486.5","","<p>Trial 6 of 36</p>","0","","","","","","","","","","","","","","KO","sounds/syllables/ko_SWS.wav","2100,3900,5700,12000","2","","","","","","","","","","","","","","","",""
"html-keyboard-response","286","1377959","0.0-8.0-2.0-1.5","2","0","0pd42c8c956frqp","","901.1000000014901","","","","80","","","","","","","","","","","","","KO","","2100,3900,5700,12000","2","","","","","","","","","","","","","","","",""
"audio-keyboard-response","287","1378258","0.0-8.0-2.0-2.6-0.6","2","0","0pd42c8c956frqp","","null","","sounds/syllables/ko_SWS.wav","","null","","","","","","","","","","","","","","","","","","","","","","","","","","","","","","","",""
"html-keyboard-response","288","1380069","0.0-8.0-2.0-2.6-1.6","2","0","0pd42c8c956frqp","","1810.199999999255","","<p>To replay the <u>TARGET SOUND</u>, press P.</p> When you are ready to begin, press SPACEBAR.","","32","","","","","","","","","","","","","","","","","","","","","","","","","","","","","","","",""
"audio-keyboard-response","289","1395021","0.0-8.0-2.0-3.5","2","0","0pd42c8c956frqp","","1099","","sounds/B/TD/KO_07_TD.mp3","","80","","","TD_SUMMARY","","","","","","","","","","KO","","2100,3900,5700,12000","2","2100","3900","5700","12000","1152.300000000745","null","null","null","__________2628.800000000745_3035.5_3252.300000000745_3442.300000000745_3617.39999999851_3818.099999997765_4003.5","1","","","","","",""
"html-button-response","290","1396182","0.0-8.0-2.0-0.6","2","0","0pd42c8c956frqp","","1158.699999999255","","<p>Trial 7 of 36</p>","0","","","","","","","","","","","","","","PU","sounds/syllables/pu_SWS.wav","1800,3600,5400,10800","1","","","","","","","","","","","","","","","",""
"html-keyboard-response","291","1396941","0.0-8.0-2.0-1.6","2","0","0pd42c8c956frqp","","756.6999999992549","","","","80","","","","","","","","","","","","","PU","","1800,3600,5400,10800","1","","","","","","","","","","","","","","","",""
"audio-keyboard-response","292","1397245","0.0-8.0-2.0-2.7-0.7","2","0","0pd42c8c956frqp","","null","","sounds/syllables/pu_SWS.wav","","null","","","","","","","","","","","","","","","","","","","","","","","","","","","","","","","",""
"html-keyboard-response","293","1397377","0.0-8.0-2.0-2.7-1.7","2","0","0pd42c8c956frqp","","132","","<p>To replay the <u>TARGET SOUND</u>, press P.</p> When you are ready to begin, press SPACEBAR.","","32","","","","","","","","","","","","","","","","","","","","","","","","","","","","","","","",""
"audio-keyboard-response","294","1412327","0.0-8.0-2.0-3.6","2","0","0pd42c8c956frqp","","635","","sounds/B/TD/PU_01_TD.mp3","","32","","","TD_SUMMARY","","","","","","","","","","PU","","1800,3600,5400,10800","1","1800","3600","5400","10800","null","null","null","null","_________________637.8999999985099","1","","","","","",""
"html-button-response","295","1413363","0.0-8.0-2.0-0.7","2","0","0pd42c8c956frqp","","1033.5999999977648","","<p>Trial 8 of 36</p>","0","","","","","","","","","","","","","","RE","sounds/syllables/re_SWS.wav","1500,5100,7800,11400","3","","","","","","","","","","","","","","","",""
"html-keyboard-response","296","1414206","0.0-8.0-2.0-1.7","2","0","0pd42c8c956frqp","","842.7000000029802","","","","80","","","","","","","","","","","","","RE","","1500,5100,7800,11400","3","","","","","","","","","","","","","","","",""
"audio-keyboard-response","297","1414508","0.0-8.0-2.0-2.8-0.8","2","0","0pd42c8c956frqp","","null","","sounds/syllables/re_SWS.wav","","null","","","","","","","","","","","","","","","","","","","","","","","","","","","","","","","",""
"html-keyboard-response","298","1415403","0.0-8.0-2.0-2.8-1.8","2","0","0pd42c8c956frqp","","894","","<p>To replay the <u>TARGET SOUND</u>, press P.</p> When you are ready to begin, press SPACEBAR.","","32","","","","","","","","","","","","","","","","","","","","","","","","","","","","","","","",""
"audio-keyboard-response","299","1430353","0.0-8.0-2.0-3.7","2","0","0pd42c8c956frqp","","1125","","sounds/B/TD/RE_06_TD.mp3","","32","","","TD_SUMMARY","","","","","","","","","","RE","","1500,5100,7800,11400","3","1500","5100","7800","11400","null","null","null","null","__________________1129.199999999255","1","","","","","",""
"html-button-response","300","1430847","0.0-8.0-2.0-0.8","2","0","0pd42c8c956frqp","","490.8999999985099","","<p>Trial 9 of 36</p>","0","","","","","","","","","","","","","","FU","sounds/syllables/fu_SWS.wav","4500,7200,9900,12600","1","","","","","","","","","","","","","","","",""
"html-keyboard-response","301","1432266","0.0-8.0-2.0-1.8","2","0","0pd42c8c956frqp","","1418.699999999255","","","","80","","","","","","","","","","","","","FU","","4500,7200,9900,12600","1","","","","","","","","","","","","","","","",""
"audio-keyboard-response","302","1432567","0.0-8.0-2.0-2.9-0.9","2","0","0pd42c8c956frqp","","null","","sounds/syllables/fu_SWS.wav","","null","","","","","","","","","","","","","","","","","","","","","","","","","","","","","","","",""
"html-keyboard-response","303","1433187","0.0-8.0-2.0-2.9-1.9","2","0","0pd42c8c956frqp","","619.3999999985099","","<p>To replay the <u>TARGET SOUND</u>, press P.</p> When you are ready to begin, press SPACEBAR.","","32","","","","","","","","","","","","","","","","","","","","","","","","","","","","","","","",""
"audio-keyboard-response","304","1448134","0.0-8.0-2.0-3.8","2","0","0pd42c8c956frqp","","459","","sounds/B/TD/FU_05_TD.mp3","","32","","","TD_SUMMARY","","","","","","","","","","FU","","4500,7200,9900,12600","1","4500","7200","9900","12600","null","null","null","null","___________________458.30000000074506","1","","","","","",""
"html-button-response","305","1449221","0.0-8.0-2.0-0.9","2","0","0pd42c8c956frqp","","1084.5","","<p>Trial 10 of 36</p>","0","","","","","","","","","","","","","","TI","sounds/syllables/ti_SWS.wav","2700,5400,9000,12600","1","","","","","","","","","","","","","","","",""
"html-keyboard-response","306","1449540","0.0-8.0-2.0-1.9","2","0","0pd42c8c956frqp","","317.69999999925494","","","","80","","","","","","","","","","","","","TI","","2700,5400,9000,12600","1","","","","","","","","","","","","","","","",""
"audio-keyboard-response","307","1449841","0.0-8.0-2.0-2.10-0.10","2","0","0pd42c8c956frqp","","null","","sounds/syllables/ti_SWS.wav","","null","","","","","","","","","","","","","","","","","","","","","","","","","","","","","","","",""
"html-keyboard-response","308","1449944","0.0-8.0-2.0-2.10-1.10","2","0","0pd42c8c956frqp","","102.19999999925494","","<p>To replay the <u>TARGET SOUND</u>, press P.</p> When you are ready to begin, press SPACEBAR.","","32","","","","","","","","","","","","","","","","","","","","","","","","","","","","","","","",""
"audio-keyboard-response","309","1464897","0.0-8.0-2.0-3.9","2","0","0pd42c8c956frqp","","805","","sounds/B/TD/TI_07_TD.mp3","","32","","","TD_SUMMARY","","","","","","","","","","TI","","2700,5400,9000,12600","1","2700","5400","9000","12600","null","null","null","null","____________________808.6000000014901","1","","","","","",""
"html-button-response","310","1466435","0.0-8.0-2.0-0.10","2","0","0pd42c8c956frqp","","1536.4000000022352","","<p>Trial 11 of 36</p>","0","","","","","","","","","","","","","","KO","sounds/syllables/ko_SWS.wav","3900,5700,8400,12900","2","","","","","","","","","","","","","","","",""
"html-keyboard-response","311","1467281","0.0-8.0-2.0-1.10","2","0","0pd42c8c956frqp","","844.8999999985099","","","","80","","","","","","","","","","","","","KO","","3900,5700,8400,12900","2","","","","","","","","","","","","","","","",""
"audio-keyboard-response","312","1467585","0.0-8.0-2.0-2.11-0.11","2","0","0pd42c8c956frqp","","null","","sounds/syllables/ko_SWS.wav","","null","","","","","","","","","","","","","","","","","","","","","","","","","","","","","","","",""
"html-keyboard-response","313","1468032","0.0-8.0-2.0-2.11-1.11","2","0","0pd42c8c956frqp","","447.1000000014901","","<p>To replay the <u>TARGET SOUND</u>, press P.</p> When you are ready to begin, press SPACEBAR.","","32","","","","","","","","","","","","","","","","","","","","","","","","","","","","","","","",""
"audio-keyboard-response","314","1482982","0.0-8.0-2.0-3.10","2","0","0pd42c8c956frqp","","4443","","sounds/B/TD/KO_05_TD.mp3","","32","","","TD_SUMMARY","","","","","","","","","","KO","","3900,5700,8400,12900","2","3900","5700","8400","12900","544.2999999970198","null","null","null","_____________________4444.29999999702","1","","","","","",""
"html-button-response","315","1483945","0.0-8.0-2.0-0.11","2","0","0pd42c8c956frqp","","961.2999999970198","","<p>Trial 12 of 36</p>","0","","","","","","","","","","","","","","TA","sounds/syllables/ta_SWS.wav","4200,6000,7800,13200","3","","","","","","","","","","","","","","","",""
"html-keyboard-response","316","1484744","0.0-8.0-2.0-1.11","2","0","0pd42c8c956frqp","","797.4000000022352","","","","80","","","","","","","","","","","","","TA","","4200,6000,7800,13200","3","","","","","","","","","","","","","","","",""
"audio-keyboard-response","317","1485046","0.0-8.0-2.0-2.12-0.12","2","0","0pd42c8c956frqp","","null","","sounds/syllables/ta_SWS.wav","","null","","","","","","","","","","","","","","","","","","","","","","","","","","","","","","","",""
"html-keyboard-response","318","1485563","0.0-8.0-2.0-2.12-1.12","2","0","0pd42c8c956frqp","","516.1999999992549","","<p>To replay the <u>TARGET SOUND</u>, press P.</p> When you are ready to begin, press SPACEBAR.","","32","","","","","","","","","","","","","","","","","","","","","","","","","","","","","","","",""
"audio-keyboard-response","319","1500512","0.0-8.0-2.0-3.11","2","0","0pd42c8c956frqp","","2811","","sounds/B/TD/TA_10_TD.mp3","","32","","","TD_SUMMARY","","","","","","","","","","TA","","4200,6000,7800,13200","3","4200","6000","7800","13200","null","null","null","null","______________________2811.2000000029802","1","","","","","",""
"html-button-response","320","1503325","0.0-8.0-2.0-0.12","2","0","0pd42c8c956frqp","","2810.5","","<p>Trial 13 of 36</p>","0","","","","","","","","","","","","","","SU","sounds/syllables/su_SWS.wav","3000,4800,6600,10200","2","","","","","","","","","","","","","","","",""
"html-keyboard-response","321","1506160","0.0-8.0-2.0-1.12","2","0","0pd42c8c956frqp","","2834.10000000149","","","","80","","","","","","","","","","","","","SU","","3000,4800,6600,10200","2","","","","","","","","","","","","","","","",""
"audio-keyboard-response","322","1506464","0.0-8.0-2.0-2.13-0.13","2","0","0pd42c8c956frqp","","null","","sounds/syllables/su_SWS.wav","","null","","","","","","","","","","","","","","","","","","","","","","","","","","","","","","","",""
"html-keyboard-response","323","1507332","0.0-8.0-2.0-2.13-1.13","2","0","0pd42c8c956frqp","","867.1000000014901","","<p>To replay the <u>TARGET SOUND</u>, press P.</p> When you are ready to begin, press SPACEBAR.","","32","","","","","","","","","","","","","","","","","","","","","","","","","","","","","","","",""
"audio-keyboard-response","324","1522282","0.0-8.0-2.0-3.12","2","0","0pd42c8c956frqp","","4389","","sounds/B/TD/SU_05_TD.mp3","","32","","","TD_SUMMARY","","","","","","","","","","SU","","3000,4800,6600,10200","2","3000","4800","6600","10200","null","null","null","null","_______________________4392.699999999255","1","","","","","",""
"html-button-response","325","1523629","0.0-8.0-2.0-0.13","2","0","0pd42c8c956frqp","","1344.300000000745","","<p>Trial 14 of 36</p>","0","","","","","","","","","","","","","","FU","sounds/syllables/fu_SWS.wav","900,4500,9000,10800","1","","","","","","","","","","","","","","","",""
"html-keyboard-response","326","1526796","0.0-8.0-2.0-1.13","2","0","0pd42c8c956frqp","","3166","","","","80","","","","","","","","","","","","","FU","","900,4500,9000,10800","1","","","","","","","","","","","","","","","",""
"audio-keyboard-response","327","1527098","0.0-8.0-2.0-2.14-0.14","2","0","0pd42c8c956frqp","","null","","sounds/syllables/fu_SWS.wav","","null","","","","","","","","","","","","","","","","","","","","","","","","","","","","","","","",""
"html-keyboard-response","328","1527430","0.0-8.0-2.0-2.14-1.14","2","0","0pd42c8c956frqp","","330.70000000298023","","<p>To replay the <u>TARGET SOUND</u>, press P.</p> When you are ready to begin, press SPACEBAR.","","32","","","","","","","","","","","","","","","","","","","","","","","","","","","","","","","",""
"audio-keyboard-response","329","1542383","0.0-8.0-2.0-3.13","2","0","0pd42c8c956frqp","","1637","","sounds/B/TD/FU_02_TD.mp3","","32","","","TD_SUMMARY","","","","","","","","","","FU","","900,4500,9000,10800","1","900","4500","9000","10800","734","null","null","null","________________________1634","1","","","","","",""
"html-button-response","330","1543428","0.0-8.0-2.0-0.14","2","0","0pd42c8c956frqp","","1042.3999999985099","","<p>Trial 15 of 36</p>","0","","","","","","","","","","","","","","ME","sounds/syllables/me_SWS.wav","1200,5700,7500,9300","2","","","","","","","","","","","","","","","",""
"html-keyboard-response","331","1544700","0.0-8.0-2.0-1.14","2","0","0pd42c8c956frqp","","1271.300000000745","","","","80","","","","","","","","","","","","","ME","","1200,5700,7500,9300","2","","","","","","","","","","","","","","","",""
"audio-keyboard-response","332","1545002","0.0-8.0-2.0-2.15-0.15","2","0","0pd42c8c956frqp","","null","","sounds/syllables/me_SWS.wav","","null","","","","","","","","","","","","","","","","","","","","","","","","","","","","","","","",""
"html-keyboard-response","333","1545632","0.0-8.0-2.0-2.15-1.15","2","0","0pd42c8c956frqp","","629.6999999992549","","<p>To replay the <u>TARGET SOUND</u>, press P.</p> When you are ready to begin, press SPACEBAR.","","32","","","","","","","","","","","","","","","","","","","","","","","","","","","","","","","",""
"audio-keyboard-response","334","1560580","0.0-8.0-2.0-3.14","2","0","0pd42c8c956frqp","","1675","","sounds/B/TD/ME_07_TD.mp3","","32","","","TD_SUMMARY","","","","","","","","","","ME","","1200,5700,7500,9300","2","1200","5700","7500","9300","475.19999999925494","null","null","null","_________________________1675.199999999255","1","","","","","",""
"html-button-response","335","1561717","0.0-8.0-2.0-0.15","2","0","0pd42c8c956frqp","","1134.5999999977648","","<p>Trial 16 of 36</p>","0","","","","","","","","","","","","","","TI","sounds/syllables/ti_SWS.wav","900,2700,5400,10800","1","","","","","","","","","","","","","","","",""
"html-keyboard-response","336","1563214","0.0-8.0-2.0-1.15","2","0","0pd42c8c956frqp","","1495.4000000022352","","","","80","","","","","","","","","","","","","TI","","900,2700,5400,10800","1","","","","","","","","","","","","","","","",""
"audio-keyboard-response","337","1563513","0.0-8.0-2.0-2.16-0.16","2","0","0pd42c8c956frqp","","null","","sounds/syllables/ti_SWS.wav","","null","","","","","","","","","","","","","","","","","","","","","","","","","","","","","","","",""
"html-keyboard-response","338","1564151","0.0-8.0-2.0-2.16-1.16","2","0","0pd42c8c956frqp","","637.1999999992549","","<p>To replay the <u>TARGET SOUND</u>, press P.</p> When you are ready to begin, press SPACEBAR.","","32","","","","","","","","","","","","","","","","","","","","","","","","","","","","","","","",""
"audio-keyboard-response","339","1579103","0.0-8.0-2.0-3.15","2","0","0pd42c8c956frqp","","1376","","sounds/B/TD/TI_05_TD.mp3","","32","","","TD_SUMMARY","","","","","","","","","","TI","","900,2700,5400,10800","1","900","2700","5400","10800","480.19999999925494","null","null","null","__________________________1380.199999999255","1","","","","","",""
"html-button-response","340","1580263","0.0-8.0-2.0-0.16","2","0","0pd42c8c956frqp","","1157.8999999985099","","<p>Trial 17 of 36</p>","0","","","","","","","","","","","","","","RE","sounds/syllables/re_SWS.wav","6000,7800,9600,13200","3","","","","","","","","","","","","","","","",""
"html-keyboard-response","341","1581969","0.0-8.0-2.0-1.16","2","0","0pd42c8c956frqp","","1705","","","","80","","","","","","","","","","","","","RE","","6000,7800,9600,13200","3","","","","","","","","","","","","","","","",""
