"trial_type","trial_index","time_elapsed","internal_node_id","counterbalance","lang_instruct","ParticipantID","view_history","rt","url","stimulus","button_pressed","key_press","correctRESP","correct","designation","location","correctanswer","timeouts","pause_rt01","pause_rt02","train_file","numKeyPress","sound","fam_type","SYLLABLE","EXEMPLAR","TD_LOCS","TD_TYPE","TDLOC_01","TDLOC_02","TDLOC_03","TDLOC_04","TD_RT_01","TD_RT_02","TD_RT_03","TD_RT_04","TD_SUBJ_RTs","number_of_plays","responses","slider_start","response","question_order","syllable","syllable_type"
"pavlovia","0","16","0.0-0.0","3","0","l82do2j8d0wvpgk","","","","","","","","","","","","","","","","","","","","","","","","","","","","","","","","","","","","","",""
"instructions","1","53509","0.0-1.0","3","0","l82do2j8d0wvpgk","[{""page_index"":0,""viewing_time"":33142.63999997638},{""page_index"":1,""viewing_time"":20335.880000027828}]","53493.29500005115","","","","","","","","","","","","","","","","","","","","","","","","","","","","","","","","","","","",""
"external-html","2","67788","0.0-2.0","3","0","l82do2j8d0wvpgk","","14130.78999996651","consent/consent.html","","","","","","","","","","","","","","","","","","","","","","","","","","","","","","","","","","",""
"html-button-response","3","94031","0.0-3.0-0.0-0.0","3","0","l82do2j8d0wvpgk","","26235.854999977164","","<p>Welcome to the study. You will first complete a short volume calibration and headphone check.</p><p>Please make sure you are in a quiet listening environment, that you are wearing headphones, and that your computer's volume is turned on.<p></p>","0","","","","","","","","","","","","","","","","","","","","","","","","","","","","","","","","",""
"html-button-response","4","102930","0.0-3.0-0.0-1.0","3","0","l82do2j8d0wvpgk","","8640.124999918044","","<p>The volume calibration will be first.</p><p>You will hear a thirty-second noise. Please adjust your computer's volume so that this noise is being presented at a comfortable level.<p></p>","0","","","","","","","","","","","","","","","","","","","","","","","","","","","","","","","","",""
"audio-button-response","5","115540","0.0-3.0-0.0-2.0","3","0","l82do2j8d0wvpgk","","12107","","audCalib/volumetest.mp3","0","","","","","","","","","","","","","","","","","","","","","","","","","","","","","","","","",""
"html-button-response","6","129097","0.0-3.0-1.0-0.0","3","0","l82do2j8d0wvpgk","","13555.58500008192","","<p>You will now complete a short headphone check.</p><p>On each trial, you will hear three tones. One of these tones will be quieter than the others. Your task is to identify whether the quiet tone occured first, second, or third.</p><p>There are six trials in total.<p></p>","0","","","","","","","","","","","","","","","","","","","","","","","","","","","","","","","","",""
"html-keyboard-response","7","129859","0.0-3.0-1.0-1.0-0.0","3","0","l82do2j8d0wvpgk","","null","","<div style=""font-size:60px;"">+</div>","","null","","","","","","","","","","","","","","","","","","","","","","","","","","","","","","","",""
"audio-button-response","8","138447","0.0-3.0-1.0-1.0-1.0","3","0","l82do2j8d0wvpgk","","8571","","audCalib/t2_2.mp3","1","","1","1","headphone-test","","","","","","","","","","","","","","","","","","","","","","","","","","","","",""
"html-keyboard-response","9","139207","0.0-3.0-1.0-1.0-0.1","3","0","l82do2j8d0wvpgk","","null","","<div style=""font-size:60px;"">+</div>","","null","","","","","","","","","","","","","","","","","","","","","","","","","","","","","","","",""
"audio-button-response","10","144193","0.0-3.0-1.0-1.0-1.1","3","0","l82do2j8d0wvpgk","","4987","","audCalib/t3_2.mp3","2","","2","1","headphone-test","","","","","","","","","","","","","","","","","","","","","","","","","","","","",""
"html-keyboard-response","11","144955","0.0-3.0-1.0-1.0-0.2","3","0","l82do2j8d0wvpgk","","null","","<div style=""font-size:60px;"">+</div>","","null","","","","","","","","","","","","","","","","","","","","","","","","","","","","","","","",""
"audio-button-response","12","149344","0.0-3.0-1.0-1.0-1.2","3","0","l82do2j8d0wvpgk","","4389","","audCalib/t3_1.mp3","2","","2","1","headphone-test","","","","","","","","","","","","","","","","","","","","","","","","","","","","",""
"html-keyboard-response","13","150102","0.0-3.0-1.0-1.0-0.3","3","0","l82do2j8d0wvpgk","","null","","<div style=""font-size:60px;"">+</div>","","null","","","","","","","","","","","","","","","","","","","","","","","","","","","","","","","",""
"audio-button-response","14","154526","0.0-3.0-1.0-1.0-1.3","3","0","l82do2j8d0wvpgk","","4416","","audCalib/t1_2.mp3","0","","0","1","headphone-test","","","","","","","","","","","","","","","","","","","","","","","","","","","","",""
"html-keyboard-response","15","155285","0.0-3.0-1.0-1.0-0.4","3","0","l82do2j8d0wvpgk","","null","","<div style=""font-size:60px;"">+</div>","","null","","","","","","","","","","","","","","","","","","","","","","","","","","","","","","","",""
"audio-button-response","16","159710","0.0-3.0-1.0-1.0-1.4","3","0","l82do2j8d0wvpgk","","4421","","audCalib/t2_1.mp3","1","","1","1","headphone-test","","","","","","","","","","","","","","","","","","","","","","","","","","","","",""
"html-keyboard-response","17","160470","0.0-3.0-1.0-1.0-0.5","3","0","l82do2j8d0wvpgk","","null","","<div style=""font-size:60px;"">+</div>","","null","","","","","","","","","","","","","","","","","","","","","","","","","","","","","","","",""
"audio-button-response","18","164895","0.0-3.0-1.0-1.0-1.5","3","0","l82do2j8d0wvpgk","","4421","","audCalib/t1_1.mp3","0","","0","1","headphone-test","","","","","","","","","","","","","","","","","","","","","","","","","","","","",""
"html-button-response","19","168008","0.0-3.0-2.0","3","0","l82do2j8d0wvpgk","","2855.1500000758097","","<p>The volume calibration and headphone check are now complete.</p>","0","","","","","","","","","","","","","","","","","","","","","","","","","","","","","","","","",""
"instructions","20","225935","0.0-4.0-0.0","3","0","l82do2j8d0wvpgk","[{""page_index"":0,""viewing_time"":2117.755000013858},{""page_index"":1,""viewing_time"":53040.960000013},{""page_index"":2,""viewing_time"":2766.8650000123307}]","57927.825000020675","","","","","","","","","","","","","","","","","","","","","","","","","","","","","","","","","","","",""
"audio-keyboard-response","21","226488","0.0-4.0-1.0-0.0","3","0","l82do2j8d0wvpgk","","null","","sounds/induction/left_rev/fe_SWS.wav","","null","","","","","","","","","","","","","","","","","","","","","","","","","","","","","","","",""
"html-button-response","22","232894","0.0-4.0-1.0-1.0","3","0","l82do2j8d0wvpgk","","6404.824999975972","","Was the sound coming from the left or the right?","0","","","1","INDUCTION-JUDGMENT","left","0","","","","","","","","","","","","","","","","","","","","","","","","","","",""
"html-keyboard-response","23","233900","0.0-4.0-1.0-2.0","3","0","l82do2j8d0wvpgk","","null","","<p style=""color:#054d00;""><b>Correct!</b></p>","","null","","","","","","","","","","","","","","","","","","","","","","","","","","","","","","","",""
"audio-keyboard-response","24","234711","0.0-4.0-1.0-0.1","3","0","l82do2j8d0wvpgk","","null","","sounds/induction/right_rev/pu_SWS.wav","","null","","","","","","","","","","","","","","","","","","","","","","","","","","","","","","","",""
"html-button-response","25","236045","0.0-4.0-1.0-1.1","3","0","l82do2j8d0wvpgk","","1331.5599999623373","","Was the sound coming from the left or the right?","1","","","1","INDUCTION-JUDGMENT","right","1","","","","","","","","","","","","","","","","","","","","","","","","","","",""
"html-keyboard-response","26","237052","0.0-4.0-1.0-2.1","3","0","l82do2j8d0wvpgk","","null","","<p style=""color:#054d00;""><b>Correct!</b></p>","","null","","","","","","","","","","","","","","","","","","","","","","","","","","","","","","","",""
"audio-keyboard-response","27","237858","0.0-4.0-1.0-0.2","3","0","l82do2j8d0wvpgk","","null","","sounds/induction/right_rev/ko_SWS.wav","","null","","","","","","","","","","","","","","","","","","","","","","","","","","","","","","","",""
"html-button-response","28","239812","0.0-4.0-1.0-1.2","3","0","l82do2j8d0wvpgk","","1796.6050000395626","","Was the sound coming from the left or the right?","1","","","1","INDUCTION-JUDGMENT","right","1","","","","","","","","","","","","","","","","","","","","","","","","","","",""
"html-keyboard-response","29","240829","0.0-4.0-1.0-2.2","3","0","l82do2j8d0wvpgk","","null","","<p style=""color:#054d00;""><b>Correct!</b></p>","","null","","","","","","","","","","","","","","","","","","","","","","","","","","","","","","","",""
"audio-keyboard-response","30","241639","0.0-4.0-1.0-0.3","3","0","l82do2j8d0wvpgk","","null","","sounds/induction/left_rev/ni_SWS.wav","","null","","","","","","","","","","","","","","","","","","","","","","","","","","","","","","","",""
"html-button-response","31","244507","0.0-4.0-1.0-1.3","3","0","l82do2j8d0wvpgk","","2866.1149999825284","","Was the sound coming from the left or the right?","0","","","1","INDUCTION-JUDGMENT","left","0","","","","","","","","","","","","","","","","","","","","","","","","","","",""
"html-keyboard-response","32","245509","0.0-4.0-1.0-2.3","3","0","l82do2j8d0wvpgk","","null","","<p style=""color:#054d00;""><b>Correct!</b></p>","","null","","","","","","","","","","","","","","","","","","","","","","","","","","","","","","","",""
"audio-keyboard-response","33","246312","0.0-4.0-1.0-0.4","3","0","l82do2j8d0wvpgk","","null","","sounds/induction/left_rev/me_SWS.wav","","null","","","","","","","","","","","","","","","","","","","","","","","","","","","","","","","",""
"html-button-response","34","247907","0.0-4.0-1.0-1.4","3","0","l82do2j8d0wvpgk","","1592.5800000550225","","Was the sound coming from the left or the right?","1","","","0","INDUCTION-JUDGMENT","left","0","","","","","","","","","","","","","","","","","","","","","","","","","","",""
"html-keyboard-response","35","248912","0.0-4.0-1.0-2.4","3","0","l82do2j8d0wvpgk","","null","","<p style=""color:#690000;""><b>Incorrect!</b></p>","","null","","","","","","","","","","","","","","","","","","","","","","","","","","","","","","","",""
"audio-keyboard-response","36","249719","0.0-4.0-1.0-0.5","3","0","l82do2j8d0wvpgk","","null","","sounds/induction/right_rev/fu_SWS.wav","","null","","","","","","","","","","","","","","","","","","","","","","","","","","","","","","","",""
"html-button-response","37","251003","0.0-4.0-1.0-1.5","3","0","l82do2j8d0wvpgk","","1282.1049999911338","","Was the sound coming from the left or the right?","1","","","1","INDUCTION-JUDGMENT","right","1","","","","","","","","","","","","","","","","","","","","","","","","","","",""
"html-keyboard-response","38","252009","0.0-4.0-1.0-2.5","3","0","l82do2j8d0wvpgk","","null","","<p style=""color:#054d00;""><b>Correct!</b></p>","","null","","","","","","","","","","","","","","","","","","","","","","","","","","","","","","","",""
"audio-keyboard-response","39","252813","0.0-4.0-1.0-0.6","3","0","l82do2j8d0wvpgk","","null","","sounds/induction/right_rev/fe_SWS.wav","","null","","","","","","","","","","","","","","","","","","","","","","","","","","","","","","","",""
"html-button-response","40","254447","0.0-4.0-1.0-1.6","3","0","l82do2j8d0wvpgk","","1633.0699999816716","","Was the sound coming from the left or the right?","0","","","0","INDUCTION-JUDGMENT","right","1","","","","","","","","","","","","","","","","","","","","","","","","","","",""
"html-keyboard-response","41","255454","0.0-4.0-1.0-2.6","3","0","l82do2j8d0wvpgk","","null","","<p style=""color:#690000;""><b>Incorrect!</b></p>","","null","","","","","","","","","","","","","","","","","","","","","","","","","","","","","","","",""
"audio-keyboard-response","42","256263","0.0-4.0-1.0-0.7","3","0","l82do2j8d0wvpgk","","null","","sounds/induction/right_rev/fe_SWS.wav","","null","","","","","","","","","","","","","","","","","","","","","","","","","","","","","","","",""
"html-button-response","43","257296","0.0-4.0-1.0-1.7","3","0","l82do2j8d0wvpgk","","1031.554999994114","","Was the sound coming from the left or the right?","1","","","1","INDUCTION-JUDGMENT","right","1","","","","","","","","","","","","","","","","","","","","","","","","","","",""
"html-keyboard-response","44","258302","0.0-4.0-1.0-2.7","3","0","l82do2j8d0wvpgk","","null","","<p style=""color:#054d00;""><b>Correct!</b></p>","","null","","","","","","","","","","","","","","","","","","","","","","","","","","","","","","","",""
"audio-keyboard-response","45","259111","0.0-4.0-1.0-0.8","3","0","l82do2j8d0wvpgk","","null","","sounds/induction/left_rev/fe_SWS.wav","","null","","","","","","","","","","","","","","","","","","","","","","","","","","","","","","","",""
"html-button-response","46","259833","0.0-4.0-1.0-1.8","3","0","l82do2j8d0wvpgk","","719.5599999977276","","Was the sound coming from the left or the right?","1","","","0","INDUCTION-JUDGMENT","left","0","","","","","","","","","","","","","","","","","","","","","","","","","","",""
"html-keyboard-response","47","260840","0.0-4.0-1.0-2.8","3","0","l82do2j8d0wvpgk","","null","","<p style=""color:#690000;""><b>Incorrect!</b></p>","","null","","","","","","","","","","","","","","","","","","","","","","","","","","","","","","","",""
"audio-keyboard-response","48","261650","0.0-4.0-1.0-0.9","3","0","l82do2j8d0wvpgk","","null","","sounds/induction/left_rev/ni_SWS.wav","","null","","","","","","","","","","","","","","","","","","","","","","","","","","","","","","","",""
"html-button-response","49","262623","0.0-4.0-1.0-1.9","3","0","l82do2j8d0wvpgk","","970.7750000525266","","Was the sound coming from the left or the right?","0","","","1","INDUCTION-JUDGMENT","left","0","","","","","","","","","","","","","","","","","","","","","","","","","","",""
"html-keyboard-response","50","263629","0.0-4.0-1.0-2.9","3","0","l82do2j8d0wvpgk","","null","","<p style=""color:#054d00;""><b>Correct!</b></p>","","null","","","","","","","","","","","","","","","","","","","","","","","","","","","","","","","",""
"audio-keyboard-response","51","264439","0.0-4.0-1.0-0.10","3","0","l82do2j8d0wvpgk","","null","","sounds/induction/left_rev/fu_SWS.wav","","null","","","","","","","","","","","","","","","","","","","","","","","","","","","","","","","",""
"html-button-response","52","265659","0.0-4.0-1.0-1.10","3","0","l82do2j8d0wvpgk","","1217.0250000199303","","Was the sound coming from the left or the right?","1","","","0","INDUCTION-JUDGMENT","left","0","","","","","","","","","","","","","","","","","","","","","","","","","","",""
"html-keyboard-response","53","266666","0.0-4.0-1.0-2.10","3","0","l82do2j8d0wvpgk","","null","","<p style=""color:#690000;""><b>Incorrect!</b></p>","","null","","","","","","","","","","","","","","","","","","","","","","","","","","","","","","","",""
"audio-keyboard-response","54","267473","0.0-4.0-1.0-0.11","3","0","l82do2j8d0wvpgk","","null","","sounds/induction/left_rev/pu_SWS.wav","","null","","","","","","","","","","","","","","","","","","","","","","","","","","","","","","","",""
"html-button-response","55","268419","0.0-4.0-1.0-1.11","3","0","l82do2j8d0wvpgk","","944.0450000111014","","Was the sound coming from the left or the right?","1","","","0","INDUCTION-JUDGMENT","left","0","","","","","","","","","","","","","","","","","","","","","","","","","","",""
"html-keyboard-response","56","269422","0.0-4.0-1.0-2.11","3","0","l82do2j8d0wvpgk","","null","","<p style=""color:#690000;""><b>Incorrect!</b></p>","","null","","","","","","","","","","","","","","","","","","","","","","","","","","","","","","","",""
"audio-keyboard-response","57","270225","0.0-4.0-1.0-0.12","3","0","l82do2j8d0wvpgk","","null","","sounds/induction/right_rev/fu_SWS.wav","","null","","","","","","","","","","","","","","","","","","","","","","","","","","","","","","","",""
"html-button-response","58","271000","0.0-4.0-1.0-1.12","3","0","l82do2j8d0wvpgk","","774.3499999633059","","Was the sound coming from the left or the right?","1","","","1","INDUCTION-JUDGMENT","right","1","","","","","","","","","","","","","","","","","","","","","","","","","","",""
"html-keyboard-response","59","272004","0.0-4.0-1.0-2.12","3","0","l82do2j8d0wvpgk","","null","","<p style=""color:#054d00;""><b>Correct!</b></p>","","null","","","","","","","","","","","","","","","","","","","","","","","","","","","","","","","",""
"audio-keyboard-response","60","272812","0.0-4.0-1.0-0.13","3","0","l82do2j8d0wvpgk","","null","","sounds/induction/right_rev/ru_SWS.wav","","null","","","","","","","","","","","","","","","","","","","","","","","","","","","","","","","",""
"html-button-response","61","273867","0.0-4.0-1.0-1.13","3","0","l82do2j8d0wvpgk","","1053.444999968633","","Was the sound coming from the left or the right?","0","","","0","INDUCTION-JUDGMENT","right","1","","","","","","","","","","","","","","","","","","","","","","","","","","",""
"html-keyboard-response","62","274870","0.0-4.0-1.0-2.13","3","0","l82do2j8d0wvpgk","","null","","<p style=""color:#690000;""><b>Incorrect!</b></p>","","null","","","","","","","","","","","","","","","","","","","","","","","","","","","","","","","",""
"audio-keyboard-response","63","275670","0.0-4.0-1.0-0.14","3","0","l82do2j8d0wvpgk","","null","","sounds/induction/right_rev/ge_SWS.wav","","null","","","","","","","","","","","","","","","","","","","","","","","","","","","","","","","",""
"html-button-response","64","276664","0.0-4.0-1.0-1.14","3","0","l82do2j8d0wvpgk","","992.3999999882653","","Was the sound coming from the left or the right?","1","","","1","INDUCTION-JUDGMENT","right","1","","","","","","","","","","","","","","","","","","","","","","","","","","",""
"html-keyboard-response","65","277670","0.0-4.0-1.0-2.14","3","0","l82do2j8d0wvpgk","","null","","<p style=""color:#054d00;""><b>Correct!</b></p>","","null","","","","","","","","","","","","","","","","","","","","","","","","","","","","","","","",""
"audio-keyboard-response","66","278476","0.0-4.0-1.0-0.15","3","0","l82do2j8d0wvpgk","","null","","sounds/induction/left_rev/re_SWS.wav","","null","","","","","","","","","","","","","","","","","","","","","","","","","","","","","","","",""
"html-button-response","67","279502","0.0-4.0-1.0-1.15","3","0","l82do2j8d0wvpgk","","1024.3300000438467","","Was the sound coming from the left or the right?","1","","","0","INDUCTION-JUDGMENT","left","0","","","","","","","","","","","","","","","","","","","","","","","","","","",""
"html-keyboard-response","68","280504","0.0-4.0-1.0-2.15","3","0","l82do2j8d0wvpgk","","null","","<p style=""color:#690000;""><b>Incorrect!</b></p>","","null","","","","","","","","","","","","","","","","","","","","","","","","","","","","","","","",""
"audio-keyboard-response","69","281426","0.0-4.0-1.0-0.16","3","0","l82do2j8d0wvpgk","","null","","sounds/induction/left_rev/ru_SWS.wav","","null","","","","","","","","","","","","","","","","","","","","","","","","","","","","","","","",""
"html-button-response","70","282221","0.0-4.0-1.0-1.16","3","0","l82do2j8d0wvpgk","","789.0100000659004","","Was the sound coming from the left or the right?","1","","","0","INDUCTION-JUDGMENT","left","0","","","","","","","","","","","","","","","","","","","","","","","","","","",""
"html-keyboard-response","71","283225","0.0-4.0-1.0-2.16","3","0","l82do2j8d0wvpgk","","null","","<p style=""color:#690000;""><b>Incorrect!</b></p>","","null","","","","","","","","","","","","","","","","","","","","","","","","","","","","","","","",""
"audio-keyboard-response","72","284033","0.0-4.0-1.0-0.17","3","0","l82do2j8d0wvpgk","","null","","sounds/induction/left_rev/su_SWS.wav","","null","","","","","","","","","","","","","","","","","","","","","","","","","","","","","","","",""
"html-button-response","73","293507","0.0-4.0-1.0-1.17","3","0","l82do2j8d0wvpgk","","9473.424999974668","","Was the sound coming from the left or the right?","1","","","0","INDUCTION-JUDGMENT","left","0","","","","","","","","","","","","","","","","","","","","","","","","","","",""
"html-keyboard-response","74","294509","0.0-4.0-1.0-2.17","3","0","l82do2j8d0wvpgk","","null","","<p style=""color:#690000;""><b>Incorrect!</b></p>","","null","","","","","","","","","","","","","","","","","","","","","","","","","","","","","","","",""
"audio-keyboard-response","75","295318","0.0-4.0-1.0-0.18","3","0","l82do2j8d0wvpgk","","null","","sounds/induction/right_rev/su_SWS.wav","","null","","","","","","","","","","","","","","","","","","","","","","","","","","","","","","","",""
"html-button-response","76","296277","0.0-4.0-1.0-1.18","3","0","l82do2j8d0wvpgk","","957.9900000244379","","Was the sound coming from the left or the right?","0","","","0","INDUCTION-JUDGMENT","right","1","","","","","","","","","","","","","","","","","","","","","","","","","","",""
"html-keyboard-response","77","297283","0.0-4.0-1.0-2.18","3","0","l82do2j8d0wvpgk","","null","","<p style=""color:#690000;""><b>Incorrect!</b></p>","","null","","","","","","","","","","","","","","","","","","","","","","","","","","","","","","","",""
"audio-keyboard-response","78","298086","0.0-4.0-1.0-0.19","3","0","l82do2j8d0wvpgk","","null","","sounds/induction/left_rev/ti_SWS.wav","","null","","","","","","","","","","","","","","","","","","","","","","","","","","","","","","","",""
"html-button-response","79","299052","0.0-4.0-1.0-1.19","3","0","l82do2j8d0wvpgk","","965.5849999981001","","Was the sound coming from the left or the right?","1","","","0","INDUCTION-JUDGMENT","left","0","","","","","","","","","","","","","","","","","","","","","","","","","","",""
"html-keyboard-response","80","300054","0.0-4.0-1.0-2.19","3","0","l82do2j8d0wvpgk","","null","","<p style=""color:#690000;""><b>Incorrect!</b></p>","","null","","","","","","","","","","","","","","","","","","","","","","","","","","","","","","","",""
"audio-keyboard-response","81","300859","0.0-4.0-1.0-0.20","3","0","l82do2j8d0wvpgk","","null","","sounds/induction/left_rev/ta_SWS.wav","","null","","","","","","","","","","","","","","","","","","","","","","","","","","","","","","","",""
"html-button-response","82","301845","0.0-4.0-1.0-1.20","3","0","l82do2j8d0wvpgk","","980.9899999527261","","Was the sound coming from the left or the right?","0","","","1","INDUCTION-JUDGMENT","left","0","","","","","","","","","","","","","","","","","","","","","","","","","","",""
"html-keyboard-response","83","302847","0.0-4.0-1.0-2.20","3","0","l82do2j8d0wvpgk","","null","","<p style=""color:#054d00;""><b>Correct!</b></p>","","null","","","","","","","","","","","","","","","","","","","","","","","","","","","","","","","",""
"audio-keyboard-response","84","303654","0.0-4.0-1.0-0.21","3","0","l82do2j8d0wvpgk","","null","","sounds/induction/right_rev/ti_SWS.wav","","null","","","","","","","","","","","","","","","","","","","","","","","","","","","","","","","",""
"html-button-response","85","304348","0.0-4.0-1.0-1.21","3","0","l82do2j8d0wvpgk","","692.9249999811873","","Was the sound coming from the left or the right?","0","","","0","INDUCTION-JUDGMENT","right","1","","","","","","","","","","","","","","","","","","","","","","","","","","",""
"html-keyboard-response","86","305355","0.0-4.0-1.0-2.21","3","0","l82do2j8d0wvpgk","","null","","<p style=""color:#690000;""><b>Incorrect!</b></p>","","null","","","","","","","","","","","","","","","","","","","","","","","","","","","","","","","",""
"audio-keyboard-response","87","306161","0.0-4.0-1.0-0.22","3","0","l82do2j8d0wvpgk","","null","","sounds/induction/right_rev/ni_SWS.wav","","null","","","","","","","","","","","","","","","","","","","","","","","","","","","","","","","",""
"html-button-response","88","306948","0.0-4.0-1.0-1.22","3","0","l82do2j8d0wvpgk","","785.1699999300763","","Was the sound coming from the left or the right?","0","","","0","INDUCTION-JUDGMENT","right","1","","","","","","","","","","","","","","","","","","","","","","","","","","",""
"html-keyboard-response","89","307955","0.0-4.0-1.0-2.22","3","0","l82do2j8d0wvpgk","","null","","<p style=""color:#690000;""><b>Incorrect!</b></p>","","null","","","","","","","","","","","","","","","","","","","","","","","","","","","","","","","",""
"audio-keyboard-response","90","308763","0.0-4.0-1.0-0.23","3","0","l82do2j8d0wvpgk","","null","","sounds/induction/right_rev/ta_SWS.wav","","null","","","","","","","","","","","","","","","","","","","","","","","","","","","","","","","",""
"html-button-response","91","309531","0.0-4.0-1.0-1.23","3","0","l82do2j8d0wvpgk","","765.3249999275431","","Was the sound coming from the left or the right?","0","","","0","INDUCTION-JUDGMENT","right","1","","","","","","","","","","","","","","","","","","","","","","","","","","",""
"html-keyboard-response","92","310538","0.0-4.0-1.0-2.23","3","0","l82do2j8d0wvpgk","","null","","<p style=""color:#690000;""><b>Incorrect!</b></p>","","null","","","","","","","","","","","","","","","","","","","","","","","","","","","","","","","",""
"audio-keyboard-response","93","311344","0.0-4.0-1.0-0.24","3","0","l82do2j8d0wvpgk","","null","","sounds/induction/left_rev/re_SWS.wav","","null","","","","","","","","","","","","","","","","","","","","","","","","","","","","","","","",""
"html-button-response","94","311842","0.0-4.0-1.0-1.24","3","0","l82do2j8d0wvpgk","","496.55499996151775","","Was the sound coming from the left or the right?","1","","","0","INDUCTION-JUDGMENT","left","0","","","","","","","","","","","","","","","","","","","","","","","","","","",""
"html-keyboard-response","95","312848","0.0-4.0-1.0-2.24","3","0","l82do2j8d0wvpgk","","null","","<p style=""color:#690000;""><b>Incorrect!</b></p>","","null","","","","","","","","","","","","","","","","","","","","","","","","","","","","","","","",""
"audio-keyboard-response","96","313654","0.0-4.0-1.0-0.25","3","0","l82do2j8d0wvpgk","","null","","sounds/induction/right_rev/ti_SWS.wav","","null","","","","","","","","","","","","","","","","","","","","","","","","","","","","","","","",""
"html-button-response","97","314632","0.0-4.0-1.0-1.25","3","0","l82do2j8d0wvpgk","","977.1049999399111","","Was the sound coming from the left or the right?","1","","","1","INDUCTION-JUDGMENT","right","1","","","","","","","","","","","","","","","","","","","","","","","","","","",""
"html-keyboard-response","98","315637","0.0-4.0-1.0-2.25","3","0","l82do2j8d0wvpgk","","null","","<p style=""color:#054d00;""><b>Correct!</b></p>","","null","","","","","","","","","","","","","","","","","","","","","","","","","","","","","","","",""
"audio-keyboard-response","99","316443","0.0-4.0-1.0-0.26","3","0","l82do2j8d0wvpgk","","null","","sounds/induction/left_rev/pu_SWS.wav","","null","","","","","","","","","","","","","","","","","","","","","","","","","","","","","","","",""
"html-button-response","100","317300","0.0-4.0-1.0-1.26","3","0","l82do2j8d0wvpgk","","855.820000055246","","Was the sound coming from the left or the right?","0","","","1","INDUCTION-JUDGMENT","left","0","","","","","","","","","","","","","","","","","","","","","","","","","","",""
"html-keyboard-response","101","318308","0.0-4.0-1.0-2.26","3","0","l82do2j8d0wvpgk","","null","","<p style=""color:#054d00;""><b>Correct!</b></p>","","null","","","","","","","","","","","","","","","","","","","","","","","","","","","","","","","",""
"audio-keyboard-response","102","319115","0.0-4.0-1.0-0.27","3","0","l82do2j8d0wvpgk","","null","","sounds/induction/left_rev/fu_SWS.wav","","null","","","","","","","","","","","","","","","","","","","","","","","","","","","","","","","",""
"html-button-response","103","319821","0.0-4.0-1.0-1.27","3","0","l82do2j8d0wvpgk","","705.735000083223","","Was the sound coming from the left or the right?","0","","","1","INDUCTION-JUDGMENT","left","0","","","","","","","","","","","","","","","","","","","","","","","","","","",""
"html-keyboard-response","104","320824","0.0-4.0-1.0-2.27","3","0","l82do2j8d0wvpgk","","null","","<p style=""color:#054d00;""><b>Correct!</b></p>","","null","","","","","","","","","","","","","","","","","","","","","","","","","","","","","","","",""
"audio-keyboard-response","105","321632","0.0-4.0-1.0-0.28","3","0","l82do2j8d0wvpgk","","null","","sounds/induction/left_rev/ta_SWS.wav","","null","","","","","","","","","","","","","","","","","","","","","","","","","","","","","","","",""
"html-button-response","106","322316","0.0-4.0-1.0-1.28","3","0","l82do2j8d0wvpgk","","681.4800000283867","","Was the sound coming from the left or the right?","1","","","0","INDUCTION-JUDGMENT","left","0","","","","","","","","","","","","","","","","","","","","","","","","","","",""
"html-keyboard-response","107","323322","0.0-4.0-1.0-2.28","3","0","l82do2j8d0wvpgk","","null","","<p style=""color:#690000;""><b>Incorrect!</b></p>","","null","","","","","","","","","","","","","","","","","","","","","","","","","","","","","","","",""
"audio-keyboard-response","108","324128","0.0-4.0-1.0-0.29","3","0","l82do2j8d0wvpgk","","null","","sounds/induction/right_rev/ru_SWS.wav","","null","","","","","","","","","","","","","","","","","","","","","","","","","","","","","","","",""
"html-button-response","109","324660","0.0-4.0-1.0-1.29","3","0","l82do2j8d0wvpgk","","530.6300000520423","","Was the sound coming from the left or the right?","0","","","0","INDUCTION-JUDGMENT","right","1","","","","","","","","","","","","","","","","","","","","","","","","","","",""
"html-keyboard-response","110","325666","0.0-4.0-1.0-2.29","3","0","l82do2j8d0wvpgk","","null","","<p style=""color:#690000;""><b>Incorrect!</b></p>","","null","","","","","","","","","","","","","","","","","","","","","","","","","","","","","","","",""
"audio-keyboard-response","111","326469","0.0-4.0-1.0-0.30","3","0","l82do2j8d0wvpgk","","null","","sounds/induction/left_rev/me_SWS.wav","","null","","","","","","","","","","","","","","","","","","","","","","","","","","","","","","","",""
"html-button-response","112","327711","0.0-4.0-1.0-1.30","3","0","l82do2j8d0wvpgk","","1238.414999912493","","Was the sound coming from the left or the right?","0","","","1","INDUCTION-JUDGMENT","left","0","","","","","","","","","","","","","","","","","","","","","","","","","","",""
"html-keyboard-response","113","328716","0.0-4.0-1.0-2.30","3","0","l82do2j8d0wvpgk","","null","","<p style=""color:#054d00;""><b>Correct!</b></p>","","null","","","","","","","","","","","","","","","","","","","","","","","","","","","","","","","",""
"audio-keyboard-response","114","329520","0.0-4.0-1.0-0.31","3","0","l82do2j8d0wvpgk","","null","","sounds/induction/left_rev/ko_SWS.wav","","null","","","","","","","","","","","","","","","","","","","","","","","","","","","","","","","",""
"html-button-response","115","330534","0.0-4.0-1.0-1.31","3","0","l82do2j8d0wvpgk","","1012.8849999746308","","Was the sound coming from the left or the right?","1","","","0","INDUCTION-JUDGMENT","left","0","","","","","","","","","","","","","","","","","","","","","","","","","","",""
"html-keyboard-response","116","331537","0.0-4.0-1.0-2.31","3","0","l82do2j8d0wvpgk","","null","","<p style=""color:#690000;""><b>Incorrect!</b></p>","","null","","","","","","","","","","","","","","","","","","","","","","","","","","","","","","","",""
"audio-keyboard-response","117","332341","0.0-4.0-1.0-0.32","3","0","l82do2j8d0wvpgk","","null","","sounds/induction/left_rev/su_SWS.wav","","null","","","","","","","","","","","","","","","","","","","","","","","","","","","","","","","",""
"html-button-response","118","332790","0.0-4.0-1.0-1.32","3","0","l82do2j8d0wvpgk","","447.9750000173226","","Was the sound coming from the left or the right?","0","","","1","INDUCTION-JUDGMENT","left","0","","","","","","","","","","","","","","","","","","","","","","","","","","",""
"html-keyboard-response","119","333795","0.0-4.0-1.0-2.32","3","0","l82do2j8d0wvpgk","","null","","<p style=""color:#054d00;""><b>Correct!</b></p>","","null","","","","","","","","","","","","","","","","","","","","","","","","","","","","","","","",""
"audio-keyboard-response","120","334602","0.0-4.0-1.0-0.33","3","0","l82do2j8d0wvpgk","","null","","sounds/induction/right_rev/ko_SWS.wav","","null","","","","","","","","","","","","","","","","","","","","","","","","","","","","","","","",""
"html-button-response","121","335128","0.0-4.0-1.0-1.33","3","0","l82do2j8d0wvpgk","","524.9499999918044","","Was the sound coming from the left or the right?","0","","","0","INDUCTION-JUDGMENT","right","1","","","","","","","","","","","","","","","","","","","","","","","","","","",""
"html-keyboard-response","122","336133","0.0-4.0-1.0-2.33","3","0","l82do2j8d0wvpgk","","null","","<p style=""color:#690000;""><b>Incorrect!</b></p>","","null","","","","","","","","","","","","","","","","","","","","","","","","","","","","","","","",""
"audio-keyboard-response","123","336938","0.0-4.0-1.0-0.34","3","0","l82do2j8d0wvpgk","","null","","sounds/induction/left_rev/ko_SWS.wav","","null","","","","","","","","","","","","","","","","","","","","","","","","","","","","","","","",""
"html-button-response","124","337301","0.0-4.0-1.0-1.34","3","0","l82do2j8d0wvpgk","","361.27999995369464","","Was the sound coming from the left or the right?","0","","","1","INDUCTION-JUDGMENT","left","0","","","","","","","","","","","","","","","","","","","","","","","","","","",""
"html-keyboard-response","125","338304","0.0-4.0-1.0-2.34","3","0","l82do2j8d0wvpgk","","null","","<p style=""color:#054d00;""><b>Correct!</b></p>","","null","","","","","","","","","","","","","","","","","","","","","","","","","","","","","","","",""
"audio-keyboard-response","126","339115","0.0-4.0-1.0-0.35","3","0","l82do2j8d0wvpgk","","null","","sounds/induction/left_rev/ru_SWS.wav","","null","","","","","","","","","","","","","","","","","","","","","","","","","","","","","","","",""
"html-button-response","127","340022","0.0-4.0-1.0-1.35","3","0","l82do2j8d0wvpgk","","904.4100000755861","","Was the sound coming from the left or the right?","1","","","0","INDUCTION-JUDGMENT","left","0","","","","","","","","","","","","","","","","","","","","","","","","","","",""
"html-keyboard-response","128","341024","0.0-4.0-1.0-2.35","3","0","l82do2j8d0wvpgk","","null","","<p style=""color:#690000;""><b>Incorrect!</b></p>","","null","","","","","","","","","","","","","","","","","","","","","","","","","","","","","","","",""
"audio-keyboard-response","129","341829","0.0-4.0-1.0-0.36","3","0","l82do2j8d0wvpgk","","null","","sounds/induction/right_rev/re_SWS.wav","","null","","","","","","","","","","","","","","","","","","","","","","","","","","","","","","","",""
"html-button-response","130","342565","0.0-4.0-1.0-1.36","3","0","l82do2j8d0wvpgk","","735.0550000555813","","Was the sound coming from the left or the right?","1","","","1","INDUCTION-JUDGMENT","right","1","","","","","","","","","","","","","","","","","","","","","","","","","","",""
"html-keyboard-response","131","343570","0.0-4.0-1.0-2.36","3","0","l82do2j8d0wvpgk","","null","","<p style=""color:#054d00;""><b>Correct!</b></p>","","null","","","","","","","","","","","","","","","","","","","","","","","","","","","","","","","",""
"audio-keyboard-response","132","344378","0.0-4.0-1.0-0.37","3","0","l82do2j8d0wvpgk","","null","","sounds/induction/right_rev/me_SWS.wav","","null","","","","","","","","","","","","","","","","","","","","","","","","","","","","","","","",""
"html-button-response","133","345509","0.0-4.0-1.0-1.37","3","0","l82do2j8d0wvpgk","","1127.9699999140576","","Was the sound coming from the left or the right?","1","","","1","INDUCTION-JUDGMENT","right","1","","","","","","","","","","","","","","","","","","","","","","","","","","",""
"html-keyboard-response","134","346512","0.0-4.0-1.0-2.37","3","0","l82do2j8d0wvpgk","","null","","<p style=""color:#054d00;""><b>Correct!</b></p>","","null","","","","","","","","","","","","","","","","","","","","","","","","","","","","","","","",""
"audio-keyboard-response","135","347317","0.0-4.0-1.0-0.38","3","0","l82do2j8d0wvpgk","","null","","sounds/induction/right_rev/pu_SWS.wav","","null","","","","","","","","","","","","","","","","","","","","","","","","","","","","","","","",""
"html-button-response","136","348296","0.0-4.0-1.0-1.38","3","0","l82do2j8d0wvpgk","","977.6899999706075","","Was the sound coming from the left or the right?","0","","","0","INDUCTION-JUDGMENT","right","1","","","","","","","","","","","","","","","","","","","","","","","","","","",""
"html-keyboard-response","137","349305","0.0-4.0-1.0-2.38","3","0","l82do2j8d0wvpgk","","null","","<p style=""color:#690000;""><b>Incorrect!</b></p>","","null","","","","","","","","","","","","","","","","","","","","","","","","","","","","","","","",""
"audio-keyboard-response","138","350111","0.0-4.0-1.0-0.39","3","0","l82do2j8d0wvpgk","","null","","sounds/induction/right_rev/ta_SWS.wav","","null","","","","","","","","","","","","","","","","","","","","","","","","","","","","","","","",""
"html-button-response","139","351022","0.0-4.0-1.0-1.39","3","0","l82do2j8d0wvpgk","","909.540000022389","","Was the sound coming from the left or the right?","1","","","1","INDUCTION-JUDGMENT","right","1","","","","","","","","","","","","","","","","","","","","","","","","","","",""
"html-keyboard-response","140","352029","0.0-4.0-1.0-2.39","3","0","l82do2j8d0wvpgk","","null","","<p style=""color:#054d00;""><b>Correct!</b></p>","","null","","","","","","","","","","","","","","","","","","","","","","","","","","","","","","","",""
"audio-keyboard-response","141","352837","0.0-4.0-1.0-0.40","3","0","l82do2j8d0wvpgk","","null","","sounds/induction/right_rev/ni_SWS.wav","","null","","","","","","","","","","","","","","","","","","","","","","","","","","","","","","","",""
"html-button-response","142","353743","0.0-4.0-1.0-1.40","3","0","l82do2j8d0wvpgk","","904.4200000353158","","Was the sound coming from the left or the right?","1","","","1","INDUCTION-JUDGMENT","right","1","","","","","","","","","","","","","","","","","","","","","","","","","","",""
"html-keyboard-response","143","354744","0.0-4.0-1.0-2.40","3","0","l82do2j8d0wvpgk","","null","","<p style=""color:#054d00;""><b>Correct!</b></p>","","null","","","","","","","","","","","","","","","","","","","","","","","","","","","","","","","",""
"audio-keyboard-response","144","355546","0.0-4.0-1.0-0.41","3","0","l82do2j8d0wvpgk","","null","","sounds/induction/left_rev/ti_SWS.wav","","null","","","","","","","","","","","","","","","","","","","","","","","","","","","","","","","",""
"html-button-response","145","356535","0.0-4.0-1.0-1.41","3","0","l82do2j8d0wvpgk","","987.6350000267848","","Was the sound coming from the left or the right?","0","","","1","INDUCTION-JUDGMENT","left","0","","","","","","","","","","","","","","","","","","","","","","","","","","",""
"html-keyboard-response","146","357537","0.0-4.0-1.0-2.41","3","0","l82do2j8d0wvpgk","","null","","<p style=""color:#054d00;""><b>Correct!</b></p>","","null","","","","","","","","","","","","","","","","","","","","","","","","","","","","","","","",""
"audio-keyboard-response","147","358340","0.0-4.0-1.0-0.42","3","0","l82do2j8d0wvpgk","","null","","sounds/induction/left_rev/ge_SWS.wav","","null","","","","","","","","","","","","","","","","","","","","","","","","","","","","","","","",""
"html-button-response","148","359036","0.0-4.0-1.0-1.42","3","0","l82do2j8d0wvpgk","","694.0600000089034","","Was the sound coming from the left or the right?","1","","","0","INDUCTION-JUDGMENT","left","0","","","","","","","","","","","","","","","","","","","","","","","","","","",""
"html-keyboard-response","149","360041","0.0-4.0-1.0-2.42","3","0","l82do2j8d0wvpgk","","null","","<p style=""color:#690000;""><b>Incorrect!</b></p>","","null","","","","","","","","","","","","","","","","","","","","","","","","","","","","","","","",""
"audio-keyboard-response","150","360847","0.0-4.0-1.0-0.43","3","0","l82do2j8d0wvpgk","","null","","sounds/induction/right_rev/me_SWS.wav","","null","","","","","","","","","","","","","","","","","","","","","","","","","","","","","","","",""
"html-button-response","151","361685","0.0-4.0-1.0-1.43","3","0","l82do2j8d0wvpgk","","833.2500000251457","","Was the sound coming from the left or the right?","0","","","0","INDUCTION-JUDGMENT","right","1","","","","","","","","","","","","","","","","","","","","","","","","","","",""
"html-keyboard-response","152","362689","0.0-4.0-1.0-2.43","3","0","l82do2j8d0wvpgk","","null","","<p style=""color:#690000;""><b>Incorrect!</b></p>","","null","","","","","","","","","","","","","","","","","","","","","","","","","","","","","","","",""
"audio-keyboard-response","153","363498","0.0-4.0-1.0-0.44","3","0","l82do2j8d0wvpgk","","null","","sounds/induction/right_rev/re_SWS.wav","","null","","","","","","","","","","","","","","","","","","","","","","","","","","","","","","","",""
"html-button-response","154","363855","0.0-4.0-1.0-1.44","3","0","l82do2j8d0wvpgk","","356.27499991096556","","Was the sound coming from the left or the right?","0","","","0","INDUCTION-JUDGMENT","right","1","","","","","","","","","","","","","","","","","","","","","","","","","","",""
"html-keyboard-response","155","364859","0.0-4.0-1.0-2.44","3","0","l82do2j8d0wvpgk","","null","","<p style=""color:#690000;""><b>Incorrect!</b></p>","","null","","","","","","","","","","","","","","","","","","","","","","","","","","","","","","","",""
"audio-keyboard-response","156","365669","0.0-4.0-1.0-0.45","3","0","l82do2j8d0wvpgk","","null","","sounds/induction/left_rev/ge_SWS.wav","","null","","","","","","","","","","","","","","","","","","","","","","","","","","","","","","","",""
"html-button-response","157","366997","0.0-4.0-1.0-1.45","3","0","l82do2j8d0wvpgk","","1326.0549999540672","","Was the sound coming from the left or the right?","0","","","1","INDUCTION-JUDGMENT","left","0","","","","","","","","","","","","","","","","","","","","","","","","","","",""
"html-keyboard-response","158","368000","0.0-4.0-1.0-2.45","3","0","l82do2j8d0wvpgk","","null","","<p style=""color:#054d00;""><b>Correct!</b></p>","","null","","","","","","","","","","","","","","","","","","","","","","","","","","","","","","","",""
"audio-keyboard-response","159","368804","0.0-4.0-1.0-0.46","3","0","l82do2j8d0wvpgk","","null","","sounds/induction/right_rev/su_SWS.wav","","null","","","","","","","","","","","","","","","","","","","","","","","","","","","","","","","",""
"html-button-response","160","369827","0.0-4.0-1.0-1.46","3","0","l82do2j8d0wvpgk","","1021.6550000477582","","Was the sound coming from the left or the right?","1","","","1","INDUCTION-JUDGMENT","right","1","","","","","","","","","","","","","","","","","","","","","","","","","","",""
"html-keyboard-response","161","370829","0.0-4.0-1.0-2.46","3","0","l82do2j8d0wvpgk","","null","","<p style=""color:#054d00;""><b>Correct!</b></p>","","null","","","","","","","","","","","","","","","","","","","","","","","","","","","","","","","",""
"audio-keyboard-response","162","371636","0.0-4.0-1.0-0.47","3","0","l82do2j8d0wvpgk","","null","","sounds/induction/right_rev/ge_SWS.wav","","null","","","","","","","","","","","","","","","","","","","","","","","","","","","","","","","",""
"html-button-response","163","372352","0.0-4.0-1.0-1.47","3","0","l82do2j8d0wvpgk","","714.7200000472367","","Was the sound coming from the left or the right?","1","","","1","INDUCTION-JUDGMENT","right","1","","","","","","","","","","","","","","","","","","","","","","","","","","",""
"html-keyboard-response","164","373359","0.0-4.0-1.0-2.47","3","0","l82do2j8d0wvpgk","","null","","<p style=""color:#054d00;""><b>Correct!</b></p>","","null","","","","","","","","","","","","","","","","","","","","","","","","","","","","","","","",""
"html-button-response","165","387487","0.0-5.0-0.0","3","0","l82do2j8d0wvpgk","","13616.979999933392","","<p>Thank you for your answers.</p><p>You will now listen to similar sounds. The main difference is that the sounds will be longer.</p><p>Just as before, you will be asked to judge whether the sound was coming from the left or the right.</p><p>There are 10 of these longer sounds in total.","0","","","","","","","","","","","","","","","","","","","","","","","","","","","","","","","","",""
"audio-keyboard-response","166","390223","0.0-5.0-1.0-0.0","3","0","l82do2j8d0wvpgk","","null","","sounds/sentences/right_rev/14_09_cfSWS.wav","","null","","","","","","","","","","","","","","","","","","","","","","","","","","","","","","","",""
"html-button-response","167","391551","0.0-5.0-1.0-1.0","3","0","l82do2j8d0wvpgk","","1325.0700000207871","","Was the sound coming from the left or the right?","0","","","0","INDUCTION-JUDGMENT","right","1","","","","","","","","","","","","","","","","","","","","","","","","","","",""
"html-keyboard-response","168","392553","0.0-5.0-1.0-2.0","3","0","l82do2j8d0wvpgk","","null","","<p style=""color:#690000;""><b>Incorrect!</b></p>","","null","","","","","","","","","","","","","","","","","","","","","","","","","","","","","","","",""
"html-button-response","169","395150","0.0-5.0-1.0-3.0","3","0","l82do2j8d0wvpgk","","2094.64999998454","","<p>Press the button below when you are ready to continue.</p>","0","","","","","","","","","","","","","","","","","","","","","","","","","","","","","","","","",""
"audio-keyboard-response","170","398143","0.0-5.0-1.0-0.1","3","0","l82do2j8d0wvpgk","","null","","sounds/sentences/left_rev/14_05_cfSWS.wav","","null","","","","","","","","","","","","","","","","","","","","","","","","","","","","","","","",""
"html-button-response","171","398858","0.0-5.0-1.0-1.1","3","0","l82do2j8d0wvpgk","","711.4399999845773","","Was the sound coming from the left or the right?","0","","","1","INDUCTION-JUDGMENT","left","0","","","","","","","","","","","","","","","","","","","","","","","","","","",""
"html-keyboard-response","172","399865","0.0-5.0-1.0-2.1","3","0","l82do2j8d0wvpgk","","null","","<p style=""color:#054d00;""><b>Correct!</b></p>","","null","","","","","","","","","","","","","","","","","","","","","","","","","","","","","","","",""
"html-button-response","173","403457","0.0-5.0-1.0-3.1","3","0","l82do2j8d0wvpgk","","3085.319999954663","","<p>Press the button below when you are ready to continue.</p>","0","","","","","","","","","","","","","","","","","","","","","","","","","","","","","","","","",""
"audio-keyboard-response","174","406046","0.0-5.0-1.0-0.2","3","0","l82do2j8d0wvpgk","","null","","sounds/sentences/left_rev/14_03_cfSWS.wav","","null","","","","","","","","","","","","","","","","","","","","","","","","","","","","","","","",""
"html-button-response","175","406942","0.0-5.0-1.0-1.2","3","0","l82do2j8d0wvpgk","","892.8049999522045","","Was the sound coming from the left or the right?","0","","","1","INDUCTION-JUDGMENT","left","0","","","","","","","","","","","","","","","","","","","","","","","","","","",""
"html-keyboard-response","176","407944","0.0-5.0-1.0-2.2","3","0","l82do2j8d0wvpgk","","null","","<p style=""color:#054d00;""><b>Correct!</b></p>","","null","","","","","","","","","","","","","","","","","","","","","","","","","","","","","","","",""
"html-button-response","177","410418","0.0-5.0-1.0-3.2","3","0","l82do2j8d0wvpgk","","1971.7100000707433","","<p>Press the button below when you are ready to continue.</p>","0","","","","","","","","","","","","","","","","","","","","","","","","","","","","","","","","",""
"audio-keyboard-response","178","413166","0.0-5.0-1.0-0.3","3","0","l82do2j8d0wvpgk","","null","","sounds/sentences/right_rev/14_06_cfSWS.wav","","null","","","","","","","","","","","","","","","","","","","","","","","","","","","","","","","",""
"html-button-response","179","413943","0.0-5.0-1.0-1.3","3","0","l82do2j8d0wvpgk","","773.0749999172986","","Was the sound coming from the left or the right?","1","","","1","INDUCTION-JUDGMENT","right","1","","","","","","","","","","","","","","","","","","","","","","","","","","",""
"html-keyboard-response","180","414947","0.0-5.0-1.0-2.3","3","0","l82do2j8d0wvpgk","","null","","<p style=""color:#054d00;""><b>Correct!</b></p>","","null","","","","","","","","","","","","","","","","","","","","","","","","","","","","","","","",""
"html-button-response","181","416362","0.0-5.0-1.0-3.3","3","0","l82do2j8d0wvpgk","","912.5749999657273","","<p>Press the button below when you are ready to continue.</p>","0","","","","","","","","","","","","","","","","","","","","","","","","","","","","","","","","",""
"audio-keyboard-response","182","419379","0.0-5.0-1.0-0.4","3","0","l82do2j8d0wvpgk","","null","","sounds/sentences/right_rev/14_10_cfSWS.wav","","null","","","","","","","","","","","","","","","","","","","","","","","","","","","","","","","",""
"html-button-response","183","419802","0.0-5.0-1.0-1.4","3","0","l82do2j8d0wvpgk","","421.26999993342906","","Was the sound coming from the left or the right?","0","","","0","INDUCTION-JUDGMENT","right","1","","","","","","","","","","","","","","","","","","","","","","","","","","",""
"html-keyboard-response","184","420810","0.0-5.0-1.0-2.4","3","0","l82do2j8d0wvpgk","","null","","<p style=""color:#690000;""><b>Incorrect!</b></p>","","null","","","","","","","","","","","","","","","","","","","","","","","","","","","","","","","",""
"html-button-response","185","422502","0.0-5.0-1.0-3.4","3","0","l82do2j8d0wvpgk","","1185.4599999496713","","<p>Press the button below when you are ready to continue.</p>","0","","","","","","","","","","","","","","","","","","","","","","","","","","","","","","","","",""
"audio-keyboard-response","186","425262","0.0-5.0-1.0-0.5","3","0","l82do2j8d0wvpgk","","null","","sounds/sentences/right_rev/14_08_cfSWS.wav","","null","","","","","","","","","","","","","","","","","","","","","","","","","","","","","","","",""
"html-button-response","187","425691","0.0-5.0-1.0-1.5","3","0","l82do2j8d0wvpgk","","427.38000000827014","","Was the sound coming from the left or the right?","1","","","1","INDUCTION-JUDGMENT","right","1","","","","","","","","","","","","","","","","","","","","","","","","","","",""
"html-keyboard-response","188","426695","0.0-5.0-1.0-2.5","3","0","l82do2j8d0wvpgk","","null","","<p style=""color:#054d00;""><b>Correct!</b></p>","","null","","","","","","","","","","","","","","","","","","","","","","","","","","","","","","","",""
"html-button-response","189","427836","0.0-5.0-1.0-3.5","3","0","l82do2j8d0wvpgk","","636.6799999959767","","<p>Press the button below when you are ready to continue.</p>","0","","","","","","","","","","","","","","","","","","","","","","","","","","","","","","","","",""
"audio-keyboard-response","190","430392","0.0-5.0-1.0-0.6","3","0","l82do2j8d0wvpgk","","null","","sounds/sentences/left_rev/14_04_cfSWS.wav","","null","","","","","","","","","","","","","","","","","","","","","","","","","","","","","","","",""
"html-button-response","191","430795","0.0-5.0-1.0-1.6","3","0","l82do2j8d0wvpgk","","401.00499999243766","","Was the sound coming from the left or the right?","0","","","1","INDUCTION-JUDGMENT","left","0","","","","","","","","","","","","","","","","","","","","","","","","","","",""
"html-keyboard-response","192","431802","0.0-5.0-1.0-2.6","3","0","l82do2j8d0wvpgk","","null","","<p style=""color:#054d00;""><b>Correct!</b></p>","","null","","","","","","","","","","","","","","","","","","","","","","","","","","","","","","","",""
"html-button-response","193","432884","0.0-5.0-1.0-3.6","3","0","l82do2j8d0wvpgk","","579.0300000226125","","<p>Press the button below when you are ready to continue.</p>","0","","","","","","","","","","","","","","","","","","","","","","","","","","","","","","","","",""
"audio-keyboard-response","194","435704","0.0-5.0-1.0-0.7","3","0","l82do2j8d0wvpgk","","null","","sounds/sentences/left_rev/14_02_cfSWS.wav","","null","","","","","","","","","","","","","","","","","","","","","","","","","","","","","","","",""
"html-button-response","195","436280","0.0-5.0-1.0-1.7","3","0","l82do2j8d0wvpgk","","574.5149999856949","","Was the sound coming from the left or the right?","1","","","0","INDUCTION-JUDGMENT","left","0","","","","","","","","","","","","","","","","","","","","","","","","","","",""
"html-keyboard-response","196","437283","0.0-5.0-1.0-2.7","3","0","l82do2j8d0wvpgk","","null","","<p style=""color:#690000;""><b>Incorrect!</b></p>","","null","","","","","","","","","","","","","","","","","","","","","","","","","","","","","","","",""
"html-button-response","197","438347","0.0-5.0-1.0-3.7","3","0","l82do2j8d0wvpgk","","559.6499999519438","","<p>Press the button below when you are ready to continue.</p>","0","","","","","","","","","","","","","","","","","","","","","","","","","","","","","","","","",""
"audio-keyboard-response","198","441240","0.0-5.0-1.0-0.8","3","0","l82do2j8d0wvpgk","","null","","sounds/sentences/right_rev/14_07_cfSWS.wav","","null","","","","","","","","","","","","","","","","","","","","","","","","","","","","","","","",""
"html-button-response","199","441891","0.0-5.0-1.0-1.8","3","0","l82do2j8d0wvpgk","","648.1399999465793","","Was the sound coming from the left or the right?","1","","","1","INDUCTION-JUDGMENT","right","1","","","","","","","","","","","","","","","","","","","","","","","","","","",""
"html-keyboard-response","200","442895","0.0-5.0-1.0-2.8","3","0","l82do2j8d0wvpgk","","null","","<p style=""color:#054d00;""><b>Correct!</b></p>","","null","","","","","","","","","","","","","","","","","","","","","","","","","","","","","","","",""
"html-button-response","201","443948","0.0-5.0-1.0-3.8","3","0","l82do2j8d0wvpgk","","545.9600000176579","","<p>Press the button below when you are ready to continue.</p>","0","","","","","","","","","","","","","","","","","","","","","","","","","","","","","","","","",""
"audio-keyboard-response","202","447069","0.0-5.0-1.0-0.9","3","0","l82do2j8d0wvpgk","","null","","sounds/sentences/left_rev/14_01_cfSWS.wav","","null","","","","","","","","","","","","","","","","","","","","","","","","","","","","","","","",""
"html-button-response","203","447821","0.0-5.0-1.0-1.9","3","0","l82do2j8d0wvpgk","","750.3000000724569","","Was the sound coming from the left or the right?","0","","","1","INDUCTION-JUDGMENT","left","0","","","","","","","","","","","","","","","","","","","","","","","","","","",""
"html-keyboard-response","204","448828","0.0-5.0-1.0-2.9","3","0","l82do2j8d0wvpgk","","null","","<p style=""color:#054d00;""><b>Correct!</b></p>","","null","","","","","","","","","","","","","","","","","","","","","","","","","","","","","","","",""
"html-button-response","205","450322","0.0-5.0-1.0-3.9","3","0","l82do2j8d0wvpgk","","988.4450000245124","","<p>Press the button below when you are ready to continue.</p>","0","","","","","","","","","","","","","","","","","","","","","","","","","","","","","","","","",""
"html-keyboard-response","206","488848","0.0-6.0-0.0","3","0","l82do2j8d0wvpgk","","38014.449999900535","","<p>In this part of the study, you will hear sounds similar to those you just heard.</p><p>Please focus on these sounds, as you may be asked questions about them later.</p><p>Occasionally, the sounds will pause for up to two seconds. When this happens, please press SPACEBAR as quickly as you can.</br>This helps ensure that you are paying attention to the sounds.</p><p>This part of the study will take about 12 minutes to complete, and you will be given the opportunity to take a couple of short breaks every few minutes.</p><p><strong>Press SPACEBAR to begin</strong></p>","","32","","","","","","","","","","","","","","","","","","","","","","","","","","","","","","","",""
"html-keyboard-response","207","489852","0.0-6.0-1.0-0.0","3","0","l82do2j8d0wvpgk","","null","","<p style=""font-size: 40px;"">+</p>","","null","","","","","","","","","","","","","","","","","","","","","","","","","","","","","","","",""
"html-keyboard-response","208","674877","0.0-6.0-1.0-1.0","3","0","l82do2j8d0wvpgk","","null","","","","null","","","SL-TRAIN","","","1","null","1152.8199999593198","sounds/C/TRAIN/SEQ__02.mp3","10","","","","","","","","","","","","","","","","","","","","","",""
"html-button-response","209","766326","0.0-6.0-1.0-2.0","3","0","l82do2j8d0wvpgk","","91446.24499999918","","<p>You may take a short break if you wish.</p>","0","","","","","","","","","","","","","","","","","","","","","","","","","","","","","","","","",""
"html-keyboard-response","210","767333","0.0-6.0-1.0-3.0","3","0","l82do2j8d0wvpgk","","null","","<p style=""font-size: 40px;"">+</p>","","null","","","","","","","","","","","","","","","","","","","","","","","","","","","","","","","",""
"html-keyboard-response","211","952334","0.0-6.0-1.0-4.0","3","0","l82do2j8d0wvpgk","","null","","","","null","","","SL-TRAIN","","","0","1971.3849999243394","1983.3999999100342","sounds/C/TRAIN/SEQ__03.mp3","40","","","","","","","","","","","","","","","","","","","","","",""
"html-button-response","212","955117","0.0-6.0-1.0-5.0","3","0","l82do2j8d0wvpgk","","2780.7749999919906","","<p>You may take a short break if you wish.</p>","0","","","","","","","","","","","","","","","","","","","","","","","","","","","","","","","","",""
"html-keyboard-response","213","956120","0.0-6.0-1.0-6.0","3","0","l82do2j8d0wvpgk","","null","","<p style=""font-size: 40px;"">+</p>","","null","","","","","","","","","","","","","","","","","","","","","","","","","","","","","","","",""
"html-keyboard-response","214","1141124","0.0-6.0-1.0-7.0","3","0","l82do2j8d0wvpgk","","null","","","","null","","","SL-TRAIN","","","1","1931.6899999976158","null","sounds/C/TRAIN/SEQ__09.mp3","69","","","","","","","","","","","","","","","","","","","","","",""
"html-button-response","215","1159863","0.0-6.0-1.0-8.0","3","0","l82do2j8d0wvpgk","","18734.56500004977","","<p>You may take a short break if you wish.</p>","0","","","","","","","","","","","","","","","","","","","","","","","","","","","","","","","","",""
"html-keyboard-response","216","1160870","0.0-6.0-1.0-9.0","3","0","l82do2j8d0wvpgk","","null","","<p style=""font-size: 40px;"">+</p>","","null","","","","","","","","","","","","","","","","","","","","","","","","","","","","","","","",""
"html-keyboard-response","217","1345876","0.0-6.0-1.0-10.0","3","0","l82do2j8d0wvpgk","","null","","","","null","","","SL-TRAIN","","","0","1984.2950000893325","1788.6100000469014","sounds/C/TRAIN/SEQ__01.mp3","95","","","","","","","","","","","","","","","","","","","","","",""
"html-button-response","218","1348741","0.0-6.0-1.0-11.0","3","0","l82do2j8d0wvpgk","","2862.6150001073256","","<p>You may take a short break if you wish.</p>","0","","","","","","","","","","","","","","","","","","","","","","","","","","","","","","","","",""
"html-button-response","219","1363107","0.0-7.0-0.0","3","0","l82do2j8d0wvpgk","","14361.404999974184","","<p>Welcome to the second part of the study. This is a <u>familiarity task</u>.</p><p>You will now hear short sounds and will be asked to rate how familiar they sound to you <b>based on what you heard in the previous part of the study</b>.</p><p>You will rate 12 sounds in total.</p>","0","","","","","","","","","","","","","","","","","","","","","","","","","","","","","","","","",""
"html-keyboard-response","220","1364113","0.0-7.0-1.0-0.0","3","0","l82do2j8d0wvpgk","","null","","","","null","","","","","","","","","","","","","","","","","","","","","","","","","","","","","","","",""
"audio-keyboard-response","221","1365481","0.0-7.0-1.0-1.0","3","0","l82do2j8d0wvpgk","","null","","sounds/C/FAM/P003.mp3","","null","","","","","","","","","","","","","","","","","","","","","","","","","","","","","","","",""
"html-keyboard-response","222","1370288","0.0-7.0-1.0-2.0","3","0","l82do2j8d0wvpgk","","4281.719999969937","","<p>How familiar did this sound to you?</p><p>1&nbsp;&nbsp;&nbsp;&nbsp;&nbsp;&nbsp;&nbsp;&nbsp;&nbsp;&nbsp;&nbsp;&nbsp;&nbsp;&nbsp;&nbsp;&nbsp;&nbsp;&nbsp;&nbsp;2&nbsp;&nbsp;&nbsp;&nbsp;&nbsp;&nbsp;&nbsp;&nbsp;&nbsp;&nbsp;&nbsp;&nbsp;&nbsp;&nbsp;&nbsp;&nbsp;&nbsp;&nbsp;&nbsp;3&nbsp;&nbsp;&nbsp;&nbsp;&nbsp;&nbsp;&nbsp;&nbsp;&nbsp;&nbsp;&nbsp;&nbsp;&nbsp;&nbsp;&nbsp;&nbsp;&nbsp;&nbsp;&nbsp;4</p><p style=""font-size:14px"">Not at all familiar&nbsp;&nbsp;&nbsp;&nbsp;A little familiar&nbsp;&nbsp;&nbsp;Moderately familiar&nbsp;&nbsp;&nbsp;Extremely familiar</p><p>(press the corresponding number on your keyboard)</p>","","51","","","FAM-RESPONSE","","","","","","","","sounds/C/FAM/P003.mp3","partword","","","","","","","","","","","","","","","","","","","",""
"html-keyboard-response","223","1372296","0.0-7.0-1.0-0.1","3","0","l82do2j8d0wvpgk","","null","","","","null","","","","","","","","","","","","","","","","","","","","","","","","","","","","","","","",""
"audio-keyboard-response","224","1373241","0.0-7.0-1.0-1.1","3","0","l82do2j8d0wvpgk","","null","","sounds/C/FAM/P004.mp3","","null","","","","","","","","","","","","","","","","","","","","","","","","","","","","","","","",""
"html-keyboard-response","225","1374672","0.0-7.0-1.0-2.1","3","0","l82do2j8d0wvpgk","","925.9249999886379","","<p>How familiar did this sound to you?</p><p>1&nbsp;&nbsp;&nbsp;&nbsp;&nbsp;&nbsp;&nbsp;&nbsp;&nbsp;&nbsp;&nbsp;&nbsp;&nbsp;&nbsp;&nbsp;&nbsp;&nbsp;&nbsp;&nbsp;2&nbsp;&nbsp;&nbsp;&nbsp;&nbsp;&nbsp;&nbsp;&nbsp;&nbsp;&nbsp;&nbsp;&nbsp;&nbsp;&nbsp;&nbsp;&nbsp;&nbsp;&nbsp;&nbsp;3&nbsp;&nbsp;&nbsp;&nbsp;&nbsp;&nbsp;&nbsp;&nbsp;&nbsp;&nbsp;&nbsp;&nbsp;&nbsp;&nbsp;&nbsp;&nbsp;&nbsp;&nbsp;&nbsp;4</p><p style=""font-size:14px"">Not at all familiar&nbsp;&nbsp;&nbsp;&nbsp;A little familiar&nbsp;&nbsp;&nbsp;Moderately familiar&nbsp;&nbsp;&nbsp;Extremely familiar</p><p>(press the corresponding number on your keyboard)</p>","","52","","","FAM-RESPONSE","","","","","","","","sounds/C/FAM/P004.mp3","partword","","","","","","","","","","","","","","","","","","","",""
"html-keyboard-response","226","1376681","0.0-7.0-1.0-0.2","3","0","l82do2j8d0wvpgk","","null","","","","null","","","","","","","","","","","","","","","","","","","","","","","","","","","","","","","",""
"audio-keyboard-response","227","1377625","0.0-7.0-1.0-1.2","3","0","l82do2j8d0wvpgk","","null","","sounds/C/FAM/P001.mp3","","null","","","","","","","","","","","","","","","","","","","","","","","","","","","","","","","",""
"html-keyboard-response","228","1378778","0.0-7.0-1.0-2.2","3","0","l82do2j8d0wvpgk","","648.9550000987947","","<p>How familiar did this sound to you?</p><p>1&nbsp;&nbsp;&nbsp;&nbsp;&nbsp;&nbsp;&nbsp;&nbsp;&nbsp;&nbsp;&nbsp;&nbsp;&nbsp;&nbsp;&nbsp;&nbsp;&nbsp;&nbsp;&nbsp;2&nbsp;&nbsp;&nbsp;&nbsp;&nbsp;&nbsp;&nbsp;&nbsp;&nbsp;&nbsp;&nbsp;&nbsp;&nbsp;&nbsp;&nbsp;&nbsp;&nbsp;&nbsp;&nbsp;3&nbsp;&nbsp;&nbsp;&nbsp;&nbsp;&nbsp;&nbsp;&nbsp;&nbsp;&nbsp;&nbsp;&nbsp;&nbsp;&nbsp;&nbsp;&nbsp;&nbsp;&nbsp;&nbsp;4</p><p style=""font-size:14px"">Not at all familiar&nbsp;&nbsp;&nbsp;&nbsp;A little familiar&nbsp;&nbsp;&nbsp;Moderately familiar&nbsp;&nbsp;&nbsp;Extremely familiar</p><p>(press the corresponding number on your keyboard)</p>","","49","","","FAM-RESPONSE","","","","","","","","sounds/C/FAM/P001.mp3","partword","","","","","","","","","","","","","","","","","","","",""
"html-keyboard-response","229","1380788","0.0-7.0-1.0-0.3","3","0","l82do2j8d0wvpgk","","null","","","","null","","","","","","","","","","","","","","","","","","","","","","","","","","","","","","","",""
"audio-keyboard-response","230","1381732","0.0-7.0-1.0-1.3","3","0","l82do2j8d0wvpgk","","null","","sounds/C/FAM/N004.mp3","","null","","","","","","","","","","","","","","","","","","","","","","","","","","","","","","","",""
"html-keyboard-response","231","1382690","0.0-7.0-1.0-2.3","3","0","l82do2j8d0wvpgk","","456.0549999587238","","<p>How familiar did this sound to you?</p><p>1&nbsp;&nbsp;&nbsp;&nbsp;&nbsp;&nbsp;&nbsp;&nbsp;&nbsp;&nbsp;&nbsp;&nbsp;&nbsp;&nbsp;&nbsp;&nbsp;&nbsp;&nbsp;&nbsp;2&nbsp;&nbsp;&nbsp;&nbsp;&nbsp;&nbsp;&nbsp;&nbsp;&nbsp;&nbsp;&nbsp;&nbsp;&nbsp;&nbsp;&nbsp;&nbsp;&nbsp;&nbsp;&nbsp;3&nbsp;&nbsp;&nbsp;&nbsp;&nbsp;&nbsp;&nbsp;&nbsp;&nbsp;&nbsp;&nbsp;&nbsp;&nbsp;&nbsp;&nbsp;&nbsp;&nbsp;&nbsp;&nbsp;4</p><p style=""font-size:14px"">Not at all familiar&nbsp;&nbsp;&nbsp;&nbsp;A little familiar&nbsp;&nbsp;&nbsp;Moderately familiar&nbsp;&nbsp;&nbsp;Extremely familiar</p><p>(press the corresponding number on your keyboard)</p>","","50","","","FAM-RESPONSE","","","","","","","","sounds/C/FAM/N004.mp3","nonword","","","","","","","","","","","","","","","","","","","",""
"html-keyboard-response","232","1384699","0.0-7.0-1.0-0.4","3","0","l82do2j8d0wvpgk","","null","","","","null","","","","","","","","","","","","","","","","","","","","","","","","","","","","","","","",""
"audio-keyboard-response","233","1385641","0.0-7.0-1.0-1.4","3","0","l82do2j8d0wvpgk","","null","","sounds/C/FAM/N001.mp3","","null","","","","","","","","","","","","","","","","","","","","","","","","","","","","","","","",""
"html-keyboard-response","234","1387071","0.0-7.0-1.0-2.4","3","0","l82do2j8d0wvpgk","","922.7549999486655","","<p>How familiar did this sound to you?</p><p>1&nbsp;&nbsp;&nbsp;&nbsp;&nbsp;&nbsp;&nbsp;&nbsp;&nbsp;&nbsp;&nbsp;&nbsp;&nbsp;&nbsp;&nbsp;&nbsp;&nbsp;&nbsp;&nbsp;2&nbsp;&nbsp;&nbsp;&nbsp;&nbsp;&nbsp;&nbsp;&nbsp;&nbsp;&nbsp;&nbsp;&nbsp;&nbsp;&nbsp;&nbsp;&nbsp;&nbsp;&nbsp;&nbsp;3&nbsp;&nbsp;&nbsp;&nbsp;&nbsp;&nbsp;&nbsp;&nbsp;&nbsp;&nbsp;&nbsp;&nbsp;&nbsp;&nbsp;&nbsp;&nbsp;&nbsp;&nbsp;&nbsp;4</p><p style=""font-size:14px"">Not at all familiar&nbsp;&nbsp;&nbsp;&nbsp;A little familiar&nbsp;&nbsp;&nbsp;Moderately familiar&nbsp;&nbsp;&nbsp;Extremely familiar</p><p>(press the corresponding number on your keyboard)</p>","","50","","","FAM-RESPONSE","","","","","","","","sounds/C/FAM/N001.mp3","nonword","","","","","","","","","","","","","","","","","","","",""
"html-keyboard-response","235","1389074","0.0-7.0-1.0-0.5","3","0","l82do2j8d0wvpgk","","null","","","","null","","","","","","","","","","","","","","","","","","","","","","","","","","","","","","","",""
"audio-keyboard-response","236","1390023","0.0-7.0-1.0-1.5","3","0","l82do2j8d0wvpgk","","null","","sounds/C/FAM/P002.mp3","","null","","","","","","","","","","","","","","","","","","","","","","","","","","","","","","","",""
"html-keyboard-response","237","1391372","0.0-7.0-1.0-2.5","3","0","l82do2j8d0wvpgk","","846.265000058338","","<p>How familiar did this sound to you?</p><p>1&nbsp;&nbsp;&nbsp;&nbsp;&nbsp;&nbsp;&nbsp;&nbsp;&nbsp;&nbsp;&nbsp;&nbsp;&nbsp;&nbsp;&nbsp;&nbsp;&nbsp;&nbsp;&nbsp;2&nbsp;&nbsp;&nbsp;&nbsp;&nbsp;&nbsp;&nbsp;&nbsp;&nbsp;&nbsp;&nbsp;&nbsp;&nbsp;&nbsp;&nbsp;&nbsp;&nbsp;&nbsp;&nbsp;3&nbsp;&nbsp;&nbsp;&nbsp;&nbsp;&nbsp;&nbsp;&nbsp;&nbsp;&nbsp;&nbsp;&nbsp;&nbsp;&nbsp;&nbsp;&nbsp;&nbsp;&nbsp;&nbsp;4</p><p style=""font-size:14px"">Not at all familiar&nbsp;&nbsp;&nbsp;&nbsp;A little familiar&nbsp;&nbsp;&nbsp;Moderately familiar&nbsp;&nbsp;&nbsp;Extremely familiar</p><p>(press the corresponding number on your keyboard)</p>","","52","","","FAM-RESPONSE","","","","","","","","sounds/C/FAM/P002.mp3","partword","","","","","","","","","","","","","","","","","","","",""
"html-keyboard-response","238","1393378","0.0-7.0-1.0-0.6","3","0","l82do2j8d0wvpgk","","null","","","","null","","","","","","","","","","","","","","","","","","","","","","","","","","","","","","","",""
"audio-keyboard-response","239","1394323","0.0-7.0-1.0-1.6","3","0","l82do2j8d0wvpgk","","null","","sounds/C/FAM/N003.mp3","","null","","","","","","","","","","","","","","","","","","","","","","","","","","","","","","","",""
"html-keyboard-response","240","1395065","0.0-7.0-1.0-2.6","3","0","l82do2j8d0wvpgk","","234.15999999269843","","<p>How familiar did this sound to you?</p><p>1&nbsp;&nbsp;&nbsp;&nbsp;&nbsp;&nbsp;&nbsp;&nbsp;&nbsp;&nbsp;&nbsp;&nbsp;&nbsp;&nbsp;&nbsp;&nbsp;&nbsp;&nbsp;&nbsp;2&nbsp;&nbsp;&nbsp;&nbsp;&nbsp;&nbsp;&nbsp;&nbsp;&nbsp;&nbsp;&nbsp;&nbsp;&nbsp;&nbsp;&nbsp;&nbsp;&nbsp;&nbsp;&nbsp;3&nbsp;&nbsp;&nbsp;&nbsp;&nbsp;&nbsp;&nbsp;&nbsp;&nbsp;&nbsp;&nbsp;&nbsp;&nbsp;&nbsp;&nbsp;&nbsp;&nbsp;&nbsp;&nbsp;4</p><p style=""font-size:14px"">Not at all familiar&nbsp;&nbsp;&nbsp;&nbsp;A little familiar&nbsp;&nbsp;&nbsp;Moderately familiar&nbsp;&nbsp;&nbsp;Extremely familiar</p><p>(press the corresponding number on your keyboard)</p>","","51","","","FAM-RESPONSE","","","","","","","","sounds/C/FAM/N003.mp3","nonword","","","","","","","","","","","","","","","","","","","",""
"html-keyboard-response","241","1397077","0.0-7.0-1.0-0.7","3","0","l82do2j8d0wvpgk","","null","","","","null","","","","","","","","","","","","","","","","","","","","","","","","","","","","","","","",""
"audio-keyboard-response","242","1398019","0.0-7.0-1.0-1.7","3","0","l82do2j8d0wvpgk","","null","","sounds/C/FAM/N002.mp3","","null","","","","","","","","","","","","","","","","","","","","","","","","","","","","","","","",""
"html-keyboard-response","243","1399066","0.0-7.0-1.0-2.7","3","0","l82do2j8d0wvpgk","","540.4349999735132","","<p>How familiar did this sound to you?</p><p>1&nbsp;&nbsp;&nbsp;&nbsp;&nbsp;&nbsp;&nbsp;&nbsp;&nbsp;&nbsp;&nbsp;&nbsp;&nbsp;&nbsp;&nbsp;&nbsp;&nbsp;&nbsp;&nbsp;2&nbsp;&nbsp;&nbsp;&nbsp;&nbsp;&nbsp;&nbsp;&nbsp;&nbsp;&nbsp;&nbsp;&nbsp;&nbsp;&nbsp;&nbsp;&nbsp;&nbsp;&nbsp;&nbsp;3&nbsp;&nbsp;&nbsp;&nbsp;&nbsp;&nbsp;&nbsp;&nbsp;&nbsp;&nbsp;&nbsp;&nbsp;&nbsp;&nbsp;&nbsp;&nbsp;&nbsp;&nbsp;&nbsp;4</p><p style=""font-size:14px"">Not at all familiar&nbsp;&nbsp;&nbsp;&nbsp;A little familiar&nbsp;&nbsp;&nbsp;Moderately familiar&nbsp;&nbsp;&nbsp;Extremely familiar</p><p>(press the corresponding number on your keyboard)</p>","","51","","","FAM-RESPONSE","","","","","","","","sounds/C/FAM/N002.mp3","nonword","","","","","","","","","","","","","","","","","","","",""
"html-keyboard-response","244","1401071","0.0-7.0-1.0-0.8","3","0","l82do2j8d0wvpgk","","null","","","","null","","","","","","","","","","","","","","","","","","","","","","","","","","","","","","","",""
"audio-keyboard-response","245","1402014","0.0-7.0-1.0-1.8","3","0","l82do2j8d0wvpgk","","null","","sounds/C/FAM/W001.mp3","","null","","","","","","","","","","","","","","","","","","","","","","","","","","","","","","","",""
"html-keyboard-response","246","1402759","0.0-7.0-1.0-2.8","3","0","l82do2j8d0wvpgk","","242.4299999838695","","<p>How familiar did this sound to you?</p><p>1&nbsp;&nbsp;&nbsp;&nbsp;&nbsp;&nbsp;&nbsp;&nbsp;&nbsp;&nbsp;&nbsp;&nbsp;&nbsp;&nbsp;&nbsp;&nbsp;&nbsp;&nbsp;&nbsp;2&nbsp;&nbsp;&nbsp;&nbsp;&nbsp;&nbsp;&nbsp;&nbsp;&nbsp;&nbsp;&nbsp;&nbsp;&nbsp;&nbsp;&nbsp;&nbsp;&nbsp;&nbsp;&nbsp;3&nbsp;&nbsp;&nbsp;&nbsp;&nbsp;&nbsp;&nbsp;&nbsp;&nbsp;&nbsp;&nbsp;&nbsp;&nbsp;&nbsp;&nbsp;&nbsp;&nbsp;&nbsp;&nbsp;4</p><p style=""font-size:14px"">Not at all familiar&nbsp;&nbsp;&nbsp;&nbsp;A little familiar&nbsp;&nbsp;&nbsp;Moderately familiar&nbsp;&nbsp;&nbsp;Extremely familiar</p><p>(press the corresponding number on your keyboard)</p>","","52","","","FAM-RESPONSE","","","","","","","","sounds/C/FAM/W001.mp3","word","","","","","","","","","","","","","","","","","","","",""
"html-keyboard-response","247","1404762","0.0-7.0-1.0-0.9","3","0","l82do2j8d0wvpgk","","null","","","","null","","","","","","","","","","","","","","","","","","","","","","","","","","","","","","","",""
"audio-keyboard-response","248","1405704","0.0-7.0-1.0-1.9","3","0","l82do2j8d0wvpgk","","null","","sounds/C/FAM/W002.mp3","","null","","","","","","","","","","","","","","","","","","","","","","","","","","","","","","","",""
"html-keyboard-response","249","1406685","0.0-7.0-1.0-2.9","3","0","l82do2j8d0wvpgk","","477.3749999003485","","<p>How familiar did this sound to you?</p><p>1&nbsp;&nbsp;&nbsp;&nbsp;&nbsp;&nbsp;&nbsp;&nbsp;&nbsp;&nbsp;&nbsp;&nbsp;&nbsp;&nbsp;&nbsp;&nbsp;&nbsp;&nbsp;&nbsp;2&nbsp;&nbsp;&nbsp;&nbsp;&nbsp;&nbsp;&nbsp;&nbsp;&nbsp;&nbsp;&nbsp;&nbsp;&nbsp;&nbsp;&nbsp;&nbsp;&nbsp;&nbsp;&nbsp;3&nbsp;&nbsp;&nbsp;&nbsp;&nbsp;&nbsp;&nbsp;&nbsp;&nbsp;&nbsp;&nbsp;&nbsp;&nbsp;&nbsp;&nbsp;&nbsp;&nbsp;&nbsp;&nbsp;4</p><p style=""font-size:14px"">Not at all familiar&nbsp;&nbsp;&nbsp;&nbsp;A little familiar&nbsp;&nbsp;&nbsp;Moderately familiar&nbsp;&nbsp;&nbsp;Extremely familiar</p><p>(press the corresponding number on your keyboard)</p>","","52","","","FAM-RESPONSE","","","","","","","","sounds/C/FAM/W002.mp3","word","","","","","","","","","","","","","","","","","","","",""
"html-keyboard-response","250","1408693","0.0-7.0-1.0-0.10","3","0","l82do2j8d0wvpgk","","null","","","","null","","","","","","","","","","","","","","","","","","","","","","","","","","","","","","","",""
"audio-keyboard-response","251","1409635","0.0-7.0-1.0-1.10","3","0","l82do2j8d0wvpgk","","null","","sounds/C/FAM/W004.mp3","","null","","","","","","","","","","","","","","","","","","","","","","","","","","","","","","","",""
"html-keyboard-response","252","1410378","0.0-7.0-1.0-2.10","3","0","l82do2j8d0wvpgk","","236.00500007160008","","<p>How familiar did this sound to you?</p><p>1&nbsp;&nbsp;&nbsp;&nbsp;&nbsp;&nbsp;&nbsp;&nbsp;&nbsp;&nbsp;&nbsp;&nbsp;&nbsp;&nbsp;&nbsp;&nbsp;&nbsp;&nbsp;&nbsp;2&nbsp;&nbsp;&nbsp;&nbsp;&nbsp;&nbsp;&nbsp;&nbsp;&nbsp;&nbsp;&nbsp;&nbsp;&nbsp;&nbsp;&nbsp;&nbsp;&nbsp;&nbsp;&nbsp;3&nbsp;&nbsp;&nbsp;&nbsp;&nbsp;&nbsp;&nbsp;&nbsp;&nbsp;&nbsp;&nbsp;&nbsp;&nbsp;&nbsp;&nbsp;&nbsp;&nbsp;&nbsp;&nbsp;4</p><p style=""font-size:14px"">Not at all familiar&nbsp;&nbsp;&nbsp;&nbsp;A little familiar&nbsp;&nbsp;&nbsp;Moderately familiar&nbsp;&nbsp;&nbsp;Extremely familiar</p><p>(press the corresponding number on your keyboard)</p>","","51","","","FAM-RESPONSE","","","","","","","","sounds/C/FAM/W004.mp3","word","","","","","","","","","","","","","","","","","","","",""
"html-keyboard-response","253","1412388","0.0-7.0-1.0-0.11","3","0","l82do2j8d0wvpgk","","null","","","","null","","","","","","","","","","","","","","","","","","","","","","","","","","","","","","","",""
"audio-keyboard-response","254","1413331","0.0-7.0-1.0-1.11","3","0","l82do2j8d0wvpgk","","null","","sounds/C/FAM/W003.mp3","","null","","","","","","","","","","","","","","","","","","","","","","","","","","","","","","","",""
"html-keyboard-response","255","1414058","0.0-7.0-1.0-2.11","3","0","l82do2j8d0wvpgk","","219.51500000432134","","<p>How familiar did this sound to you?</p><p>1&nbsp;&nbsp;&nbsp;&nbsp;&nbsp;&nbsp;&nbsp;&nbsp;&nbsp;&nbsp;&nbsp;&nbsp;&nbsp;&nbsp;&nbsp;&nbsp;&nbsp;&nbsp;&nbsp;2&nbsp;&nbsp;&nbsp;&nbsp;&nbsp;&nbsp;&nbsp;&nbsp;&nbsp;&nbsp;&nbsp;&nbsp;&nbsp;&nbsp;&nbsp;&nbsp;&nbsp;&nbsp;&nbsp;3&nbsp;&nbsp;&nbsp;&nbsp;&nbsp;&nbsp;&nbsp;&nbsp;&nbsp;&nbsp;&nbsp;&nbsp;&nbsp;&nbsp;&nbsp;&nbsp;&nbsp;&nbsp;&nbsp;4</p><p style=""font-size:14px"">Not at all familiar&nbsp;&nbsp;&nbsp;&nbsp;A little familiar&nbsp;&nbsp;&nbsp;Moderately familiar&nbsp;&nbsp;&nbsp;Extremely familiar</p><p>(press the corresponding number on your keyboard)</p>","","51","","","FAM-RESPONSE","","","","","","","","sounds/C/FAM/W003.mp3","word","","","","","","","","","","","","","","","","","","","",""
"html-button-response","256","1430034","0.0-8.0-0.0","3","0","l82do2j8d0wvpgk","","14973.179999971762","","<p>You will now listen to longer sound sequences.</p><p>Each sound sequence will last about 16 seconds.</p><p>On each trial, you will be given a <u>TARGET SOUND</u>. Your task is to listen very carefully for this sound.</p><p>Every time you hear the <u>TARGET SOUND</u>, you will press the <b>SPACEBAR</b> as quickly and accurately as you can.</p>","0","","","","","","","","","","","","","","","","","","","","","","","","","","","","","","","","",""
"html-button-response","257","1445632","0.0-8.0-1.0","3","0","l82do2j8d0wvpgk","","15331.83000003919","","<p>It is very important that you make your responses as quickly and accurately as possible.</p><p>To help you make your responses, you will be able to listen to the <u>TARGET SOUND</u> at the beginning of each trial.</p><p>There will be 36 total trials.</p><p><b>Note: This is meant to be a difficult task. We simply want you to try your best.</p>","0","","","","","","","","","","","","","","","","","","","","","","","","","","","","","","","","",""
"html-button-response","258","1447352","0.0-8.0-2.0-0.0","3","0","l82do2j8d0wvpgk","","1459.9850000813603","","<p>Trial 1 of 36</p>","0","","","","","","","","","","","","","","FE","sounds/syllables/fe_SWS.wav","3900,6600,10200,12000","2","","","","","","","","","","","","","","","",""
"html-keyboard-response","259","1453447","0.0-8.0-2.0-1.0","3","0","l82do2j8d0wvpgk","","6093.389999936335","","","","80","","","","","","","","","","","","","FE","","3900,6600,10200,12000","2","","","","","","","","","","","","","","","",""
"audio-keyboard-response","260","1454342","0.0-8.0-2.0-2.0-0.0","3","0","l82do2j8d0wvpgk","","null","","sounds/syllables/fe_SWS.wav","","null","","","","","","","","","","","","","","","","","","","","","","","","","","","","","","","",""
"html-keyboard-response","261","1458044","0.0-8.0-2.0-2.0-1.0","3","0","l82do2j8d0wvpgk","","3700.5300000309944","","<p>To replay the <u>TARGET SOUND</u>, press P.</p> When you are ready to begin, press SPACEBAR.","","80","","","","","","","","","","","","","","","","","","","","","","","","","","","","","","","",""
"audio-keyboard-response","262","1458854","0.0-8.0-2.0-2.1-0.1","3","0","l82do2j8d0wvpgk","","null","","sounds/syllables/fe_SWS.wav","","null","","","","","","","","","","","","","","","","","","","","","","","","","","","","","","","",""
"html-keyboard-response","263","1461747","0.0-8.0-2.0-2.1-1.1","3","0","l82do2j8d0wvpgk","","2891.399999964051","","<p>To replay the <u>TARGET SOUND</u>, press P.</p> When you are ready to begin, press SPACEBAR.","","80","","","","","","","","","","","","","","","","","","","","","","","","","","","","","","","",""
"audio-keyboard-response","264","1462550","0.0-8.0-2.0-2.2-0.2","3","0","l82do2j8d0wvpgk","","null","","sounds/syllables/fe_SWS.wav","","null","","","","","","","","","","","","","","","","","","","","","","","","","","","","","","","",""
"html-keyboard-response","265","1463249","0.0-8.0-2.0-2.2-1.2","3","0","l82do2j8d0wvpgk","","697.1849999390543","","<p>To replay the <u>TARGET SOUND</u>, press P.</p> When you are ready to begin, press SPACEBAR.","","80","","","","","","","","","","","","","","","","","","","","","","","","","","","","","","","",""
"audio-keyboard-response","266","1464055","0.0-8.0-2.0-2.3-0.3","3","0","l82do2j8d0wvpgk","","null","","sounds/syllables/fe_SWS.wav","","null","","","","","","","","","","","","","","","","","","","","","","","","","","","","","","","",""
"html-keyboard-response","267","1464265","0.0-8.0-2.0-2.3-1.3","3","0","l82do2j8d0wvpgk","","208.9449999621138","","<p>To replay the <u>TARGET SOUND</u>, press P.</p> When you are ready to begin, press SPACEBAR.","","32","","","","","","","","","","","","","","","","","","","","","","","","","","","","","","","",""
"audio-keyboard-response","268","1479217","0.0-8.0-2.0-3.0","3","0","l82do2j8d0wvpgk","","4709","","sounds/C/TD/FE_09_TD.mp3","","32","","","TD_SUMMARY","","","","","","","","","","FE","","3900,6600,10200,12000","2","3900","6600","10200","12000","806.1450000619516","null","540.6849999679253","801.9599999533966","4706.145000061952_5271.760000032373_10740.684999967925_12801.959999953397_13542.235000059009","4","","","","","",""
"html-button-response","269","1480719","0.0-8.0-2.0-0.1","3","0","l82do2j8d0wvpgk","","1490.319999982603","","<p>Trial 2 of 36</p>","0","","","","","","","","","","","","","","RU","sounds/syllables/ru_SWS.wav","3000,5700,10200,12000","2","","","","","","","","","","","","","","","",""
"html-keyboard-response","270","1485948","0.0-8.0-2.0-1.1","3","0","l82do2j8d0wvpgk","","5227.644999977201","","","","80","","","","","","","","","","","","","RU","","3000,5700,10200,12000","2","","","","","","","","","","","","","","","",""
"audio-keyboard-response","271","1486251","0.0-8.0-2.0-2.4-0.4","3","0","l82do2j8d0wvpgk","","null","","sounds/syllables/ru_SWS.wav","","null","","","","","","","","","","","","","","","","","","","","","","","","","","","","","","","",""
"html-keyboard-response","272","1487311","0.0-8.0-2.0-2.4-1.4","3","0","l82do2j8d0wvpgk","","1059.8950000712648","","<p>To replay the <u>TARGET SOUND</u>, press P.</p> When you are ready to begin, press SPACEBAR.","","80","","","","","","","","","","","","","","","","","","","","","","","","","","","","","","","",""
"audio-keyboard-response","273","1488118","0.0-8.0-2.0-2.5-0.5","3","0","l82do2j8d0wvpgk","","null","","sounds/syllables/ru_SWS.wav","","null","","","","","","","","","","","","","","","","","","","","","","","","","","","","","","","",""
"html-keyboard-response","274","1488514","0.0-8.0-2.0-2.5-1.5","3","0","l82do2j8d0wvpgk","","394.5799999637529","","<p>To replay the <u>TARGET SOUND</u>, press P.</p> When you are ready to begin, press SPACEBAR.","","80","","","","","","","","","","","","","","","","","","","","","","","","","","","","","","","",""
"audio-keyboard-response","275","1489323","0.0-8.0-2.0-2.6-0.6","3","0","l82do2j8d0wvpgk","","null","","sounds/syllables/ru_SWS.wav","","null","","","","","","","","","","","","","","","","","","","","","","","","","","","","","","","",""
"html-keyboard-response","276","1489963","0.0-8.0-2.0-2.6-1.6","3","0","l82do2j8d0wvpgk","","637.6999999629334","","<p>To replay the <u>TARGET SOUND</u>, press P.</p> When you are ready to begin, press SPACEBAR.","","32","","","","","","","","","","","","","","","","","","","","","","","","","","","","","","","",""
"audio-keyboard-response","277","1504918","0.0-8.0-2.0-3.1","3","0","l82do2j8d0wvpgk","","3712","","sounds/C/TD/RU_10_TD.mp3","","32","","","TD_SUMMARY","","","","","","","","","","RU","","3000,5700,10200,12000","2","3000","5700","10200","12000","713.3799999719486","740.679999999702","1117.449999973178","1064.9550000671297","_____3713.3799999719486_4206.275000004098_6440.679999999702_9841.540000052191_11088.390000048093_11317.449999973178_13064.95500006713_13261.524999979883","3","","","","","",""
"html-button-response","278","1505772","0.0-8.0-2.0-0.2","3","0","l82do2j8d0wvpgk","","842.0949999708682","","<p>Trial 3 of 36</p>","0","","","","","","","","","","","","","","GE","sounds/syllables/ge_SWS.wav","1500,5100,6900,10500","3","","","","","","","","","","","","","","","",""
"html-keyboard-response","279","1506920","0.0-8.0-2.0-1.2","3","0","l82do2j8d0wvpgk","","1146.8399999430403","","","","80","","","","","","","","","","","","","GE","","1500,5100,6900,10500","3","","","","","","","","","","","","","","","",""
"audio-keyboard-response","280","1507221","0.0-8.0-2.0-2.7-0.7","3","0","l82do2j8d0wvpgk","","null","","sounds/syllables/ge_SWS.wav","","null","","","","","","","","","","","","","","","","","","","","","","","","","","","","","","","",""
"html-keyboard-response","281","1507678","0.0-8.0-2.0-2.7-1.7","3","0","l82do2j8d0wvpgk","","455.27999999467283","","<p>To replay the <u>TARGET SOUND</u>, press P.</p> When you are ready to begin, press SPACEBAR.","","80","","","","","","","","","","","","","","","","","","","","","","","","","","","","","","","",""
"audio-keyboard-response","282","1508485","0.0-8.0-2.0-2.8-0.8","3","0","l82do2j8d0wvpgk","","null","","sounds/syllables/ge_SWS.wav","","null","","","","","","","","","","","","","","","","","","","","","","","","","","","","","","","",""
"html-keyboard-response","283","1508575","0.0-8.0-2.0-2.8-1.8","3","0","l82do2j8d0wvpgk","","88.14999996684492","","<p>To replay the <u>TARGET SOUND</u>, press P.</p> When you are ready to begin, press SPACEBAR.","","80","","","","","","","","","","","","","","","","","","","","","","","","","","","","","","","",""
"audio-keyboard-response","284","1509381","0.0-8.0-2.0-2.9-0.9","3","0","l82do2j8d0wvpgk","","null","","sounds/syllables/ge_SWS.wav","","null","","","","","","","","","","","","","","","","","","","","","","","","","","","","","","","",""
"html-keyboard-response","285","1509597","0.0-8.0-2.0-2.9-1.9","3","0","l82do2j8d0wvpgk","","214.50999996159226","","<p>To replay the <u>TARGET SOUND</u>, press P.</p> When you are ready to begin, press SPACEBAR.","","80","","","","","","","","","","","","","","","","","","","","","","","","","","","","","","","",""
"audio-keyboard-response","286","1510405","0.0-8.0-2.0-2.10-0.10","3","0","l82do2j8d0wvpgk","","null","","sounds/syllables/ge_SWS.wav","","null","","","","","","","","","","","","","","","","","","","","","","","","","","","","","","","",""
"html-keyboard-response","287","1510665","0.0-8.0-2.0-2.10-1.10","3","0","l82do2j8d0wvpgk","","259.11500002257526","","<p>To replay the <u>TARGET SOUND</u>, press P.</p> When you are ready to begin, press SPACEBAR.","","32","","","","","","","","","","","","","","","","","","","","","","","","","","","","","","","",""
"audio-keyboard-response","288","1525616","0.0-8.0-2.0-3.2","3","0","l82do2j8d0wvpgk","","1600","","sounds/C/TD/GE_04_TD.mp3","","32","","","TD_SUMMARY","","","","","","","","","","GE","","1500,5100,6900,10500","3","1500","5100","6900","10500","392.54500006791204","null","null","798.7350000767037","_____________1603.525000042282_1892.545000067912_4416.650000028312_4613.660000031814_6477.180000045337_6692.150000017136_8946.375000057742_11098.475000006147_11298.735000076704_11996.440000017174","4","","","","","",""
"html-button-response","289","1526496","0.0-8.0-2.0-0.3","3","0","l82do2j8d0wvpgk","","875.4249999765307","","<p>Trial 4 of 36</p>","0","","","","","","","","","","","","","","RE","sounds/syllables/re_SWS.wav","1200,3900,5700,10200","2","","","","","","","","","","","","","","","",""
"html-keyboard-response","290","1529953","0.0-8.0-2.0-1.3","3","0","l82do2j8d0wvpgk","","3455.475000082515","","","","80","","","","","","","","","","","","","RE","","1200,3900,5700,10200","2","","","","","","","","","","","","","","","",""
"audio-keyboard-response","291","1530255","0.0-8.0-2.0-2.11-0.11","3","0","l82do2j8d0wvpgk","","null","","sounds/syllables/re_SWS.wav","","null","","","","","","","","","","","","","","","","","","","","","","","","","","","","","","","",""
"html-keyboard-response","292","1530704","0.0-8.0-2.0-2.11-1.11","3","0","l82do2j8d0wvpgk","","447.61999999172986","","<p>To replay the <u>TARGET SOUND</u>, press P.</p> When you are ready to begin, press SPACEBAR.","","80","","","","","","","","","","","","","","","","","","","","","","","","","","","","","","","",""
"audio-keyboard-response","293","1531509","0.0-8.0-2.0-2.12-0.12","3","0","l82do2j8d0wvpgk","","null","","sounds/syllables/re_SWS.wav","","null","","","","","","","","","","","","","","","","","","","","","","","","","","","","","","","",""
"html-keyboard-response","294","1531851","0.0-8.0-2.0-2.12-1.12","3","0","l82do2j8d0wvpgk","","340.57999996002764","","<p>To replay the <u>TARGET SOUND</u>, press P.</p> When you are ready to begin, press SPACEBAR.","","80","","","","","","","","","","","","","","","","","","","","","","","","","","","","","","","",""
"audio-keyboard-response","295","1532661","0.0-8.0-2.0-2.13-0.13","3","0","l82do2j8d0wvpgk","","null","","sounds/syllables/re_SWS.wav","","null","","","","","","","","","","","","","","","","","","","","","","","","","","","","","","","",""
"html-keyboard-response","296","1532934","0.0-8.0-2.0-2.13-1.13","3","0","l82do2j8d0wvpgk","","271.5949999401346","","<p>To replay the <u>TARGET SOUND</u>, press P.</p> When you are ready to begin, press SPACEBAR.","","32","","","","","","","","","","","","","","","","","","","","","","","","","","","","","","","",""
"audio-keyboard-response","297","1547925","0.0-8.0-2.0-3.3","3","0","l82do2j8d0wvpgk","","2059","","sounds/C/TD/RE_07_TD.mp3","","32","","","TD_SUMMARY","","","","","","","","","","RE","","1200,3900,5700,10200","2","1200","3900","5700","10200","1047.1050000749528","null","null","null","_______________________2062.2999999905005_2247.105000074953_3773.03500007838_3941.770000034012_7471.01500001736_7752.650000038557_9293.345000012778_11997.815000009723_14402.400000020862","3","","","","","",""
"html-button-response","298","1548769","0.0-8.0-2.0-0.4","3","0","l82do2j8d0wvpgk","","838.7349999975413","","<p>Trial 5 of 36</p>","0","","","","","","","","","","","","","","ME","sounds/syllables/me_SWS.wav","3600,7200,9900,12600","1","","","","","","","","","","","","","","","",""
"html-keyboard-response","299","1549743","0.0-8.0-2.0-1.4","3","0","l82do2j8d0wvpgk","","972.8900000918657","","","","80","","","","","","","","","","","","","ME","","3600,7200,9900,12600","1","","","","","","","","","","","","","","","",""
"audio-keyboard-response","300","1550047","0.0-8.0-2.0-2.14-0.14","3","0","l82do2j8d0wvpgk","","null","","sounds/syllables/me_SWS.wav","","null","","","","","","","","","","","","","","","","","","","","","","","","","","","","","","","",""
"html-keyboard-response","301","1550508","0.0-8.0-2.0-2.14-1.14","3","0","l82do2j8d0wvpgk","","459.3299999833107","","<p>To replay the <u>TARGET SOUND</u>, press P.</p> When you are ready to begin, press SPACEBAR.","","80","","","","","","","","","","","","","","","","","","","","","","","","","","","","","","","",""
"audio-keyboard-response","302","1551322","0.0-8.0-2.0-2.15-0.15","3","0","l82do2j8d0wvpgk","","null","","sounds/syllables/me_SWS.wav","","null","","","","","","","","","","","","","","","","","","","","","","","","","","","","","","","",""
"html-keyboard-response","303","1551601","0.0-8.0-2.0-2.15-1.15","3","0","l82do2j8d0wvpgk","","278.0250000068918","","<p>To replay the <u>TARGET SOUND</u>, press P.</p> When you are ready to begin, press SPACEBAR.","","80","","","","","","","","","","","","","","","","","","","","","","","","","","","","","","","",""
"audio-keyboard-response","304","1552410","0.0-8.0-2.0-2.16-0.16","3","0","l82do2j8d0wvpgk","","null","","sounds/syllables/me_SWS.wav","","null","","","","","","","","","","","","","","","","","","","","","","","","","","","","","","","",""
"html-keyboard-response","305","1552722","0.0-8.0-2.0-2.16-1.16","3","0","l82do2j8d0wvpgk","","310.64499996136874","","<p>To replay the <u>TARGET SOUND</u>, press P.</p> When you are ready to begin, press SPACEBAR.","","32","","","","","","","","","","","","","","","","","","","","","","","","","","","","","","","",""
"audio-keyboard-response","306","1567674","0.0-8.0-2.0-3.4","3","0","l82do2j8d0wvpgk","","3045","","sounds/C/TD/ME_08_TD.mp3","","32","","","TD_SUMMARY","","","","","","","","","","ME","","3600,7200,9900,12600","1","3600","7200","9900","12600","null","null","null","null","________________________________3045.2149999327958_3203.529999940656_5408.749999944121_9617.344999918714_12458.415000000969","3","","","","","",""
"html-button-response","307","1568820","0.0-8.0-2.0-0.5","3","0","l82do2j8d0wvpgk","","1141.8599999742582","","<p>Trial 6 of 36</p>","0","","","","","","","","","","","","","","KO","sounds/syllables/ko_SWS.wav","1800,3600,8100,10800","1","","","","","","","","","","","","","","","",""
"html-keyboard-response","308","1569774","0.0-8.0-2.0-1.5","3","0","l82do2j8d0wvpgk","","952.9750000219792","","","","80","","","","","","","","","","","","","KO","","1800,3600,8100,10800","1","","","","","","","","","","","","","","","",""
"audio-keyboard-response","309","1570079","0.0-8.0-2.0-2.17-0.17","3","0","l82do2j8d0wvpgk","","null","","sounds/syllables/ko_SWS.wav","","null","","","","","","","","","","","","","","","","","","","","","","","","","","","","","","","",""
"html-keyboard-response","310","1570397","0.0-8.0-2.0-2.17-1.17","3","0","l82do2j8d0wvpgk","","316.52499991469085","","<p>To replay the <u>TARGET SOUND</u>, press P.</p> When you are ready to begin, press SPACEBAR.","","80","","","","","","","","","","","","","","","","","","","","","","","","","","","","","","","",""
"audio-keyboard-response","311","1571204","0.0-8.0-2.0-2.18-0.18","3","0","l82do2j8d0wvpgk","","null","","sounds/syllables/ko_SWS.wav","","null","","","","","","","","","","","","","","","","","","","","","","","","","","","","","","","",""
"html-keyboard-response","312","1571292","0.0-8.0-2.0-2.18-1.18","3","0","l82do2j8d0wvpgk","","85.68999997805804","","<p>To replay the <u>TARGET SOUND</u>, press P.</p> When you are ready to begin, press SPACEBAR.","","80","","","","","","","","","","","","","","","","","","","","","","","","","","","","","","","",""
"audio-keyboard-response","313","1572100","0.0-8.0-2.0-2.19-0.19","3","0","l82do2j8d0wvpgk","","null","","sounds/syllables/ko_SWS.wav","","null","","","","","","","","","","","","","","","","","","","","","","","","","","","","","","","",""
"html-keyboard-response","314","1572866","0.0-8.0-2.0-2.19-1.19","3","0","l82do2j8d0wvpgk","","764.2500000074506","","<p>To replay the <u>TARGET SOUND</u>, press P.</p> When you are ready to begin, press SPACEBAR.","","32","","","","","","","","","","","","","","","","","","","","","","","","","","","","","","","",""
"audio-keyboard-response","315","1587817","0.0-8.0-2.0-3.5","3","0","l82do2j8d0wvpgk","","2779","","sounds/C/TD/KO_02_TD.mp3","","32","","","TD_SUMMARY","","","","","","","","","","KO","","1800,3600,8100,10800","1","1800","3600","8100","10800","976.8200000282377","961.5400000242516","null","null","_____________________________________2776.8200000282377_4269.674999988638_4561.540000024252_7815.584999974817_10156.519999960437_12580.745000042953","3","","","","","",""
"html-button-response","316","1588883","0.0-8.0-2.0-0.6","3","0","l82do2j8d0wvpgk","","1062.099999981001","","<p>Trial 7 of 36</p>","0","","","","","","","","","","","","","","ME","sounds/syllables/me_SWS.wav","4500,8100,10800,12600","1","","","","","","","","","","","","","","","",""
"html-keyboard-response","317","1589877","0.0-8.0-2.0-1.6","3","0","l82do2j8d0wvpgk","","992.3000000417233","","","","80","","","","","","","","","","","","","ME","","4500,8100,10800,12600","1","","","","","","","","","","","","","","","",""
"audio-keyboard-response","318","1590179","0.0-8.0-2.0-2.20-0.20","3","0","l82do2j8d0wvpgk","","null","","sounds/syllables/me_SWS.wav","","null","","","","","","","","","","","","","","","","","","","","","","","","","","","","","","","",""
"html-keyboard-response","319","1590797","0.0-8.0-2.0-2.20-1.20","3","0","l82do2j8d0wvpgk","","615.5349999899045","","<p>To replay the <u>TARGET SOUND</u>, press P.</p> When you are ready to begin, press SPACEBAR.","","80","","","","","","","","","","","","","","","","","","","","","","","","","","","","","","","",""
"audio-keyboard-response","320","1591603","0.0-8.0-2.0-2.21-0.21","3","0","l82do2j8d0wvpgk","","null","","sounds/syllables/me_SWS.wav","","null","","","","","","","","","","","","","","","","","","","","","","","","","","","","","","","",""
"html-keyboard-response","321","1591945","0.0-8.0-2.0-2.21-1.21","3","0","l82do2j8d0wvpgk","","339.59999994840473","","<p>To replay the <u>TARGET SOUND</u>, press P.</p> When you are ready to begin, press SPACEBAR.","","80","","","","","","","","","","","","","","","","","","","","","","","","","","","","","","","",""
"audio-keyboard-response","322","1592750","0.0-8.0-2.0-2.22-0.22","3","0","l82do2j8d0wvpgk","","null","","sounds/syllables/me_SWS.wav","","null","","","","","","","","","","","","","","","","","","","","","","","","","","","","","","","",""
"html-keyboard-response","323","1604901","0.0-8.0-2.0-2.22-1.22","3","0","l82do2j8d0wvpgk","","12149.875000002794","","<p>To replay the <u>TARGET SOUND</u>, press P.</p> When you are ready to begin, press SPACEBAR.","","80","","","","","","","","","","","","","","","","","","","","","","","","","","","","","","","",""
"audio-keyboard-response","324","1605710","0.0-8.0-2.0-2.23-0.23","3","0","l82do2j8d0wvpgk","","null","","sounds/syllables/me_SWS.wav","","null","","","","","","","","","","","","","","","","","","","","","","","","","","","","","","","",""
"html-keyboard-response","325","1606081","0.0-8.0-2.0-2.23-1.23","3","0","l82do2j8d0wvpgk","","370.3700000187382","","<p>To replay the <u>TARGET SOUND</u>, press P.</p> When you are ready to begin, press SPACEBAR.","","80","","","","","","","","","","","","","","","","","","","","","","","","","","","","","","","",""
"audio-keyboard-response","326","1606883","0.0-8.0-2.0-2.24-0.24","3","0","l82do2j8d0wvpgk","","null","","sounds/syllables/me_SWS.wav","","null","","","","","","","","","","","","","","","","","","","","","","","","","","","","","","","",""
"html-keyboard-response","327","1607425","0.0-8.0-2.0-2.24-1.24","3","0","l82do2j8d0wvpgk","","540.8900000620633","","<p>To replay the <u>TARGET SOUND</u>, press P.</p> When you are ready to begin, press SPACEBAR.","","32","","","","","","","","","","","","","","","","","","","","","","","","","","","","","","","",""
"audio-keyboard-response","328","1622387","0.0-8.0-2.0-3.6","3","0","l82do2j8d0wvpgk","","1861","","sounds/C/TD/ME_04_TD.mp3","","32","","","TD_SUMMARY","","","","","","","","","","ME","","4500,8100,10800,12600","1","4500","8100","10800","12600","null","268.419999955222","568.5749999713153","896.7600000090897","___________________________________________1858.959999983199_2956.5399999264628_4523.919999948703_6497.444999986328_8169.675000011921_8368.419999955222_9566.134999971837_11368.574999971315_13496.76000000909","5","","","","","",""
"html-button-response","329","1676516","0.0-8.0-2.0-0.7","3","0","l82do2j8d0wvpgk","","54126.08499999624","","<p>Trial 8 of 36</p>","0","","","","","","","","","","","","","","RE","sounds/syllables/re_SWS.wav","1200,3900,7500,12900","2","","","","","","","","","","","","","","","",""
"html-keyboard-response","330","1677878","0.0-8.0-2.0-1.7","3","0","l82do2j8d0wvpgk","","1360.0349999032915","","","","80","","","","","","","","","","","","","RE","","1200,3900,7500,12900","2","","","","","","","","","","","","","","","",""
"audio-keyboard-response","331","1678811","0.0-8.0-2.0-2.25-0.25","3","0","l82do2j8d0wvpgk","","null","","sounds/syllables/re_SWS.wav","","null","","","","","","","","","","","","","","","","","","","","","","","","","","","","","","","",""
"html-keyboard-response","332","1679402","0.0-8.0-2.0-2.25-1.25","3","0","l82do2j8d0wvpgk","","590.2500000083819","","<p>To replay the <u>TARGET SOUND</u>, press P.</p> When you are ready to begin, press SPACEBAR.","","80","","","","","","","","","","","","","","","","","","","","","","","","","","","","","","","",""
"audio-keyboard-response","333","1680209","0.0-8.0-2.0-2.26-0.26","3","0","l82do2j8d0wvpgk","","null","","sounds/syllables/re_SWS.wav","","null","","","","","","","","","","","","","","","","","","","","","","","","","","","","","","","",""
"html-keyboard-response","334","1680857","0.0-8.0-2.0-2.26-1.26","3","0","l82do2j8d0wvpgk","","646.2700000265613","","<p>To replay the <u>TARGET SOUND</u>, press P.</p> When you are ready to begin, press SPACEBAR.","","32","","","","","","","","","","","","","","","","","","","","","","","","","","","","","","","",""
"audio-keyboard-response","335","1695825","0.0-8.0-2.0-3.7","3","0","l82do2j8d0wvpgk","","2107","","sounds/C/TD/RE_08_TD.mp3","","32","","","TD_SUMMARY","","","","","","","","","","RE","","1200,3900,7500,12900","2","1200","3900","7500","12900","1153.815000038594","null","null","null","____________________________________________________2108.0150000052527_2353.815000038594_3864.7900000214577_6337.219999986701_9480.845000012778_9680.384999956004_11038.199999951757_12909.429999999702","2","","","","","",""
"html-button-response","336","1697193","0.0-8.0-2.0-0.8","3","0","l82do2j8d0wvpgk","","1361.6849998943508","","<p>Trial 9 of 36</p>","0","","","","","","","","","","","","","","FU","sounds/syllables/fu_SWS.wav","3300,6000,9600,11400","3","","","","","","","","","","","","","","","",""
