"trial_type","trial_index","time_elapsed","internal_node_id","counterbalance","lang_instruct","ParticipantID","view_history","rt","url","stimulus","button_pressed","key_press","correctRESP","correct","designation","location","correctanswer","responses","sentence","keywords","typed_resp","keyword1_acc","keyword2_acc","keyword3_acc","keyword4_acc","keyword5_acc","total_acc","prop_acc","timeouts","pause_rt01","pause_rt02","train_file","numKeyPress","sound","fam_type","SYLLABLE","EXEMPLAR","TD_LOCS","TD_TYPE","TDLOC_01","TDLOC_02","TDLOC_03","TDLOC_04","TD_RT_01","TD_RT_02","TD_RT_03","TD_RT_04","TD_SUBJ_RTs","number_of_plays","slider_start","response","question_order","syllable","syllable_type"
"pavlovia","0","2","0.0-0.0","3","1","bs3z4ekd595x0eq","","","","","","","","","","","","","","","","","","","","","","","","","","","","","","","","","","","","","","","","","","","","","","","",""
"instructions","1","80378","0.0-1.0","3","1","bs3z4ekd595x0eq","[{""page_index"":0,""viewing_time"":4191.699999988079},{""page_index"":1,""viewing_time"":76178.60000002384}]","80380","","","","","","","","","","","","","","","","","","","","","","","","","","","","","","","","","","","","","","","","","","","","","",""
"external-html","2","85335","0.0-2.0","3","1","bs3z4ekd595x0eq","","4768.300000011921","consent/consent.html","","","","","","","","","","","","","","","","","","","","","","","","","","","","","","","","","","","","","","","","","","","","",""
"html-button-response","3","99785","0.0-3.0-0.0-0.0","3","1","bs3z4ekd595x0eq","","14445.599999964237","","<p>Welcome to the study. You will first complete a short volume calibration and headphone check.</p><p>Please make sure you are in a quiet listening environment, that you are wearing headphones, and that your computer's volume is turned on.<p></p>","0","","","","","","","","","","","","","","","","","","","","","","","","","","","","","","","","","","","","","","","","","","",""
"html-button-response","4","103865","0.0-3.0-0.0-1.0","3","1","bs3z4ekd595x0eq","","3823.5","","<p>The volume calibration will be first.</p><p>You will hear a thirty-second noise. Please adjust your computer's volume so that this noise is being presented at a comfortable level.<p></p>","0","","","","","","","","","","","","","","","","","","","","","","","","","","","","","","","","","","","","","","","","","","",""
"audio-button-response","5","114480","0.0-3.0-0.0-2.0","3","1","bs3z4ekd595x0eq","","10251","","audCalib/volumetest.mp3","0","","","","","","","","","","","","","","","","","","","","","","","","","","","","","","","","","","","","","","","","","","",""
"html-button-response","6","123002","0.0-3.0-1.0-0.0","3","1","bs3z4ekd595x0eq","","8518.699999988079","","<p>You will now complete a short headphone check.</p><p>On each trial, you will hear three tones. One of these tones will be quieter than the others. Your task is to identify whether the quiet tone occured first, second, or third.</p><p>There are six trials in total.<p></p>","0","","","","","","","","","","","","","","","","","","","","","","","","","","","","","","","","","","","","","","","","","","",""
"html-keyboard-response","7","123758","0.0-3.0-1.0-1.0-0.0","3","1","bs3z4ekd595x0eq","","null","","<div style=""font-size:60px;"">+</div>","","null","","","","","","","","","","","","","","","","","","","","","","","","","","","","","","","","","","","","","","","","","",""
"audio-button-response","8","128340","0.0-3.0-1.0-1.0-1.0","3","1","bs3z4ekd595x0eq","","4576","","audCalib/t3_2.mp3","2","","2","1","headphone-test","","","","","","","","","","","","","","","","","","","","","","","","","","","","","","","","","","","","","","",""
"html-keyboard-response","9","129096","0.0-3.0-1.0-1.0-0.1","3","1","bs3z4ekd595x0eq","","null","","<div style=""font-size:60px;"">+</div>","","null","","","","","","","","","","","","","","","","","","","","","","","","","","","","","","","","","","","","","","","","","",""
"audio-button-response","10","133215","0.0-3.0-1.0-1.0-1.1","3","1","bs3z4ekd595x0eq","","4117","","audCalib/t3_1.mp3","2","","2","1","headphone-test","","","","","","","","","","","","","","","","","","","","","","","","","","","","","","","","","","","","","","",""
"html-keyboard-response","11","133973","0.0-3.0-1.0-1.0-0.2","3","1","bs3z4ekd595x0eq","","null","","<div style=""font-size:60px;"">+</div>","","null","","","","","","","","","","","","","","","","","","","","","","","","","","","","","","","","","","","","","","","","","",""
"audio-button-response","12","140699","0.0-3.0-1.0-1.0-1.2","3","1","bs3z4ekd595x0eq","","6725","","audCalib/t2_1.mp3","1","","1","1","headphone-test","","","","","","","","","","","","","","","","","","","","","","","","","","","","","","","","","","","","","","",""
"html-keyboard-response","13","141455","0.0-3.0-1.0-1.0-0.3","3","1","bs3z4ekd595x0eq","","null","","<div style=""font-size:60px;"">+</div>","","null","","","","","","","","","","","","","","","","","","","","","","","","","","","","","","","","","","","","","","","","","",""
"audio-button-response","14","145746","0.0-3.0-1.0-1.0-1.3","3","1","bs3z4ekd595x0eq","","4288","","audCalib/t2_2.mp3","1","","1","1","headphone-test","","","","","","","","","","","","","","","","","","","","","","","","","","","","","","","","","","","","","","",""
"html-keyboard-response","15","146501","0.0-3.0-1.0-1.0-0.4","3","1","bs3z4ekd595x0eq","","null","","<div style=""font-size:60px;"">+</div>","","null","","","","","","","","","","","","","","","","","","","","","","","","","","","","","","","","","","","","","","","","","",""
"audio-button-response","16","150857","0.0-3.0-1.0-1.0-1.4","3","1","bs3z4ekd595x0eq","","4352","","audCalib/t1_2.mp3","0","","0","1","headphone-test","","","","","","","","","","","","","","","","","","","","","","","","","","","","","","","","","","","","","","",""
"html-keyboard-response","17","151613","0.0-3.0-1.0-1.0-0.5","3","1","bs3z4ekd595x0eq","","null","","<div style=""font-size:60px;"">+</div>","","null","","","","","","","","","","","","","","","","","","","","","","","","","","","","","","","","","","","","","","","","","",""
"audio-button-response","18","156473","0.0-3.0-1.0-1.0-1.5","3","1","bs3z4ekd595x0eq","","4859","","audCalib/t1_1.mp3","0","","0","1","headphone-test","","","","","","","","","","","","","","","","","","","","","","","","","","","","","","","","","","","","","","",""
"html-button-response","19","161083","0.0-3.0-2.0","3","1","bs3z4ekd595x0eq","","4353.100000023842","","<p>The volume calibration and headphone check are now complete.</p>","0","","","","","","","","","","","","","","","","","","","","","","","","","","","","","","","","","","","","","","","","","","",""
"instructions","20","193079","0.0-4.0-0.0","3","1","bs3z4ekd595x0eq","[{""page_index"":0,""viewing_time"":2925.599999964237},{""page_index"":1,""viewing_time"":27508.600000023842},{""page_index"":2,""viewing_time"":1561.5}]","31996.399999976158","","","","","","","","","","","","","","","","","","","","","","","","","","","","","","","","","","","","","","","","","","","","","",""
"audio-keyboard-response","21","193435","0.0-4.0-1.0-0.0","3","1","bs3z4ekd595x0eq","","null","","sounds/induction/left/ta_SWS.wav","","null","","","","","","","","","","","","","","","","","","","","","","","","","","","","","","","","","","","","","","","","","",""
"html-button-response","22","198911","0.0-4.0-1.0-1.0","3","1","bs3z4ekd595x0eq","","5473.900000035763","","What sound did you hear?","1","","","0","INDUCTION-JUDGMENT","left","0","","","","","","","","","","","","","","","","","","","","","","","","","","","","","","","","","","","","",""
"html-keyboard-response","23","199913","0.0-4.0-1.0-2.0","3","1","bs3z4ekd595x0eq","","null","","<p style=""color:red;""><b>Incorrect!</b></p>","","null","","","","","","","","","","","","","","","","","","","","","","","","","","","","","","","","","","","","","","","","","",""
"audio-keyboard-response","24","200719","0.0-4.0-1.0-0.1","3","1","bs3z4ekd595x0eq","","null","","sounds/induction/right/me_SWS.wav","","null","","","","","","","","","","","","","","","","","","","","","","","","","","","","","","","","","","","","","","","","","",""
"html-button-response","25","202228","0.0-4.0-1.0-1.1","3","1","bs3z4ekd595x0eq","","1507.4000000357628","","What sound did you hear?","0","","","1","INDUCTION-JUDGMENT","right","0","","","","","","","","","","","","","","","","","","","","","","","","","","","","","","","","","","","","",""
"html-keyboard-response","26","203234","0.0-4.0-1.0-2.1","3","1","bs3z4ekd595x0eq","","null","","<p style=""color:green;""><b>Correct!</b></p>","","null","","","","","","","","","","","","","","","","","","","","","","","","","","","","","","","","","","","","","","","","","",""
"audio-keyboard-response","27","204041","0.0-4.0-1.0-0.2","3","1","bs3z4ekd595x0eq","","null","","sounds/induction/right/fe_SWS.wav","","null","","","","","","","","","","","","","","","","","","","","","","","","","","","","","","","","","","","","","","","","","",""
"html-button-response","28","205222","0.0-4.0-1.0-1.2","3","1","bs3z4ekd595x0eq","","1179.2000000476837","","What sound did you hear?","0","","","1","INDUCTION-JUDGMENT","right","0","","","","","","","","","","","","","","","","","","","","","","","","","","","","","","","","","","","","",""
"html-keyboard-response","29","206228","0.0-4.0-1.0-2.2","3","1","bs3z4ekd595x0eq","","null","","<p style=""color:green;""><b>Correct!</b></p>","","null","","","","","","","","","","","","","","","","","","","","","","","","","","","","","","","","","","","","","","","","","",""
"audio-keyboard-response","30","207034","0.0-4.0-1.0-0.3","3","1","bs3z4ekd595x0eq","","null","","sounds/induction/right/ko_SWS.wav","","null","","","","","","","","","","","","","","","","","","","","","","","","","","","","","","","","","","","","","","","","","",""
"html-button-response","31","208538","0.0-4.0-1.0-1.3","3","1","bs3z4ekd595x0eq","","1503","","What sound did you hear?","0","","","1","INDUCTION-JUDGMENT","right","0","","","","","","","","","","","","","","","","","","","","","","","","","","","","","","","","","","","","",""
"html-keyboard-response","32","209545","0.0-4.0-1.0-2.3","3","1","bs3z4ekd595x0eq","","null","","<p style=""color:green;""><b>Correct!</b></p>","","null","","","","","","","","","","","","","","","","","","","","","","","","","","","","","","","","","","","","","","","","","",""
"audio-keyboard-response","33","210351","0.0-4.0-1.0-0.4","3","1","bs3z4ekd595x0eq","","null","","sounds/induction/left/pu_SWS.wav","","null","","","","","","","","","","","","","","","","","","","","","","","","","","","","","","","","","","","","","","","","","",""
"html-button-response","34","211904","0.0-4.0-1.0-1.4","3","1","bs3z4ekd595x0eq","","1549.699999988079","","What sound did you hear?","0","","","1","INDUCTION-JUDGMENT","left","0","","","","","","","","","","","","","","","","","","","","","","","","","","","","","","","","","","","","",""
"html-keyboard-response","35","212909","0.0-4.0-1.0-2.4","3","1","bs3z4ekd595x0eq","","null","","<p style=""color:green;""><b>Correct!</b></p>","","null","","","","","","","","","","","","","","","","","","","","","","","","","","","","","","","","","","","","","","","","","",""
"audio-keyboard-response","36","213711","0.0-4.0-1.0-0.5","3","1","bs3z4ekd595x0eq","","null","","sounds/induction/right/fu_SWS.wav","","null","","","","","","","","","","","","","","","","","","","","","","","","","","","","","","","","","","","","","","","","","",""
"html-button-response","37","215138","0.0-4.0-1.0-1.5","3","1","bs3z4ekd595x0eq","","1425.2999999523163","","What sound did you hear?","1","","","0","INDUCTION-JUDGMENT","right","0","","","","","","","","","","","","","","","","","","","","","","","","","","","","","","","","","","","","",""
"html-keyboard-response","38","216142","0.0-4.0-1.0-2.5","3","1","bs3z4ekd595x0eq","","null","","<p style=""color:red;""><b>Incorrect!</b></p>","","null","","","","","","","","","","","","","","","","","","","","","","","","","","","","","","","","","","","","","","","","","",""
"audio-keyboard-response","39","216948","0.0-4.0-1.0-0.6","3","1","bs3z4ekd595x0eq","","null","","sounds/induction/left/ru_SWS.wav","","null","","","","","","","","","","","","","","","","","","","","","","","","","","","","","","","","","","","","","","","","","",""
"html-button-response","40","218011","0.0-4.0-1.0-1.6","3","1","bs3z4ekd595x0eq","","1061.800000011921","","What sound did you hear?","0","","","1","INDUCTION-JUDGMENT","left","0","","","","","","","","","","","","","","","","","","","","","","","","","","","","","","","","","","","","",""
"html-keyboard-response","41","219017","0.0-4.0-1.0-2.6","3","1","bs3z4ekd595x0eq","","null","","<p style=""color:green;""><b>Correct!</b></p>","","null","","","","","","","","","","","","","","","","","","","","","","","","","","","","","","","","","","","","","","","","","",""
"audio-keyboard-response","42","219822","0.0-4.0-1.0-0.7","3","1","bs3z4ekd595x0eq","","null","","sounds/induction/left/me_SWS.wav","","null","","","","","","","","","","","","","","","","","","","","","","","","","","","","","","","","","","","","","","","","","",""
"html-button-response","43","221052","0.0-4.0-1.0-1.7","3","1","bs3z4ekd595x0eq","","1228.5","","What sound did you hear?","1","","","1","INDUCTION-JUDGMENT","left","1","","","","","","","","","","","","","","","","","","","","","","","","","","","","","","","","","","","","",""
"html-keyboard-response","44","222056","0.0-4.0-1.0-2.7","3","1","bs3z4ekd595x0eq","","null","","<p style=""color:green;""><b>Correct!</b></p>","","null","","","","","","","","","","","","","","","","","","","","","","","","","","","","","","","","","","","","","","","","","",""
"audio-keyboard-response","45","222862","0.0-4.0-1.0-0.8","3","1","bs3z4ekd595x0eq","","null","","sounds/induction/right/ti_SWS.wav","","null","","","","","","","","","","","","","","","","","","","","","","","","","","","","","","","","","","","","","","","","","",""
"html-button-response","46","224513","0.0-4.0-1.0-1.8","3","1","bs3z4ekd595x0eq","","1648.7999999523163","","What sound did you hear?","1","","","1","INDUCTION-JUDGMENT","right","1","","","","","","","","","","","","","","","","","","","","","","","","","","","","","","","","","","","","",""
"html-keyboard-response","47","225518","0.0-4.0-1.0-2.8","3","1","bs3z4ekd595x0eq","","null","","<p style=""color:green;""><b>Correct!</b></p>","","null","","","","","","","","","","","","","","","","","","","","","","","","","","","","","","","","","","","","","","","","","",""
"audio-keyboard-response","48","226324","0.0-4.0-1.0-0.9","3","1","bs3z4ekd595x0eq","","null","","sounds/induction/left/ti_SWS.wav","","null","","","","","","","","","","","","","","","","","","","","","","","","","","","","","","","","","","","","","","","","","",""
"html-button-response","49","227208","0.0-4.0-1.0-1.9","3","1","bs3z4ekd595x0eq","","883.3000000119209","","What sound did you hear?","0","","","1","INDUCTION-JUDGMENT","left","0","","","","","","","","","","","","","","","","","","","","","","","","","","","","","","","","","","","","",""
"html-keyboard-response","50","228211","0.0-4.0-1.0-2.9","3","1","bs3z4ekd595x0eq","","null","","<p style=""color:green;""><b>Correct!</b></p>","","null","","","","","","","","","","","","","","","","","","","","","","","","","","","","","","","","","","","","","","","","","",""
"audio-keyboard-response","51","229017","0.0-4.0-1.0-0.10","3","1","bs3z4ekd595x0eq","","null","","sounds/induction/right/re_SWS.wav","","null","","","","","","","","","","","","","","","","","","","","","","","","","","","","","","","","","","","","","","","","","",""
"html-button-response","52","230710","0.0-4.0-1.0-1.10","3","1","bs3z4ekd595x0eq","","1691.3999999761581","","What sound did you hear?","1","","","1","INDUCTION-JUDGMENT","right","1","","","","","","","","","","","","","","","","","","","","","","","","","","","","","","","","","","","","",""
"html-keyboard-response","53","231712","0.0-4.0-1.0-2.10","3","1","bs3z4ekd595x0eq","","null","","<p style=""color:green;""><b>Correct!</b></p>","","null","","","","","","","","","","","","","","","","","","","","","","","","","","","","","","","","","","","","","","","","","",""
"audio-keyboard-response","54","232521","0.0-4.0-1.0-0.11","3","1","bs3z4ekd595x0eq","","null","","sounds/induction/right/fu_SWS.wav","","null","","","","","","","","","","","","","","","","","","","","","","","","","","","","","","","","","","","","","","","","","",""
"html-button-response","55","233720","0.0-4.0-1.0-1.11","3","1","bs3z4ekd595x0eq","","1197.2000000476837","","What sound did you hear?","0","","","1","INDUCTION-JUDGMENT","right","0","","","","","","","","","","","","","","","","","","","","","","","","","","","","","","","","","","","","",""
"html-keyboard-response","56","234724","0.0-4.0-1.0-2.11","3","1","bs3z4ekd595x0eq","","null","","<p style=""color:green;""><b>Correct!</b></p>","","null","","","","","","","","","","","","","","","","","","","","","","","","","","","","","","","","","","","","","","","","","",""
"audio-keyboard-response","57","235529","0.0-4.0-1.0-0.12","3","1","bs3z4ekd595x0eq","","null","","sounds/induction/right/ge_SWS.wav","","null","","","","","","","","","","","","","","","","","","","","","","","","","","","","","","","","","","","","","","","","","",""
"html-button-response","58","236962","0.0-4.0-1.0-1.12","3","1","bs3z4ekd595x0eq","","1431.300000011921","","What sound did you hear?","0","","","1","INDUCTION-JUDGMENT","right","0","","","","","","","","","","","","","","","","","","","","","","","","","","","","","","","","","","","","",""
"html-keyboard-response","59","237967","0.0-4.0-1.0-2.12","3","1","bs3z4ekd595x0eq","","null","","<p style=""color:green;""><b>Correct!</b></p>","","null","","","","","","","","","","","","","","","","","","","","","","","","","","","","","","","","","","","","","","","","","",""
"audio-keyboard-response","60","238772","0.0-4.0-1.0-0.13","3","1","bs3z4ekd595x0eq","","null","","sounds/induction/right/pu_SWS.wav","","null","","","","","","","","","","","","","","","","","","","","","","","","","","","","","","","","","","","","","","","","","",""
"html-button-response","61","239860","0.0-4.0-1.0-1.13","3","1","bs3z4ekd595x0eq","","1085.9000000357628","","What sound did you hear?","1","","","1","INDUCTION-JUDGMENT","right","1","","","","","","","","","","","","","","","","","","","","","","","","","","","","","","","","","","","","",""
"html-keyboard-response","62","240862","0.0-4.0-1.0-2.13","3","1","bs3z4ekd595x0eq","","null","","<p style=""color:green;""><b>Correct!</b></p>","","null","","","","","","","","","","","","","","","","","","","","","","","","","","","","","","","","","","","","","","","","","",""
"audio-keyboard-response","63","241667","0.0-4.0-1.0-0.14","3","1","bs3z4ekd595x0eq","","null","","sounds/induction/left/me_SWS.wav","","null","","","","","","","","","","","","","","","","","","","","","","","","","","","","","","","","","","","","","","","","","",""
"html-button-response","64","242541","0.0-4.0-1.0-1.14","3","1","bs3z4ekd595x0eq","","871.8000000119209","","What sound did you hear?","1","","","1","INDUCTION-JUDGMENT","left","1","","","","","","","","","","","","","","","","","","","","","","","","","","","","","","","","","","","","",""
"html-keyboard-response","65","243546","0.0-4.0-1.0-2.14","3","1","bs3z4ekd595x0eq","","null","","<p style=""color:green;""><b>Correct!</b></p>","","null","","","","","","","","","","","","","","","","","","","","","","","","","","","","","","","","","","","","","","","","","",""
"audio-keyboard-response","66","244350","0.0-4.0-1.0-0.15","3","1","bs3z4ekd595x0eq","","null","","sounds/induction/left/ru_SWS.wav","","null","","","","","","","","","","","","","","","","","","","","","","","","","","","","","","","","","","","","","","","","","",""
"html-button-response","67","245333","0.0-4.0-1.0-1.15","3","1","bs3z4ekd595x0eq","","981.8999999761581","","What sound did you hear?","0","","","1","INDUCTION-JUDGMENT","left","0","","","","","","","","","","","","","","","","","","","","","","","","","","","","","","","","","","","","",""
"html-keyboard-response","68","246337","0.0-4.0-1.0-2.15","3","1","bs3z4ekd595x0eq","","null","","<p style=""color:green;""><b>Correct!</b></p>","","null","","","","","","","","","","","","","","","","","","","","","","","","","","","","","","","","","","","","","","","","","",""
"audio-keyboard-response","69","247145","0.0-4.0-1.0-0.16","3","1","bs3z4ekd595x0eq","","null","","sounds/induction/right/su_SWS.wav","","null","","","","","","","","","","","","","","","","","","","","","","","","","","","","","","","","","","","","","","","","","",""
"html-button-response","70","248906","0.0-4.0-1.0-1.16","3","1","bs3z4ekd595x0eq","","1757.199999988079","","What sound did you hear?","1","","","1","INDUCTION-JUDGMENT","right","1","","","","","","","","","","","","","","","","","","","","","","","","","","","","","","","","","","","","",""
"html-keyboard-response","71","249909","0.0-4.0-1.0-2.16","3","1","bs3z4ekd595x0eq","","null","","<p style=""color:green;""><b>Correct!</b></p>","","null","","","","","","","","","","","","","","","","","","","","","","","","","","","","","","","","","","","","","","","","","",""
"audio-keyboard-response","72","250713","0.0-4.0-1.0-0.17","3","1","bs3z4ekd595x0eq","","null","","sounds/induction/left/ti_SWS.wav","","null","","","","","","","","","","","","","","","","","","","","","","","","","","","","","","","","","","","","","","","","","",""
"html-button-response","73","252100","0.0-4.0-1.0-1.17","3","1","bs3z4ekd595x0eq","","1386.3999999761581","","What sound did you hear?","0","","","1","INDUCTION-JUDGMENT","left","0","","","","","","","","","","","","","","","","","","","","","","","","","","","","","","","","","","","","",""
"html-keyboard-response","74","253106","0.0-4.0-1.0-2.17","3","1","bs3z4ekd595x0eq","","null","","<p style=""color:green;""><b>Correct!</b></p>","","null","","","","","","","","","","","","","","","","","","","","","","","","","","","","","","","","","","","","","","","","","",""
"audio-keyboard-response","75","253913","0.0-4.0-1.0-0.18","3","1","bs3z4ekd595x0eq","","null","","sounds/induction/left/re_SWS.wav","","null","","","","","","","","","","","","","","","","","","","","","","","","","","","","","","","","","","","","","","","","","",""
"html-button-response","76","255095","0.0-4.0-1.0-1.18","3","1","bs3z4ekd595x0eq","","1180.800000011921","","What sound did you hear?","0","","","1","INDUCTION-JUDGMENT","left","0","","","","","","","","","","","","","","","","","","","","","","","","","","","","","","","","","","","","",""
"html-keyboard-response","77","256101","0.0-4.0-1.0-2.18","3","1","bs3z4ekd595x0eq","","null","","<p style=""color:green;""><b>Correct!</b></p>","","null","","","","","","","","","","","","","","","","","","","","","","","","","","","","","","","","","","","","","","","","","",""
"audio-keyboard-response","78","256904","0.0-4.0-1.0-0.19","3","1","bs3z4ekd595x0eq","","null","","sounds/induction/right/ta_SWS.wav","","null","","","","","","","","","","","","","","","","","","","","","","","","","","","","","","","","","","","","","","","","","",""
"html-button-response","79","258402","0.0-4.0-1.0-1.19","3","1","bs3z4ekd595x0eq","","1496.199999988079","","What sound did you hear?","0","","","0","INDUCTION-JUDGMENT","right","1","","","","","","","","","","","","","","","","","","","","","","","","","","","","","","","","","","","","",""
"html-keyboard-response","80","259408","0.0-4.0-1.0-2.19","3","1","bs3z4ekd595x0eq","","null","","<p style=""color:red;""><b>Incorrect!</b></p>","","null","","","","","","","","","","","","","","","","","","","","","","","","","","","","","","","","","","","","","","","","","",""
"audio-keyboard-response","81","260211","0.0-4.0-1.0-0.20","3","1","bs3z4ekd595x0eq","","null","","sounds/induction/left/ge_SWS.wav","","null","","","","","","","","","","","","","","","","","","","","","","","","","","","","","","","","","","","","","","","","","",""
"html-button-response","82","262201","0.0-4.0-1.0-1.20","3","1","bs3z4ekd595x0eq","","1989.0999999642372","","What sound did you hear?","0","","","0","INDUCTION-JUDGMENT","left","1","","","","","","","","","","","","","","","","","","","","","","","","","","","","","","","","","","","","",""
"html-keyboard-response","83","263204","0.0-4.0-1.0-2.20","3","1","bs3z4ekd595x0eq","","null","","<p style=""color:red;""><b>Incorrect!</b></p>","","null","","","","","","","","","","","","","","","","","","","","","","","","","","","","","","","","","","","","","","","","","",""
"audio-keyboard-response","84","264008","0.0-4.0-1.0-0.21","3","1","bs3z4ekd595x0eq","","null","","sounds/induction/left/ni_SWS.wav","","null","","","","","","","","","","","","","","","","","","","","","","","","","","","","","","","","","","","","","","","","","",""
"html-button-response","85","265572","0.0-4.0-1.0-1.21","3","1","bs3z4ekd595x0eq","","1562.3999999761581","","What sound did you hear?","1","","","1","INDUCTION-JUDGMENT","left","1","","","","","","","","","","","","","","","","","","","","","","","","","","","","","","","","","","","","",""
"html-keyboard-response","86","266575","0.0-4.0-1.0-2.21","3","1","bs3z4ekd595x0eq","","null","","<p style=""color:green;""><b>Correct!</b></p>","","null","","","","","","","","","","","","","","","","","","","","","","","","","","","","","","","","","","","","","","","","","",""
"audio-keyboard-response","87","267379","0.0-4.0-1.0-0.22","3","1","bs3z4ekd595x0eq","","null","","sounds/induction/left/fe_SWS.wav","","null","","","","","","","","","","","","","","","","","","","","","","","","","","","","","","","","","","","","","","","","","",""
"html-button-response","88","268502","0.0-4.0-1.0-1.22","3","1","bs3z4ekd595x0eq","","1121.699999988079","","What sound did you hear?","0","","","0","INDUCTION-JUDGMENT","left","1","","","","","","","","","","","","","","","","","","","","","","","","","","","","","","","","","","","","",""
"html-keyboard-response","89","269505","0.0-4.0-1.0-2.22","3","1","bs3z4ekd595x0eq","","null","","<p style=""color:red;""><b>Incorrect!</b></p>","","null","","","","","","","","","","","","","","","","","","","","","","","","","","","","","","","","","","","","","","","","","",""
"audio-keyboard-response","90","270307","0.0-4.0-1.0-0.23","3","1","bs3z4ekd595x0eq","","null","","sounds/induction/left/ko_SWS.wav","","null","","","","","","","","","","","","","","","","","","","","","","","","","","","","","","","","","","","","","","","","","",""
"html-button-response","91","271713","0.0-4.0-1.0-1.23","3","1","bs3z4ekd595x0eq","","1404.1000000238419","","What sound did you hear?","1","","","1","INDUCTION-JUDGMENT","left","1","","","","","","","","","","","","","","","","","","","","","","","","","","","","","","","","","","","","",""
"html-keyboard-response","92","272716","0.0-4.0-1.0-2.23","3","1","bs3z4ekd595x0eq","","null","","<p style=""color:green;""><b>Correct!</b></p>","","null","","","","","","","","","","","","","","","","","","","","","","","","","","","","","","","","","","","","","","","","","",""
"audio-keyboard-response","93","273523","0.0-4.0-1.0-0.24","3","1","bs3z4ekd595x0eq","","null","","sounds/induction/right/pu_SWS.wav","","null","","","","","","","","","","","","","","","","","","","","","","","","","","","","","","","","","","","","","","","","","",""
"html-button-response","94","274949","0.0-4.0-1.0-1.24","3","1","bs3z4ekd595x0eq","","1424.300000011921","","What sound did you hear?","1","","","1","INDUCTION-JUDGMENT","right","1","","","","","","","","","","","","","","","","","","","","","","","","","","","","","","","","","","","","",""
"html-keyboard-response","95","275953","0.0-4.0-1.0-2.24","3","1","bs3z4ekd595x0eq","","null","","<p style=""color:green;""><b>Correct!</b></p>","","null","","","","","","","","","","","","","","","","","","","","","","","","","","","","","","","","","","","","","","","","","",""
"audio-keyboard-response","96","276760","0.0-4.0-1.0-0.25","3","1","bs3z4ekd595x0eq","","null","","sounds/induction/right/su_SWS.wav","","null","","","","","","","","","","","","","","","","","","","","","","","","","","","","","","","","","","","","","","","","","",""
"html-button-response","97","277749","0.0-4.0-1.0-1.25","3","1","bs3z4ekd595x0eq","","987.1000000238419","","What sound did you hear?","1","","","1","INDUCTION-JUDGMENT","right","1","","","","","","","","","","","","","","","","","","","","","","","","","","","","","","","","","","","","",""
"html-keyboard-response","98","278752","0.0-4.0-1.0-2.25","3","1","bs3z4ekd595x0eq","","null","","<p style=""color:green;""><b>Correct!</b></p>","","null","","","","","","","","","","","","","","","","","","","","","","","","","","","","","","","","","","","","","","","","","",""
"audio-keyboard-response","99","279555","0.0-4.0-1.0-0.26","3","1","bs3z4ekd595x0eq","","null","","sounds/induction/left/ta_SWS.wav","","null","","","","","","","","","","","","","","","","","","","","","","","","","","","","","","","","","","","","","","","","","",""
"html-button-response","100","281426","0.0-4.0-1.0-1.26","3","1","bs3z4ekd595x0eq","","1869.5","","What sound did you hear?","0","","","1","INDUCTION-JUDGMENT","left","0","","","","","","","","","","","","","","","","","","","","","","","","","","","","","","","","","","","","",""
"html-keyboard-response","101","282430","0.0-4.0-1.0-2.26","3","1","bs3z4ekd595x0eq","","null","","<p style=""color:green;""><b>Correct!</b></p>","","null","","","","","","","","","","","","","","","","","","","","","","","","","","","","","","","","","","","","","","","","","",""
"audio-keyboard-response","102","283235","0.0-4.0-1.0-0.27","3","1","bs3z4ekd595x0eq","","null","","sounds/induction/right/ru_SWS.wav","","null","","","","","","","","","","","","","","","","","","","","","","","","","","","","","","","","","","","","","","","","","",""
"html-button-response","103","284267","0.0-4.0-1.0-1.27","3","1","bs3z4ekd595x0eq","","1030.2000000476837","","What sound did you hear?","1","","","1","INDUCTION-JUDGMENT","right","1","","","","","","","","","","","","","","","","","","","","","","","","","","","","","","","","","","","","",""
"html-keyboard-response","104","285273","0.0-4.0-1.0-2.27","3","1","bs3z4ekd595x0eq","","null","","<p style=""color:green;""><b>Correct!</b></p>","","null","","","","","","","","","","","","","","","","","","","","","","","","","","","","","","","","","","","","","","","","","",""
"audio-keyboard-response","105","286077","0.0-4.0-1.0-0.28","3","1","bs3z4ekd595x0eq","","null","","sounds/induction/right/ko_SWS.wav","","null","","","","","","","","","","","","","","","","","","","","","","","","","","","","","","","","","","","","","","","","","",""
"html-button-response","106","287547","0.0-4.0-1.0-1.28","3","1","bs3z4ekd595x0eq","","1468.8999999761581","","What sound did you hear?","0","","","1","INDUCTION-JUDGMENT","right","0","","","","","","","","","","","","","","","","","","","","","","","","","","","","","","","","","","","","",""
"html-keyboard-response","107","288549","0.0-4.0-1.0-2.28","3","1","bs3z4ekd595x0eq","","null","","<p style=""color:green;""><b>Correct!</b></p>","","null","","","","","","","","","","","","","","","","","","","","","","","","","","","","","","","","","","","","","","","","","",""
"audio-keyboard-response","108","289357","0.0-4.0-1.0-0.29","3","1","bs3z4ekd595x0eq","","null","","sounds/induction/left/su_SWS.wav","","null","","","","","","","","","","","","","","","","","","","","","","","","","","","","","","","","","","","","","","","","","",""
"html-button-response","109","290150","0.0-4.0-1.0-1.29","3","1","bs3z4ekd595x0eq","","789.4000000357628","","What sound did you hear?","0","","","1","INDUCTION-JUDGMENT","left","0","","","","","","","","","","","","","","","","","","","","","","","","","","","","","","","","","","","","",""
"html-keyboard-response","110","291154","0.0-4.0-1.0-2.29","3","1","bs3z4ekd595x0eq","","null","","<p style=""color:green;""><b>Correct!</b></p>","","null","","","","","","","","","","","","","","","","","","","","","","","","","","","","","","","","","","","","","","","","","",""
"audio-keyboard-response","111","291960","0.0-4.0-1.0-0.30","3","1","bs3z4ekd595x0eq","","null","","sounds/induction/left/pu_SWS.wav","","null","","","","","","","","","","","","","","","","","","","","","","","","","","","","","","","","","","","","","","","","","",""
"html-button-response","112","293561","0.0-4.0-1.0-1.30","3","1","bs3z4ekd595x0eq","","1599.1000000238419","","What sound did you hear?","1","","","0","INDUCTION-JUDGMENT","left","0","","","","","","","","","","","","","","","","","","","","","","","","","","","","","","","","","","","","",""
"html-keyboard-response","113","294566","0.0-4.0-1.0-2.30","3","1","bs3z4ekd595x0eq","","null","","<p style=""color:red;""><b>Incorrect!</b></p>","","null","","","","","","","","","","","","","","","","","","","","","","","","","","","","","","","","","","","","","","","","","",""
"audio-keyboard-response","114","295373","0.0-4.0-1.0-0.31","3","1","bs3z4ekd595x0eq","","null","","sounds/induction/right/re_SWS.wav","","null","","","","","","","","","","","","","","","","","","","","","","","","","","","","","","","","","","","","","","","","","",""
"html-button-response","115","296764","0.0-4.0-1.0-1.31","3","1","bs3z4ekd595x0eq","","1389","","What sound did you hear?","1","","","1","INDUCTION-JUDGMENT","right","1","","","","","","","","","","","","","","","","","","","","","","","","","","","","","","","","","","","","",""
"html-keyboard-response","116","297769","0.0-4.0-1.0-2.31","3","1","bs3z4ekd595x0eq","","null","","<p style=""color:green;""><b>Correct!</b></p>","","null","","","","","","","","","","","","","","","","","","","","","","","","","","","","","","","","","","","","","","","","","",""
"audio-keyboard-response","117","298573","0.0-4.0-1.0-0.32","3","1","bs3z4ekd595x0eq","","null","","sounds/induction/left/fe_SWS.wav","","null","","","","","","","","","","","","","","","","","","","","","","","","","","","","","","","","","","","","","","","","","",""
"html-button-response","118","299388","0.0-4.0-1.0-1.32","3","1","bs3z4ekd595x0eq","","812.6000000238419","","What sound did you hear?","0","","","0","INDUCTION-JUDGMENT","left","1","","","","","","","","","","","","","","","","","","","","","","","","","","","","","","","","","","","","",""
"html-keyboard-response","119","300393","0.0-4.0-1.0-2.32","3","1","bs3z4ekd595x0eq","","null","","<p style=""color:red;""><b>Incorrect!</b></p>","","null","","","","","","","","","","","","","","","","","","","","","","","","","","","","","","","","","","","","","","","","","",""
"audio-keyboard-response","120","301197","0.0-4.0-1.0-0.33","3","1","bs3z4ekd595x0eq","","null","","sounds/induction/right/ge_SWS.wav","","null","","","","","","","","","","","","","","","","","","","","","","","","","","","","","","","","","","","","","","","","","",""
"html-button-response","121","302478","0.0-4.0-1.0-1.33","3","1","bs3z4ekd595x0eq","","1279","","What sound did you hear?","0","","","1","INDUCTION-JUDGMENT","right","0","","","","","","","","","","","","","","","","","","","","","","","","","","","","","","","","","","","","",""
"html-keyboard-response","122","303481","0.0-4.0-1.0-2.33","3","1","bs3z4ekd595x0eq","","null","","<p style=""color:green;""><b>Correct!</b></p>","","null","","","","","","","","","","","","","","","","","","","","","","","","","","","","","","","","","","","","","","","","","",""
"audio-keyboard-response","123","304290","0.0-4.0-1.0-0.34","3","1","bs3z4ekd595x0eq","","null","","sounds/induction/left/re_SWS.wav","","null","","","","","","","","","","","","","","","","","","","","","","","","","","","","","","","","","","","","","","","","","",""
"html-button-response","124","306179","0.0-4.0-1.0-1.34","3","1","bs3z4ekd595x0eq","","1887","","What sound did you hear?","0","","","1","INDUCTION-JUDGMENT","left","0","","","","","","","","","","","","","","","","","","","","","","","","","","","","","","","","","","","","",""
"html-keyboard-response","125","307183","0.0-4.0-1.0-2.34","3","1","bs3z4ekd595x0eq","","null","","<p style=""color:green;""><b>Correct!</b></p>","","null","","","","","","","","","","","","","","","","","","","","","","","","","","","","","","","","","","","","","","","","","",""
"audio-keyboard-response","126","307986","0.0-4.0-1.0-0.35","3","1","bs3z4ekd595x0eq","","null","","sounds/induction/right/me_SWS.wav","","null","","","","","","","","","","","","","","","","","","","","","","","","","","","","","","","","","","","","","","","","","",""
"html-button-response","127","309832","0.0-4.0-1.0-1.35","3","1","bs3z4ekd595x0eq","","1843.1000000238419","","What sound did you hear?","0","","","1","INDUCTION-JUDGMENT","right","0","","","","","","","","","","","","","","","","","","","","","","","","","","","","","","","","","","","","",""
"html-keyboard-response","128","310839","0.0-4.0-1.0-2.35","3","1","bs3z4ekd595x0eq","","null","","<p style=""color:green;""><b>Correct!</b></p>","","null","","","","","","","","","","","","","","","","","","","","","","","","","","","","","","","","","","","","","","","","","",""
"audio-keyboard-response","129","311645","0.0-4.0-1.0-0.36","3","1","bs3z4ekd595x0eq","","null","","sounds/induction/right/ta_SWS.wav","","null","","","","","","","","","","","","","","","","","","","","","","","","","","","","","","","","","","","","","","","","","",""
"html-button-response","130","313405","0.0-4.0-1.0-1.36","3","1","bs3z4ekd595x0eq","","1757.6000000238419","","What sound did you hear?","1","","","1","INDUCTION-JUDGMENT","right","1","","","","","","","","","","","","","","","","","","","","","","","","","","","","","","","","","","","","",""
"html-keyboard-response","131","314407","0.0-4.0-1.0-2.36","3","1","bs3z4ekd595x0eq","","null","","<p style=""color:green;""><b>Correct!</b></p>","","null","","","","","","","","","","","","","","","","","","","","","","","","","","","","","","","","","","","","","","","","","",""
"audio-keyboard-response","132","315213","0.0-4.0-1.0-0.37","3","1","bs3z4ekd595x0eq","","null","","sounds/induction/right/ni_SWS.wav","","null","","","","","","","","","","","","","","","","","","","","","","","","","","","","","","","","","","","","","","","","","",""
"html-button-response","133","316293","0.0-4.0-1.0-1.37","3","1","bs3z4ekd595x0eq","","1078.5","","What sound did you hear?","0","","","1","INDUCTION-JUDGMENT","right","0","","","","","","","","","","","","","","","","","","","","","","","","","","","","","","","","","","","","",""
"html-keyboard-response","134","317296","0.0-4.0-1.0-2.37","3","1","bs3z4ekd595x0eq","","null","","<p style=""color:green;""><b>Correct!</b></p>","","null","","","","","","","","","","","","","","","","","","","","","","","","","","","","","","","","","","","","","","","","","",""
"audio-keyboard-response","135","318104","0.0-4.0-1.0-0.38","3","1","bs3z4ekd595x0eq","","null","","sounds/induction/left/su_SWS.wav","","null","","","","","","","","","","","","","","","","","","","","","","","","","","","","","","","","","","","","","","","","","",""
"html-button-response","136","318890","0.0-4.0-1.0-1.38","3","1","bs3z4ekd595x0eq","","784.6999999880791","","What sound did you hear?","0","","","1","INDUCTION-JUDGMENT","left","0","","","","","","","","","","","","","","","","","","","","","","","","","","","","","","","","","","","","",""
"html-keyboard-response","137","319895","0.0-4.0-1.0-2.38","3","1","bs3z4ekd595x0eq","","null","","<p style=""color:green;""><b>Correct!</b></p>","","null","","","","","","","","","","","","","","","","","","","","","","","","","","","","","","","","","","","","","","","","","",""
"audio-keyboard-response","138","320701","0.0-4.0-1.0-0.39","3","1","bs3z4ekd595x0eq","","null","","sounds/induction/right/fe_SWS.wav","","null","","","","","","","","","","","","","","","","","","","","","","","","","","","","","","","","","","","","","","","","","",""
"html-button-response","139","321770","0.0-4.0-1.0-1.39","3","1","bs3z4ekd595x0eq","","1068","","What sound did you hear?","0","","","1","INDUCTION-JUDGMENT","right","0","","","","","","","","","","","","","","","","","","","","","","","","","","","","","","","","","","","","",""
"html-keyboard-response","140","322771","0.0-4.0-1.0-2.39","3","1","bs3z4ekd595x0eq","","null","","<p style=""color:green;""><b>Correct!</b></p>","","null","","","","","","","","","","","","","","","","","","","","","","","","","","","","","","","","","","","","","","","","","",""
"audio-keyboard-response","141","323576","0.0-4.0-1.0-0.40","3","1","bs3z4ekd595x0eq","","null","","sounds/induction/right/ru_SWS.wav","","null","","","","","","","","","","","","","","","","","","","","","","","","","","","","","","","","","","","","","","","","","",""
"html-button-response","142","324546","0.0-4.0-1.0-1.40","3","1","bs3z4ekd595x0eq","","968.8999999761581","","What sound did you hear?","1","","","1","INDUCTION-JUDGMENT","right","1","","","","","","","","","","","","","","","","","","","","","","","","","","","","","","","","","","","","",""
"html-keyboard-response","143","325552","0.0-4.0-1.0-2.40","3","1","bs3z4ekd595x0eq","","null","","<p style=""color:green;""><b>Correct!</b></p>","","null","","","","","","","","","","","","","","","","","","","","","","","","","","","","","","","","","","","","","","","","","",""
"audio-keyboard-response","144","326359","0.0-4.0-1.0-0.41","3","1","bs3z4ekd595x0eq","","null","","sounds/induction/left/fu_SWS.wav","","null","","","","","","","","","","","","","","","","","","","","","","","","","","","","","","","","","","","","","","","","","",""
"html-button-response","145","328986","0.0-4.0-1.0-1.41","3","1","bs3z4ekd595x0eq","","2625.100000023842","","What sound did you hear?","1","","","1","INDUCTION-JUDGMENT","left","1","","","","","","","","","","","","","","","","","","","","","","","","","","","","","","","","","","","","",""
"html-keyboard-response","146","329988","0.0-4.0-1.0-2.41","3","1","bs3z4ekd595x0eq","","null","","<p style=""color:green;""><b>Correct!</b></p>","","null","","","","","","","","","","","","","","","","","","","","","","","","","","","","","","","","","","","","","","","","","",""
"audio-keyboard-response","147","330791","0.0-4.0-1.0-0.42","3","1","bs3z4ekd595x0eq","","null","","sounds/induction/left/ko_SWS.wav","","null","","","","","","","","","","","","","","","","","","","","","","","","","","","","","","","","","","","","","","","","","",""
"html-button-response","148","332206","0.0-4.0-1.0-1.42","3","1","bs3z4ekd595x0eq","","1412.800000011921","","What sound did you hear?","1","","","1","INDUCTION-JUDGMENT","left","1","","","","","","","","","","","","","","","","","","","","","","","","","","","","","","","","","","","","",""
"html-keyboard-response","149","333207","0.0-4.0-1.0-2.42","3","1","bs3z4ekd595x0eq","","null","","<p style=""color:green;""><b>Correct!</b></p>","","null","","","","","","","","","","","","","","","","","","","","","","","","","","","","","","","","","","","","","","","","","",""
"audio-keyboard-response","150","334013","0.0-4.0-1.0-0.43","3","1","bs3z4ekd595x0eq","","null","","sounds/induction/left/ni_SWS.wav","","null","","","","","","","","","","","","","","","","","","","","","","","","","","","","","","","","","","","","","","","","","",""
"html-button-response","151","341129","0.0-4.0-1.0-1.43","3","1","bs3z4ekd595x0eq","","7115.899999976158","","What sound did you hear?","0","","","0","INDUCTION-JUDGMENT","left","1","","","","","","","","","","","","","","","","","","","","","","","","","","","","","","","","","","","","",""
"html-keyboard-response","152","342134","0.0-4.0-1.0-2.43","3","1","bs3z4ekd595x0eq","","null","","<p style=""color:red;""><b>Incorrect!</b></p>","","null","","","","","","","","","","","","","","","","","","","","","","","","","","","","","","","","","","","","","","","","","",""
"audio-keyboard-response","153","342941","0.0-4.0-1.0-0.44","3","1","bs3z4ekd595x0eq","","null","","sounds/induction/left/fu_SWS.wav","","null","","","","","","","","","","","","","","","","","","","","","","","","","","","","","","","","","","","","","","","","","",""
"html-button-response","154","344935","0.0-4.0-1.0-1.44","3","1","bs3z4ekd595x0eq","","1993.4000000357628","","What sound did you hear?","1","","","1","INDUCTION-JUDGMENT","left","1","","","","","","","","","","","","","","","","","","","","","","","","","","","","","","","","","","","","",""
"html-keyboard-response","155","345940","0.0-4.0-1.0-2.44","3","1","bs3z4ekd595x0eq","","null","","<p style=""color:green;""><b>Correct!</b></p>","","null","","","","","","","","","","","","","","","","","","","","","","","","","","","","","","","","","","","","","","","","","",""
"audio-keyboard-response","156","346743","0.0-4.0-1.0-0.45","3","1","bs3z4ekd595x0eq","","null","","sounds/induction/right/ti_SWS.wav","","null","","","","","","","","","","","","","","","","","","","","","","","","","","","","","","","","","","","","","","","","","",""
"html-button-response","157","348540","0.0-4.0-1.0-1.45","3","1","bs3z4ekd595x0eq","","1794.8999999761581","","What sound did you hear?","1","","","1","INDUCTION-JUDGMENT","right","1","","","","","","","","","","","","","","","","","","","","","","","","","","","","","","","","","","","","",""
"html-keyboard-response","158","349543","0.0-4.0-1.0-2.45","3","1","bs3z4ekd595x0eq","","null","","<p style=""color:green;""><b>Correct!</b></p>","","null","","","","","","","","","","","","","","","","","","","","","","","","","","","","","","","","","","","","","","","","","",""
"audio-keyboard-response","159","350349","0.0-4.0-1.0-0.46","3","1","bs3z4ekd595x0eq","","null","","sounds/induction/right/ni_SWS.wav","","null","","","","","","","","","","","","","","","","","","","","","","","","","","","","","","","","","","","","","","","","","",""
"html-button-response","160","351898","0.0-4.0-1.0-1.46","3","1","bs3z4ekd595x0eq","","1546.5999999642372","","What sound did you hear?","0","","","1","INDUCTION-JUDGMENT","right","0","","","","","","","","","","","","","","","","","","","","","","","","","","","","","","","","","","","","",""
"html-keyboard-response","161","352903","0.0-4.0-1.0-2.46","3","1","bs3z4ekd595x0eq","","null","","<p style=""color:green;""><b>Correct!</b></p>","","null","","","","","","","","","","","","","","","","","","","","","","","","","","","","","","","","","","","","","","","","","",""
"audio-keyboard-response","162","353708","0.0-4.0-1.0-0.47","3","1","bs3z4ekd595x0eq","","null","","sounds/induction/left/ge_SWS.wav","","null","","","","","","","","","","","","","","","","","","","","","","","","","","","","","","","","","","","","","","","","","",""
"html-button-response","163","355019","0.0-4.0-1.0-1.47","3","1","bs3z4ekd595x0eq","","1308.4000000357628","","What sound did you hear?","1","","","1","INDUCTION-JUDGMENT","left","1","","","","","","","","","","","","","","","","","","","","","","","","","","","","","","","","","","","","",""
"html-keyboard-response","164","356025","0.0-4.0-1.0-2.47","3","1","bs3z4ekd595x0eq","","null","","<p style=""color:green;""><b>Correct!</b></p>","","null","","","","","","","","","","","","","","","","","","","","","","","","","","","","","","","","","","","","","","","","","",""
"html-button-response","165","383031","0.0-5.0-0.0","3","1","bs3z4ekd595x0eq","","26500.600000023842","","<p>Thank you for your answers.</p><p>You will now listen to similar sounds. The main difference is that the sounds will be longer and will make up complete sentences.</p><p>Please listen carefully to each sentence. After each sentence, you will be asked to type back what you heard to the best of your ability. After you provide your response, you will be given feedback about the correct answer.</p><p>There are 10 sentences in total.","0","","","","","","","","","","","","","","","","","","","","","","","","","","","","","","","","","","","","","","","","","","",""
"audio-keyboard-response","166","385617","0.0-5.0-1.0-0.0","3","1","bs3z4ekd595x0eq","","null","","sounds/sentences/left/14_03_cfSWS.wav","","null","","","","","","","","","","","","","","","","","","","","","","","","","","","","","","","","","","","","","","","","","",""
"sentence-resp","167","430513","0.0-5.0-1.0-1.0","3","1","bs3z4ekd595x0eq","","44890","","","","","","","SWS-SENT-RESPONSE","","","{""Q0"":""ree ir ree ree ree""}","Pluck the bright rose without leaves.","pluck,bright,rose,without,leaves","REE IR REE REE REE","0","0","0","0","0","0","0","","","","","","","","","","","","","","","","","","","","","","","","","",""
"html-keyboard-response","168","431774","0.0-5.0-1.0-2.0","3","1","bs3z4ekd595x0eq","","null","","","","null","","","","","","","","","","","","","","","","","","","","","","","","","","","","","","","","","","","","","","","","","",""
"audio-keyboard-response","169","433907","0.0-5.0-1.0-3.0","3","1","bs3z4ekd595x0eq","","null","","sounds/sentences/left/14_03_cfSWS.wav","","null","","","","","","","","","","","","","","","","","","","","","","","","","","","","","","","","","","","","","","","","","",""
"html-keyboard-response","170","434913","0.0-5.0-1.0-4.0","3","1","bs3z4ekd595x0eq","","null","","","","null","","","","","","","","","","","","","","","","","","","","","","","","","","","","","","","","","","","","","","","","","",""
"html-button-response","171","466507","0.0-5.0-1.0-5.0","3","1","bs3z4ekd595x0eq","","31091.19999998808","","<p>Press the button below when you are ready to continue.</p>","0","","","","","","","","","","","","","","","","","","","","","","","","","","","","","","","","","","","","","","","","","","",""
"audio-keyboard-response","172","469112","0.0-5.0-1.0-0.1","3","1","bs3z4ekd595x0eq","","null","","sounds/sentences/left/14_04_cfSWS.wav","","null","","","","","","","","","","","","","","","","","","","","","","","","","","","","","","","","","","","","","","","","","",""
"sentence-resp","173","554979","0.0-5.0-1.0-1.1","3","1","bs3z4ekd595x0eq","","85866","","","","","","","SWS-SENT-RESPONSE","","","{""Q0"":""tuck the roi roi""}","Two plus seven is less than ten.","two,plus,seven,less,ten","TUCK THE ROI ROI","0","0","0","0","0","0","0","","","","","","","","","","","","","","","","","","","","","","","","","",""
"html-keyboard-response","174","556240","0.0-5.0-1.0-2.1","3","1","bs3z4ekd595x0eq","","null","","","","null","","","","","","","","","","","","","","","","","","","","","","","","","","","","","","","","","","","","","","","","","",""
"audio-keyboard-response","175","558343","0.0-5.0-1.0-3.1","3","1","bs3z4ekd595x0eq","","null","","sounds/sentences/left/14_04_cfSWS.wav","","null","","","","","","","","","","","","","","","","","","","","","","","","","","","","","","","","","","","","","","","","","",""
"html-keyboard-response","176","559346","0.0-5.0-1.0-4.1","3","1","bs3z4ekd595x0eq","","null","","","","null","","","","","","","","","","","","","","","","","","","","","","","","","","","","","","","","","","","","","","","","","",""
"html-button-response","177","578453","0.0-5.0-1.0-5.1","3","1","bs3z4ekd595x0eq","","18600.399999976158","","<p>Press the button below when you are ready to continue.</p>","0","","","","","","","","","","","","","","","","","","","","","","","","","","","","","","","","","","","","","","","","","","",""
"audio-keyboard-response","178","581345","0.0-5.0-1.0-0.2","3","1","bs3z4ekd595x0eq","","null","","sounds/sentences/right/14_07_cfSWS.wav","","null","","","","","","","","","","","","","","","","","","","","","","","","","","","","","","","","","","","","","","","","","",""
"sentence-resp","179","614511","0.0-5.0-1.0-1.2","3","1","bs3z4ekd595x0eq","","33163","","","","","","","SWS-SENT-RESPONSE","","","{""Q0"":""renaissance fair is this week""}","Write a fond note to the friend you cherish.","write,fond,note,friend,cherish","RENAISSANCE FAIR IS THIS WEEK","0","0","0","0","0","0","0","","","","","","","","","","","","","","","","","","","","","","","","","",""
"html-keyboard-response","180","615772","0.0-5.0-1.0-2.2","3","1","bs3z4ekd595x0eq","","null","","","","null","","","","","","","","","","","","","","","","","","","","","","","","","","","","","","","","","","","","","","","","","",""
"audio-keyboard-response","181","618204","0.0-5.0-1.0-3.2","3","1","bs3z4ekd595x0eq","","null","","sounds/sentences/right/14_07_cfSWS.wav","","null","","","","","","","","","","","","","","","","","","","","","","","","","","","","","","","","","","","","","","","","","",""
"html-keyboard-response","182","619206","0.0-5.0-1.0-4.2","3","1","bs3z4ekd595x0eq","","null","","","","null","","","","","","","","","","","","","","","","","","","","","","","","","","","","","","","","","","","","","","","","","",""
"html-button-response","183","638266","0.0-5.0-1.0-5.2","3","1","bs3z4ekd595x0eq","","18554.30000001192","","<p>Press the button below when you are ready to continue.</p>","0","","","","","","","","","","","","","","","","","","","","","","","","","","","","","","","","","","","","","","","","","","",""
"audio-keyboard-response","184","641088","0.0-5.0-1.0-0.3","3","1","bs3z4ekd595x0eq","","null","","sounds/sentences/left/14_02_cfSWS.wav","","null","","","","","","","","","","","","","","","","","","","","","","","","","","","","","","","","","","","","","","","","","",""
"sentence-resp","185","662094","0.0-5.0-1.0-1.3","3","1","bs3z4ekd595x0eq","","21002","","","","","","","SWS-SENT-RESPONSE","","","{""Q0"":""these spell the same things thirty times""}","He said the same phrase thirty times.","said,same,phrase,thirty,times","THESE SPELL THE SAME THINGS THIRTY TIMES","0","1","0","1","1","3","0.6","","","","","","","","","","","","","","","","","","","","","","","","","",""
"html-keyboard-response","186","663358","0.0-5.0-1.0-2.3","3","1","bs3z4ekd595x0eq","","null","","","","null","","","","","","","","","","","","","","","","","","","","","","","","","","","","","","","","","","","","","","","","","",""
"audio-keyboard-response","187","665675","0.0-5.0-1.0-3.3","3","1","bs3z4ekd595x0eq","","null","","sounds/sentences/left/14_02_cfSWS.wav","","null","","","","","","","","","","","","","","","","","","","","","","","","","","","","","","","","","","","","","","","","","",""
"html-keyboard-response","188","666682","0.0-5.0-1.0-4.3","3","1","bs3z4ekd595x0eq","","null","","","","null","","","","","","","","","","","","","","","","","","","","","","","","","","","","","","","","","","","","","","","","","",""
"html-button-response","189","702737","0.0-5.0-1.0-5.3","3","1","bs3z4ekd595x0eq","","35553.5","","<p>Press the button below when you are ready to continue.</p>","0","","","","","","","","","","","","","","","","","","","","","","","","","","","","","","","","","","","","","","","","","","",""
"audio-keyboard-response","190","705809","0.0-5.0-1.0-0.4","3","1","bs3z4ekd595x0eq","","null","","sounds/sentences/right/14_10_cfSWS.wav","","null","","","","","","","","","","","","","","","","","","","","","","","","","","","","","","","","","","","","","","","","","",""
"sentence-resp","191","731470","0.0-5.0-1.0-1.4","3","1","bs3z4ekd595x0eq","","25658","","","","","","","SWS-SENT-RESPONSE","","","{""Q0"":""sorry i cant show up""}","Port is a strong wine with a smoky taste.","port,strong,wine,smoky,taste","SORRY I CANT SHOW UP","0","0","0","0","0","0","0","","","","","","","","","","","","","","","","","","","","","","","","","",""
"html-keyboard-response","192","732725","0.0-5.0-1.0-2.4","3","1","bs3z4ekd595x0eq","","null","","","","null","","","","","","","","","","","","","","","","","","","","","","","","","","","","","","","","","","","","","","","","","",""
"audio-keyboard-response","193","735243","0.0-5.0-1.0-3.4","3","1","bs3z4ekd595x0eq","","null","","sounds/sentences/right/14_10_cfSWS.wav","","null","","","","","","","","","","","","","","","","","","","","","","","","","","","","","","","","","","","","","","","","","",""
"html-keyboard-response","194","736249","0.0-5.0-1.0-4.4","3","1","bs3z4ekd595x0eq","","null","","","","null","","","","","","","","","","","","","","","","","","","","","","","","","","","","","","","","","","","","","","","","","",""
"html-button-response","195","746114","0.0-5.0-1.0-5.4","3","1","bs3z4ekd595x0eq","","9362.699999988079","","<p>Press the button below when you are ready to continue.</p>","0","","","","","","","","","","","","","","","","","","","","","","","","","","","","","","","","","","","","","","","","","","",""
"audio-keyboard-response","196","748869","0.0-5.0-1.0-0.5","3","1","bs3z4ekd595x0eq","","null","","sounds/sentences/right/14_08_cfSWS.wav","","null","","","","","","","","","","","","","","","","","","","","","","","","","","","","","","","","","","","","","","","","","",""
"sentence-resp","197","764817","0.0-5.0-1.0-1.5","3","1","bs3z4ekd595x0eq","","15945","","","","","","","SWS-SENT-RESPONSE","","","{""Q0"":""I went to watch a new movie""}","Clothes and lodging are free to new men.","clothes,lodging,free,new,men","I WENT TO WATCH A NEW MOVIE","0","0","0","1","0","1","0.2","","","","","","","","","","","","","","","","","","","","","","","","","",""
"html-keyboard-response","198","766080","0.0-5.0-1.0-2.5","3","1","bs3z4ekd595x0eq","","null","","","","null","","","","","","","","","","","","","","","","","","","","","","","","","","","","","","","","","","","","","","","","","",""
"audio-keyboard-response","199","768336","0.0-5.0-1.0-3.5","3","1","bs3z4ekd595x0eq","","null","","sounds/sentences/right/14_08_cfSWS.wav","","null","","","","","","","","","","","","","","","","","","","","","","","","","","","","","","","","","","","","","","","","","",""
"html-keyboard-response","200","769343","0.0-5.0-1.0-4.5","3","1","bs3z4ekd595x0eq","","null","","","","null","","","","","","","","","","","","","","","","","","","","","","","","","","","","","","","","","","","","","","","","","",""
"html-button-response","201","786736","0.0-5.0-1.0-5.5","3","1","bs3z4ekd595x0eq","","16888","","<p>Press the button below when you are ready to continue.</p>","0","","","","","","","","","","","","","","","","","","","","","","","","","","","","","","","","","","","","","","","","","","",""
"audio-keyboard-response","202","789487","0.0-5.0-1.0-0.6","3","1","bs3z4ekd595x0eq","","null","","sounds/sentences/right/14_06_cfSWS.wav","","null","","","","","","","","","","","","","","","","","","","","","","","","","","","","","","","","","","","","","","","","","",""
"sentence-resp","203","806041","0.0-5.0-1.0-1.6","3","1","bs3z4ekd595x0eq","","16550","","","","","","","SWS-SENT-RESPONSE","","","{""Q0"":""thirty or seven ""}","Bring your problems to the wise chief.","bring,your,problems,wise,chief","THIRTY OR SEVEN ","0","0","0","0","0","0","0","","","","","","","","","","","","","","","","","","","","","","","","","",""
"html-keyboard-response","204","807298","0.0-5.0-1.0-2.6","3","1","bs3z4ekd595x0eq","","null","","","","null","","","","","","","","","","","","","","","","","","","","","","","","","","","","","","","","","","","","","","","","","",""
"audio-keyboard-response","205","809541","0.0-5.0-1.0-3.6","3","1","bs3z4ekd595x0eq","","null","","sounds/sentences/right/14_06_cfSWS.wav","","null","","","","","","","","","","","","","","","","","","","","","","","","","","","","","","","","","","","","","","","","","",""
"html-keyboard-response","206","810545","0.0-5.0-1.0-4.6","3","1","bs3z4ekd595x0eq","","null","","","","null","","","","","","","","","","","","","","","","","","","","","","","","","","","","","","","","","","","","","","","","","",""
"html-button-response","207","821981","0.0-5.0-1.0-5.6","3","1","bs3z4ekd595x0eq","","10934.900000035763","","<p>Press the button below when you are ready to continue.</p>","0","","","","","","","","","","","","","","","","","","","","","","","","","","","","","","","","","","","","","","","","","","",""
"audio-keyboard-response","208","824975","0.0-5.0-1.0-0.7","3","1","bs3z4ekd595x0eq","","null","","sounds/sentences/left/14_05_cfSWS.wav","","null","","","","","","","","","","","","","","","","","","","","","","","","","","","","","","","","","","","","","","","","","",""
"sentence-resp","209","843990","0.0-5.0-1.0-1.7","3","1","bs3z4ekd595x0eq","","19012","","","","","","","SWS-SENT-RESPONSE","","","{""Q0"":""i went to see a united three year old""}","The glow deepened in the eyes of the sweet girl.","glow,deepened,eyes,sweet,girl","I WENT TO SEE A UNITED THREE YEAR OLD","0","0","0","0","0","0","0","","","","","","","","","","","","","","","","","","","","","","","","","",""
"html-keyboard-response","210","845252","0.0-5.0-1.0-2.7","3","1","bs3z4ekd595x0eq","","null","","","","null","","","","","","","","","","","","","","","","","","","","","","","","","","","","","","","","","","","","","","","","","",""
"audio-keyboard-response","211","847743","0.0-5.0-1.0-3.7","3","1","bs3z4ekd595x0eq","","null","","sounds/sentences/left/14_05_cfSWS.wav","","null","","","","","","","","","","","","","","","","","","","","","","","","","","","","","","","","","","","","","","","","","",""
"html-keyboard-response","212","848747","0.0-5.0-1.0-4.7","3","1","bs3z4ekd595x0eq","","null","","","","null","","","","","","","","","","","","","","","","","","","","","","","","","","","","","","","","","","","","","","","","","",""
"html-button-response","213","882459","0.0-5.0-1.0-5.7","3","1","bs3z4ekd595x0eq","","33208.30000001192","","<p>Press the button below when you are ready to continue.</p>","0","","","","","","","","","","","","","","","","","","","","","","","","","","","","","","","","","","","","","","","","","","",""
"audio-keyboard-response","214","885234","0.0-5.0-1.0-0.8","3","1","bs3z4ekd595x0eq","","null","","sounds/sentences/right/14_09_cfSWS.wav","","null","","","","","","","","","","","","","","","","","","","","","","","","","","","","","","","","","","","","","","","","","",""
"sentence-resp","215","904415","0.0-5.0-1.0-1.8","3","1","bs3z4ekd595x0eq","","19176","","","","","","","SWS-SENT-RESPONSE","","","{""Q0"":""If I did not I did not""}","We frown when events take a bad turn.","frown,events,take,bad,turn","IF I DID NOT I DID NOT","0","0","0","0","0","0","0","","","","","","","","","","","","","","","","","","","","","","","","","",""
"html-keyboard-response","216","905671","0.0-5.0-1.0-2.8","3","1","bs3z4ekd595x0eq","","null","","","","null","","","","","","","","","","","","","","","","","","","","","","","","","","","","","","","","","","","","","","","","","",""
"audio-keyboard-response","217","907900","0.0-5.0-1.0-3.8","3","1","bs3z4ekd595x0eq","","null","","sounds/sentences/right/14_09_cfSWS.wav","","null","","","","","","","","","","","","","","","","","","","","","","","","","","","","","","","","","","","","","","","","","",""
"html-keyboard-response","218","908905","0.0-5.0-1.0-4.8","3","1","bs3z4ekd595x0eq","","null","","","","null","","","","","","","","","","","","","","","","","","","","","","","","","","","","","","","","","","","","","","","","","",""
"html-button-response","219","964957","0.0-5.0-1.0-5.8","3","1","bs3z4ekd595x0eq","","55548.59999996424","","<p>Press the button below when you are ready to continue.</p>","0","","","","","","","","","","","","","","","","","","","","","","","","","","","","","","","","","","","","","","","","","","",""
"audio-keyboard-response","220","968129","0.0-5.0-1.0-0.9","3","1","bs3z4ekd595x0eq","","null","","sounds/sentences/left/14_01_cfSWS.wav","","null","","","","","","","","","","","","","","","","","","","","","","","","","","","","","","","","","","","","","","","","","",""
"sentence-resp","221","983809","0.0-5.0-1.0-1.9","3","1","bs3z4ekd595x0eq","","15677","","","","","","","SWS-SENT-RESPONSE","","","{""Q0"":""I frown on the small angel forever""}","A cramp is no small danger on a swim.","cramp,no,small,danger,swim","I FROWN ON THE SMALL ANGEL FOREVER","0","0","1","0","0","1","0.2","","","","","","","","","","","","","","","","","","","","","","","","","",""
"html-keyboard-response","222","985068","0.0-5.0-1.0-2.9","3","1","bs3z4ekd595x0eq","","null","","","","null","","","","","","","","","","","","","","","","","","","","","","","","","","","","","","","","","","","","","","","","","",""
"audio-keyboard-response","223","987686","0.0-5.0-1.0-3.9","3","1","bs3z4ekd595x0eq","","null","","sounds/sentences/left/14_01_cfSWS.wav","","null","","","","","","","","","","","","","","","","","","","","","","","","","","","","","","","","","","","","","","","","","",""
"html-keyboard-response","224","988692","0.0-5.0-1.0-4.9","3","1","bs3z4ekd595x0eq","","null","","","","null","","","","","","","","","","","","","","","","","","","","","","","","","","","","","","","","","","","","","","","","","",""
"html-button-response","225","1017935","0.0-5.0-1.0-5.9","3","1","bs3z4ekd595x0eq","","28738.19999998808","","<p>Press the button below when you are ready to continue.</p>","0","","","","","","","","","","","","","","","","","","","","","","","","","","","","","","","","","","","","","","","","","","",""
"html-keyboard-response","226","1059408","0.0-6.0-0.0","3","1","bs3z4ekd595x0eq","","40968.700000047684","","<p>In this part of the study, you will hear sounds similar to those you just heard.</p><p>Please focus on these sounds, as you may be asked questions about them later.</p><p>Occasionally, the sounds will pause for up to two seconds. When this happens, please press SPACEBAR as quickly as you can.</br>This helps ensure that you are paying attention to the sounds.</p><p>This part of the study will take about 12 minutes to complete, and you will be given the opportunity to take a couple of short breaks every few minutes.</p><p><strong>Press SPACEBAR to begin</strong></p>","","32","","","","","","","","","","","","","","","","","","","","","","","","","","","","","","","","","","","","","","","","","",""
"html-keyboard-response","227","1060413","0.0-6.0-1.0-0.0","3","1","bs3z4ekd595x0eq","","null","","<p style=""font-size: 40px;"">+</p>","","null","","","","","","","","","","","","","","","","","","","","","","","","","","","","","","","","","","","","","","","","","",""
"html-keyboard-response","228","1245422","0.0-6.0-1.0-1.0","3","1","bs3z4ekd595x0eq","","null","","","","null","","","SL-TRAIN","","","","","","","","","","","","","","0","698.5","1967.5","sounds/C/TRAIN/SEQ__12.mp3","3","","","","","","","","","","","","","","","","","","","","",""
"html-button-response","229","1287063","0.0-6.0-1.0-2.0","3","1","bs3z4ekd595x0eq","","41638.39999997616","","<p>You may take a short break if you wish.</p>","0","","","","","","","","","","","","","","","","","","","","","","","","","","","","","","","","","","","","","","","","","","",""
"html-keyboard-response","230","1288068","0.0-6.0-1.0-3.0","3","1","bs3z4ekd595x0eq","","null","","<p style=""font-size: 40px;"">+</p>","","null","","","","","","","","","","","","","","","","","","","","","","","","","","","","","","","","","","","","","","","","","",""
"html-keyboard-response","231","1473068","0.0-6.0-1.0-4.0","3","1","bs3z4ekd595x0eq","","null","","","","null","","","SL-TRAIN","","","","","","","","","","","","","","0","1921.9000000357628","1812.6000000238419","sounds/C/TRAIN/SEQ__04.mp3","21","","","","","","","","","","","","","","","","","","","","",""
"html-button-response","232","1503028","0.0-6.0-1.0-5.0","3","1","bs3z4ekd595x0eq","","29956.5","","<p>You may take a short break if you wish.</p>","0","","","","","","","","","","","","","","","","","","","","","","","","","","","","","","","","","","","","","","","","","","",""
"html-keyboard-response","233","1504032","0.0-6.0-1.0-6.0","3","1","bs3z4ekd595x0eq","","null","","<p style=""font-size: 40px;"">+</p>","","null","","","","","","","","","","","","","","","","","","","","","","","","","","","","","","","","","","","","","","","","","",""
"html-keyboard-response","234","1689035","0.0-6.0-1.0-7.0","3","1","bs3z4ekd595x0eq","","null","","","","null","","","SL-TRAIN","","","","","","","","","","","","","","1","null","1882.2999999523163","sounds/C/TRAIN/SEQ__07.mp3","52","","","","","","","","","","","","","","","","","","","","",""
"html-button-response","235","1695618","0.0-6.0-1.0-8.0","3","1","bs3z4ekd595x0eq","","6579.399999976158","","<p>You may take a short break if you wish.</p>","0","","","","","","","","","","","","","","","","","","","","","","","","","","","","","","","","","","","","","","","","","","",""
"html-keyboard-response","236","1696622","0.0-6.0-1.0-9.0","3","1","bs3z4ekd595x0eq","","null","","<p style=""font-size: 40px;"">+</p>","","null","","","","","","","","","","","","","","","","","","","","","","","","","","","","","","","","","","","","","","","","","",""
"html-keyboard-response","237","1881622","0.0-6.0-1.0-10.0","3","1","bs3z4ekd595x0eq","","null","","","","null","","","SL-TRAIN","","","","","","","","","","","","","","1","1933.699999988079","null","sounds/C/TRAIN/SEQ__08.mp3","114","","","","","","","","","","","","","","","","","","","","",""
"html-button-response","238","1907346","0.0-6.0-1.0-11.0","3","1","bs3z4ekd595x0eq","","25721.30000001192","","<p>You may take a short break if you wish.</p>","0","","","","","","","","","","","","","","","","","","","","","","","","","","","","","","","","","","","","","","","","","","",""
"html-button-response","239","1935210","0.0-7.0-0.0","3","1","bs3z4ekd595x0eq","","27862.900000035763","","<p>Welcome to the second part of the study. This is a <u>familiarity task</u>.</p><p>You will now hear short sounds and will be asked to rate how familiar they sound to you <b>based on what you heard in the previous part of the study</b>.</p><p>You will rate 12 sounds in total.</p>","0","","","","","","","","","","","","","","","","","","","","","","","","","","","","","","","","","","","","","","","","","","",""
"html-keyboard-response","240","1936215","0.0-7.0-1.0-0.0","3","1","bs3z4ekd595x0eq","","null","","","","null","","","","","","","","","","","","","","","","","","","","","","","","","","","","","","","","","","","","","","","","","",""
"audio-keyboard-response","241","1937220","0.0-7.0-1.0-1.0","3","1","bs3z4ekd595x0eq","","null","","sounds/C/FAM/N001.mp3","","null","","","","","","","","","","","","","","","","","","","","","","","","","","","","","","","","","","","","","","","","","",""
"html-keyboard-response","242","1949047","0.0-7.0-1.0-2.0","3","1","bs3z4ekd595x0eq","","11323.099999964237","","<p>How familiar did this sound to you?</p><p>1&nbsp;&nbsp;&nbsp;&nbsp;&nbsp;&nbsp;&nbsp;&nbsp;&nbsp;&nbsp;&nbsp;&nbsp;&nbsp;&nbsp;&nbsp;&nbsp;&nbsp;&nbsp;&nbsp;2&nbsp;&nbsp;&nbsp;&nbsp;&nbsp;&nbsp;&nbsp;&nbsp;&nbsp;&nbsp;&nbsp;&nbsp;&nbsp;&nbsp;&nbsp;&nbsp;&nbsp;&nbsp;&nbsp;3&nbsp;&nbsp;&nbsp;&nbsp;&nbsp;&nbsp;&nbsp;&nbsp;&nbsp;&nbsp;&nbsp;&nbsp;&nbsp;&nbsp;&nbsp;&nbsp;&nbsp;&nbsp;&nbsp;4</p><p style=""font-size:14px"">Not at all familiar&nbsp;&nbsp;&nbsp;&nbsp;A little familiar&nbsp;&nbsp;&nbsp;Moderately familiar&nbsp;&nbsp;&nbsp;Extremely familiar</p><p>(press the corresponding number on your keyboard)</p>","","52","","","FAM-RESPONSE","","","","","","","","","","","","","","","","","","","sounds/C/FAM/N001.mp3","nonword","","","","","","","","","","","","","","","","","","",""
"html-keyboard-response","243","1951052","0.0-7.0-1.0-0.1","3","1","bs3z4ekd595x0eq","","null","","","","null","","","","","","","","","","","","","","","","","","","","","","","","","","","","","","","","","","","","","","","","","",""
"audio-keyboard-response","244","1951997","0.0-7.0-1.0-1.1","3","1","bs3z4ekd595x0eq","","null","","sounds/C/FAM/P004.mp3","","null","","","","","","","","","","","","","","","","","","","","","","","","","","","","","","","","","","","","","","","","","",""
"html-keyboard-response","245","1955872","0.0-7.0-1.0-2.1","3","1","bs3z4ekd595x0eq","","3368.100000023842","","<p>How familiar did this sound to you?</p><p>1&nbsp;&nbsp;&nbsp;&nbsp;&nbsp;&nbsp;&nbsp;&nbsp;&nbsp;&nbsp;&nbsp;&nbsp;&nbsp;&nbsp;&nbsp;&nbsp;&nbsp;&nbsp;&nbsp;2&nbsp;&nbsp;&nbsp;&nbsp;&nbsp;&nbsp;&nbsp;&nbsp;&nbsp;&nbsp;&nbsp;&nbsp;&nbsp;&nbsp;&nbsp;&nbsp;&nbsp;&nbsp;&nbsp;3&nbsp;&nbsp;&nbsp;&nbsp;&nbsp;&nbsp;&nbsp;&nbsp;&nbsp;&nbsp;&nbsp;&nbsp;&nbsp;&nbsp;&nbsp;&nbsp;&nbsp;&nbsp;&nbsp;4</p><p style=""font-size:14px"">Not at all familiar&nbsp;&nbsp;&nbsp;&nbsp;A little familiar&nbsp;&nbsp;&nbsp;Moderately familiar&nbsp;&nbsp;&nbsp;Extremely familiar</p><p>(press the corresponding number on your keyboard)</p>","","50","","","FAM-RESPONSE","","","","","","","","","","","","","","","","","","","sounds/C/FAM/P004.mp3","partword","","","","","","","","","","","","","","","","","","",""
"html-keyboard-response","246","1957884","0.0-7.0-1.0-0.2","3","1","bs3z4ekd595x0eq","","null","","","","null","","","","","","","","","","","","","","","","","","","","","","","","","","","","","","","","","","","","","","","","","",""
"audio-keyboard-response","247","1958829","0.0-7.0-1.0-1.2","3","1","bs3z4ekd595x0eq","","null","","sounds/C/FAM/P003.mp3","","null","","","","","","","","","","","","","","","","","","","","","","","","","","","","","","","","","","","","","","","","","",""
"html-keyboard-response","248","1960138","0.0-7.0-1.0-2.2","3","1","bs3z4ekd595x0eq","","802.6000000238419","","<p>How familiar did this sound to you?</p><p>1&nbsp;&nbsp;&nbsp;&nbsp;&nbsp;&nbsp;&nbsp;&nbsp;&nbsp;&nbsp;&nbsp;&nbsp;&nbsp;&nbsp;&nbsp;&nbsp;&nbsp;&nbsp;&nbsp;2&nbsp;&nbsp;&nbsp;&nbsp;&nbsp;&nbsp;&nbsp;&nbsp;&nbsp;&nbsp;&nbsp;&nbsp;&nbsp;&nbsp;&nbsp;&nbsp;&nbsp;&nbsp;&nbsp;3&nbsp;&nbsp;&nbsp;&nbsp;&nbsp;&nbsp;&nbsp;&nbsp;&nbsp;&nbsp;&nbsp;&nbsp;&nbsp;&nbsp;&nbsp;&nbsp;&nbsp;&nbsp;&nbsp;4</p><p style=""font-size:14px"">Not at all familiar&nbsp;&nbsp;&nbsp;&nbsp;A little familiar&nbsp;&nbsp;&nbsp;Moderately familiar&nbsp;&nbsp;&nbsp;Extremely familiar</p><p>(press the corresponding number on your keyboard)</p>","","52","","","FAM-RESPONSE","","","","","","","","","","","","","","","","","","","sounds/C/FAM/P003.mp3","partword","","","","","","","","","","","","","","","","","","",""
"html-keyboard-response","249","1962149","0.0-7.0-1.0-0.3","3","1","bs3z4ekd595x0eq","","null","","","","null","","","","","","","","","","","","","","","","","","","","","","","","","","","","","","","","","","","","","","","","","",""
"audio-keyboard-response","250","1963090","0.0-7.0-1.0-1.3","3","1","bs3z4ekd595x0eq","","null","","sounds/C/FAM/P001.mp3","","null","","","","","","","","","","","","","","","","","","","","","","","","","","","","","","","","","","","","","","","","","",""
"html-keyboard-response","251","1966554","0.0-7.0-1.0-2.3","3","1","bs3z4ekd595x0eq","","2959.699999988079","","<p>How familiar did this sound to you?</p><p>1&nbsp;&nbsp;&nbsp;&nbsp;&nbsp;&nbsp;&nbsp;&nbsp;&nbsp;&nbsp;&nbsp;&nbsp;&nbsp;&nbsp;&nbsp;&nbsp;&nbsp;&nbsp;&nbsp;2&nbsp;&nbsp;&nbsp;&nbsp;&nbsp;&nbsp;&nbsp;&nbsp;&nbsp;&nbsp;&nbsp;&nbsp;&nbsp;&nbsp;&nbsp;&nbsp;&nbsp;&nbsp;&nbsp;3&nbsp;&nbsp;&nbsp;&nbsp;&nbsp;&nbsp;&nbsp;&nbsp;&nbsp;&nbsp;&nbsp;&nbsp;&nbsp;&nbsp;&nbsp;&nbsp;&nbsp;&nbsp;&nbsp;4</p><p style=""font-size:14px"">Not at all familiar&nbsp;&nbsp;&nbsp;&nbsp;A little familiar&nbsp;&nbsp;&nbsp;Moderately familiar&nbsp;&nbsp;&nbsp;Extremely familiar</p><p>(press the corresponding number on your keyboard)</p>","","50","","","FAM-RESPONSE","","","","","","","","","","","","","","","","","","","sounds/C/FAM/P001.mp3","partword","","","","","","","","","","","","","","","","","","",""
"html-keyboard-response","252","1968557","0.0-7.0-1.0-0.4","3","1","bs3z4ekd595x0eq","","null","","","","null","","","","","","","","","","","","","","","","","","","","","","","","","","","","","","","","","","","","","","","","","",""
"audio-keyboard-response","253","1969501","0.0-7.0-1.0-1.4","3","1","bs3z4ekd595x0eq","","null","","sounds/C/FAM/N003.mp3","","null","","","","","","","","","","","","","","","","","","","","","","","","","","","","","","","","","","","","","","","","","",""
"html-keyboard-response","254","1971469","0.0-7.0-1.0-2.4","3","1","bs3z4ekd595x0eq","","1466.300000011921","","<p>How familiar did this sound to you?</p><p>1&nbsp;&nbsp;&nbsp;&nbsp;&nbsp;&nbsp;&nbsp;&nbsp;&nbsp;&nbsp;&nbsp;&nbsp;&nbsp;&nbsp;&nbsp;&nbsp;&nbsp;&nbsp;&nbsp;2&nbsp;&nbsp;&nbsp;&nbsp;&nbsp;&nbsp;&nbsp;&nbsp;&nbsp;&nbsp;&nbsp;&nbsp;&nbsp;&nbsp;&nbsp;&nbsp;&nbsp;&nbsp;&nbsp;3&nbsp;&nbsp;&nbsp;&nbsp;&nbsp;&nbsp;&nbsp;&nbsp;&nbsp;&nbsp;&nbsp;&nbsp;&nbsp;&nbsp;&nbsp;&nbsp;&nbsp;&nbsp;&nbsp;4</p><p style=""font-size:14px"">Not at all familiar&nbsp;&nbsp;&nbsp;&nbsp;A little familiar&nbsp;&nbsp;&nbsp;Moderately familiar&nbsp;&nbsp;&nbsp;Extremely familiar</p><p>(press the corresponding number on your keyboard)</p>","","49","","","FAM-RESPONSE","","","","","","","","","","","","","","","","","","","sounds/C/FAM/N003.mp3","nonword","","","","","","","","","","","","","","","","","","",""
"html-keyboard-response","255","1973477","0.0-7.0-1.0-0.5","3","1","bs3z4ekd595x0eq","","null","","","","null","","","","","","","","","","","","","","","","","","","","","","","","","","","","","","","","","","","","","","","","","",""
"audio-keyboard-response","256","1974425","0.0-7.0-1.0-1.5","3","1","bs3z4ekd595x0eq","","null","","sounds/C/FAM/N004.mp3","","null","","","","","","","","","","","","","","","","","","","","","","","","","","","","","","","","","","","","","","","","","",""
"html-keyboard-response","257","1977270","0.0-7.0-1.0-2.5","3","1","bs3z4ekd595x0eq","","2342.7000000476837","","<p>How familiar did this sound to you?</p><p>1&nbsp;&nbsp;&nbsp;&nbsp;&nbsp;&nbsp;&nbsp;&nbsp;&nbsp;&nbsp;&nbsp;&nbsp;&nbsp;&nbsp;&nbsp;&nbsp;&nbsp;&nbsp;&nbsp;2&nbsp;&nbsp;&nbsp;&nbsp;&nbsp;&nbsp;&nbsp;&nbsp;&nbsp;&nbsp;&nbsp;&nbsp;&nbsp;&nbsp;&nbsp;&nbsp;&nbsp;&nbsp;&nbsp;3&nbsp;&nbsp;&nbsp;&nbsp;&nbsp;&nbsp;&nbsp;&nbsp;&nbsp;&nbsp;&nbsp;&nbsp;&nbsp;&nbsp;&nbsp;&nbsp;&nbsp;&nbsp;&nbsp;4</p><p style=""font-size:14px"">Not at all familiar&nbsp;&nbsp;&nbsp;&nbsp;A little familiar&nbsp;&nbsp;&nbsp;Moderately familiar&nbsp;&nbsp;&nbsp;Extremely familiar</p><p>(press the corresponding number on your keyboard)</p>","","50","","","FAM-RESPONSE","","","","","","","","","","","","","","","","","","","sounds/C/FAM/N004.mp3","nonword","","","","","","","","","","","","","","","","","","",""
"html-keyboard-response","258","1979275","0.0-7.0-1.0-0.6","3","1","bs3z4ekd595x0eq","","null","","","","null","","","","","","","","","","","","","","","","","","","","","","","","","","","","","","","","","","","","","","","","","",""
"audio-keyboard-response","259","1980221","0.0-7.0-1.0-1.6","3","1","bs3z4ekd595x0eq","","null","","sounds/C/FAM/W003.mp3","","null","","","","","","","","","","","","","","","","","","","","","","","","","","","","","","","","","","","","","","","","","",""
"html-keyboard-response","260","1983931","0.0-7.0-1.0-2.6","3","1","bs3z4ekd595x0eq","","3204","","<p>How familiar did this sound to you?</p><p>1&nbsp;&nbsp;&nbsp;&nbsp;&nbsp;&nbsp;&nbsp;&nbsp;&nbsp;&nbsp;&nbsp;&nbsp;&nbsp;&nbsp;&nbsp;&nbsp;&nbsp;&nbsp;&nbsp;2&nbsp;&nbsp;&nbsp;&nbsp;&nbsp;&nbsp;&nbsp;&nbsp;&nbsp;&nbsp;&nbsp;&nbsp;&nbsp;&nbsp;&nbsp;&nbsp;&nbsp;&nbsp;&nbsp;3&nbsp;&nbsp;&nbsp;&nbsp;&nbsp;&nbsp;&nbsp;&nbsp;&nbsp;&nbsp;&nbsp;&nbsp;&nbsp;&nbsp;&nbsp;&nbsp;&nbsp;&nbsp;&nbsp;4</p><p style=""font-size:14px"">Not at all familiar&nbsp;&nbsp;&nbsp;&nbsp;A little familiar&nbsp;&nbsp;&nbsp;Moderately familiar&nbsp;&nbsp;&nbsp;Extremely familiar</p><p>(press the corresponding number on your keyboard)</p>","","51","","","FAM-RESPONSE","","","","","","","","","","","","","","","","","","","sounds/C/FAM/W003.mp3","word","","","","","","","","","","","","","","","","","","",""
"html-keyboard-response","261","1985941","0.0-7.0-1.0-0.7","3","1","bs3z4ekd595x0eq","","null","","","","null","","","","","","","","","","","","","","","","","","","","","","","","","","","","","","","","","","","","","","","","","",""
"audio-keyboard-response","262","1986882","0.0-7.0-1.0-1.7","3","1","bs3z4ekd595x0eq","","null","","sounds/C/FAM/W002.mp3","","null","","","","","","","","","","","","","","","","","","","","","","","","","","","","","","","","","","","","","","","","","",""
"html-keyboard-response","263","1990699","0.0-7.0-1.0-2.7","3","1","bs3z4ekd595x0eq","","3311.5","","<p>How familiar did this sound to you?</p><p>1&nbsp;&nbsp;&nbsp;&nbsp;&nbsp;&nbsp;&nbsp;&nbsp;&nbsp;&nbsp;&nbsp;&nbsp;&nbsp;&nbsp;&nbsp;&nbsp;&nbsp;&nbsp;&nbsp;2&nbsp;&nbsp;&nbsp;&nbsp;&nbsp;&nbsp;&nbsp;&nbsp;&nbsp;&nbsp;&nbsp;&nbsp;&nbsp;&nbsp;&nbsp;&nbsp;&nbsp;&nbsp;&nbsp;3&nbsp;&nbsp;&nbsp;&nbsp;&nbsp;&nbsp;&nbsp;&nbsp;&nbsp;&nbsp;&nbsp;&nbsp;&nbsp;&nbsp;&nbsp;&nbsp;&nbsp;&nbsp;&nbsp;4</p><p style=""font-size:14px"">Not at all familiar&nbsp;&nbsp;&nbsp;&nbsp;A little familiar&nbsp;&nbsp;&nbsp;Moderately familiar&nbsp;&nbsp;&nbsp;Extremely familiar</p><p>(press the corresponding number on your keyboard)</p>","","51","","","FAM-RESPONSE","","","","","","","","","","","","","","","","","","","sounds/C/FAM/W002.mp3","word","","","","","","","","","","","","","","","","","","",""
"html-keyboard-response","264","1992708","0.0-7.0-1.0-0.8","3","1","bs3z4ekd595x0eq","","null","","","","null","","","","","","","","","","","","","","","","","","","","","","","","","","","","","","","","","","","","","","","","","",""
"audio-keyboard-response","265","1993650","0.0-7.0-1.0-1.8","3","1","bs3z4ekd595x0eq","","null","","sounds/C/FAM/N002.mp3","","null","","","","","","","","","","","","","","","","","","","","","","","","","","","","","","","","","","","","","","","","","",""
"html-keyboard-response","266","1996573","0.0-7.0-1.0-2.8","3","1","bs3z4ekd595x0eq","","2420.199999988079","","<p>How familiar did this sound to you?</p><p>1&nbsp;&nbsp;&nbsp;&nbsp;&nbsp;&nbsp;&nbsp;&nbsp;&nbsp;&nbsp;&nbsp;&nbsp;&nbsp;&nbsp;&nbsp;&nbsp;&nbsp;&nbsp;&nbsp;2&nbsp;&nbsp;&nbsp;&nbsp;&nbsp;&nbsp;&nbsp;&nbsp;&nbsp;&nbsp;&nbsp;&nbsp;&nbsp;&nbsp;&nbsp;&nbsp;&nbsp;&nbsp;&nbsp;3&nbsp;&nbsp;&nbsp;&nbsp;&nbsp;&nbsp;&nbsp;&nbsp;&nbsp;&nbsp;&nbsp;&nbsp;&nbsp;&nbsp;&nbsp;&nbsp;&nbsp;&nbsp;&nbsp;4</p><p style=""font-size:14px"">Not at all familiar&nbsp;&nbsp;&nbsp;&nbsp;A little familiar&nbsp;&nbsp;&nbsp;Moderately familiar&nbsp;&nbsp;&nbsp;Extremely familiar</p><p>(press the corresponding number on your keyboard)</p>","","49","","","FAM-RESPONSE","","","","","","","","","","","","","","","","","","","sounds/C/FAM/N002.mp3","nonword","","","","","","","","","","","","","","","","","","",""
"html-keyboard-response","267","1998575","0.0-7.0-1.0-0.9","3","1","bs3z4ekd595x0eq","","null","","","","null","","","","","","","","","","","","","","","","","","","","","","","","","","","","","","","","","","","","","","","","","",""
"audio-keyboard-response","268","1999517","0.0-7.0-1.0-1.9","3","1","bs3z4ekd595x0eq","","null","","sounds/C/FAM/W001.mp3","","null","","","","","","","","","","","","","","","","","","","","","","","","","","","","","","","","","","","","","","","","","",""
"html-keyboard-response","269","2000622","0.0-7.0-1.0-2.9","3","1","bs3z4ekd595x0eq","","603","","<p>How familiar did this sound to you?</p><p>1&nbsp;&nbsp;&nbsp;&nbsp;&nbsp;&nbsp;&nbsp;&nbsp;&nbsp;&nbsp;&nbsp;&nbsp;&nbsp;&nbsp;&nbsp;&nbsp;&nbsp;&nbsp;&nbsp;2&nbsp;&nbsp;&nbsp;&nbsp;&nbsp;&nbsp;&nbsp;&nbsp;&nbsp;&nbsp;&nbsp;&nbsp;&nbsp;&nbsp;&nbsp;&nbsp;&nbsp;&nbsp;&nbsp;3&nbsp;&nbsp;&nbsp;&nbsp;&nbsp;&nbsp;&nbsp;&nbsp;&nbsp;&nbsp;&nbsp;&nbsp;&nbsp;&nbsp;&nbsp;&nbsp;&nbsp;&nbsp;&nbsp;4</p><p style=""font-size:14px"">Not at all familiar&nbsp;&nbsp;&nbsp;&nbsp;A little familiar&nbsp;&nbsp;&nbsp;Moderately familiar&nbsp;&nbsp;&nbsp;Extremely familiar</p><p>(press the corresponding number on your keyboard)</p>","","52","","","FAM-RESPONSE","","","","","","","","","","","","","","","","","","","sounds/C/FAM/W001.mp3","word","","","","","","","","","","","","","","","","","","",""
"html-keyboard-response","270","2002627","0.0-7.0-1.0-0.10","3","1","bs3z4ekd595x0eq","","null","","","","null","","","","","","","","","","","","","","","","","","","","","","","","","","","","","","","","","","","","","","","","","",""
"audio-keyboard-response","271","2003570","0.0-7.0-1.0-1.10","3","1","bs3z4ekd595x0eq","","null","","sounds/C/FAM/P002.mp3","","null","","","","","","","","","","","","","","","","","","","","","","","","","","","","","","","","","","","","","","","","","",""
"html-keyboard-response","272","2007910","0.0-7.0-1.0-2.10","3","1","bs3z4ekd595x0eq","","3838.5","","<p>How familiar did this sound to you?</p><p>1&nbsp;&nbsp;&nbsp;&nbsp;&nbsp;&nbsp;&nbsp;&nbsp;&nbsp;&nbsp;&nbsp;&nbsp;&nbsp;&nbsp;&nbsp;&nbsp;&nbsp;&nbsp;&nbsp;2&nbsp;&nbsp;&nbsp;&nbsp;&nbsp;&nbsp;&nbsp;&nbsp;&nbsp;&nbsp;&nbsp;&nbsp;&nbsp;&nbsp;&nbsp;&nbsp;&nbsp;&nbsp;&nbsp;3&nbsp;&nbsp;&nbsp;&nbsp;&nbsp;&nbsp;&nbsp;&nbsp;&nbsp;&nbsp;&nbsp;&nbsp;&nbsp;&nbsp;&nbsp;&nbsp;&nbsp;&nbsp;&nbsp;4</p><p style=""font-size:14px"">Not at all familiar&nbsp;&nbsp;&nbsp;&nbsp;A little familiar&nbsp;&nbsp;&nbsp;Moderately familiar&nbsp;&nbsp;&nbsp;Extremely familiar</p><p>(press the corresponding number on your keyboard)</p>","","51","","","FAM-RESPONSE","","","","","","","","","","","","","","","","","","","sounds/C/FAM/P002.mp3","partword","","","","","","","","","","","","","","","","","","",""
"html-keyboard-response","273","2009917","0.0-7.0-1.0-0.11","3","1","bs3z4ekd595x0eq","","null","","","","null","","","","","","","","","","","","","","","","","","","","","","","","","","","","","","","","","","","","","","","","","",""
"audio-keyboard-response","274","2010860","0.0-7.0-1.0-1.11","3","1","bs3z4ekd595x0eq","","null","","sounds/C/FAM/W004.mp3","","null","","","","","","","","","","","","","","","","","","","","","","","","","","","","","","","","","","","","","","","","","",""
"html-keyboard-response","275","2012408","0.0-7.0-1.0-2.11","3","1","bs3z4ekd595x0eq","","1043.5999999642372","","<p>How familiar did this sound to you?</p><p>1&nbsp;&nbsp;&nbsp;&nbsp;&nbsp;&nbsp;&nbsp;&nbsp;&nbsp;&nbsp;&nbsp;&nbsp;&nbsp;&nbsp;&nbsp;&nbsp;&nbsp;&nbsp;&nbsp;2&nbsp;&nbsp;&nbsp;&nbsp;&nbsp;&nbsp;&nbsp;&nbsp;&nbsp;&nbsp;&nbsp;&nbsp;&nbsp;&nbsp;&nbsp;&nbsp;&nbsp;&nbsp;&nbsp;3&nbsp;&nbsp;&nbsp;&nbsp;&nbsp;&nbsp;&nbsp;&nbsp;&nbsp;&nbsp;&nbsp;&nbsp;&nbsp;&nbsp;&nbsp;&nbsp;&nbsp;&nbsp;&nbsp;4</p><p style=""font-size:14px"">Not at all familiar&nbsp;&nbsp;&nbsp;&nbsp;A little familiar&nbsp;&nbsp;&nbsp;Moderately familiar&nbsp;&nbsp;&nbsp;Extremely familiar</p><p>(press the corresponding number on your keyboard)</p>","","50","","","FAM-RESPONSE","","","","","","","","","","","","","","","","","","","sounds/C/FAM/W004.mp3","word","","","","","","","","","","","","","","","","","","",""
"html-button-response","276","2057135","0.0-8.0-0.0","3","1","bs3z4ekd595x0eq","","43725.799999952316","","<p>You will now listen to longer sound sequences.</p><p>Each sound sequence will last about 16 seconds.</p><p>On each trial, you will be given a <u>TARGET SOUND</u>. Your task is to listen very carefully for this sound.</p><p>Every time you hear the <u>TARGET SOUND</u>, you will press the <b>SPACEBAR</b> as quickly and accurately as you can.</p>","0","","","","","","","","","","","","","","","","","","","","","","","","","","","","","","","","","","","","","","","","","","",""
"html-button-response","277","2066405","0.0-8.0-1.0","3","1","bs3z4ekd595x0eq","","9013.900000035763","","<p>It is very important that you make your responses as quickly and accurately as possible.</p><p>To help you make your responses, you will be able to listen to the <u>TARGET SOUND</u> at the beginning of each trial.</p><p>There will be 36 total trials.</p><p><b>Note: This is meant to be a difficult task. We simply want you to try your best.</p>","0","","","","","","","","","","","","","","","","","","","","","","","","","","","","","","","","","","","","","","","","","","",""
"html-button-response","278","2072223","0.0-8.0-2.0-0.0","3","1","bs3z4ekd595x0eq","","5556.899999976158","","<p>Trial 1 of 36</p>","0","","","","","","","","","","","","","","","","","","","","","","","","","RU","sounds/syllables/ru_SWS.wav","1200,3900,8400,10200","2","","","","","","","","","","","","","","",""
"html-keyboard-response","279","2073714","0.0-8.0-2.0-1.0","3","1","bs3z4ekd595x0eq","","1488.699999988079","","","","80","","","","","","","","","","","","","","","","","","","","","","","","RU","","1200,3900,8400,10200","2","","","","","","","","","","","","","","",""
"audio-keyboard-response","280","2074063","0.0-8.0-2.0-2.0-0.0","3","1","bs3z4ekd595x0eq","","null","","sounds/syllables/ru_SWS.wav","","null","","","","","","","","","","","","","","","","","","","","","","","","","","","","","","","","","","","","","","","","","",""
"html-keyboard-response","281","2074597","0.0-8.0-2.0-2.0-1.0","3","1","bs3z4ekd595x0eq","","532.6000000238419","","<p>To replay the <u>TARGET SOUND</u>, press P.</p> When you are ready to begin, press SPACEBAR.","","80","","","","","","","","","","","","","","","","","","","","","","","","","","","","","","","","","","","","","","","","","",""
"audio-keyboard-response","282","2075400","0.0-8.0-2.0-2.1-0.1","3","1","bs3z4ekd595x0eq","","null","","sounds/syllables/ru_SWS.wav","","null","","","","","","","","","","","","","","","","","","","","","","","","","","","","","","","","","","","","","","","","","",""
"html-keyboard-response","283","2076333","0.0-8.0-2.0-2.1-1.1","3","1","bs3z4ekd595x0eq","","932","","<p>To replay the <u>TARGET SOUND</u>, press P.</p> When you are ready to begin, press SPACEBAR.","","80","","","","","","","","","","","","","","","","","","","","","","","","","","","","","","","","","","","","","","","","","",""
"audio-keyboard-response","284","2077139","0.0-8.0-2.0-2.2-0.2","3","1","bs3z4ekd595x0eq","","null","","sounds/syllables/ru_SWS.wav","","null","","","","","","","","","","","","","","","","","","","","","","","","","","","","","","","","","","","","","","","","","",""
"html-keyboard-response","285","2077365","0.0-8.0-2.0-2.2-1.2","3","1","bs3z4ekd595x0eq","","225.10000002384186","","<p>To replay the <u>TARGET SOUND</u>, press P.</p> When you are ready to begin, press SPACEBAR.","","80","","","","","","","","","","","","","","","","","","","","","","","","","","","","","","","","","","","","","","","","","",""
"audio-keyboard-response","286","2078168","0.0-8.0-2.0-2.3-0.3","3","1","bs3z4ekd595x0eq","","null","","sounds/syllables/ru_SWS.wav","","null","","","","","","","","","","","","","","","","","","","","","","","","","","","","","","","","","","","","","","","","","",""
"html-keyboard-response","287","2078277","0.0-8.0-2.0-2.3-1.3","3","1","bs3z4ekd595x0eq","","108.29999995231628","","<p>To replay the <u>TARGET SOUND</u>, press P.</p> When you are ready to begin, press SPACEBAR.","","80","","","","","","","","","","","","","","","","","","","","","","","","","","","","","","","","","","","","","","","","","",""
"audio-keyboard-response","288","2079085","0.0-8.0-2.0-2.4-0.4","3","1","bs3z4ekd595x0eq","","null","","sounds/syllables/ru_SWS.wav","","null","","","","","","","","","","","","","","","","","","","","","","","","","","","","","","","","","","","","","","","","","",""
"html-keyboard-response","289","2080205","0.0-8.0-2.0-2.4-1.4","3","1","bs3z4ekd595x0eq","","1117.7000000476837","","<p>To replay the <u>TARGET SOUND</u>, press P.</p> When you are ready to begin, press SPACEBAR.","","80","","","","","","","","","","","","","","","","","","","","","","","","","","","","","","","","","","","","","","","","","",""
"audio-keyboard-response","290","2081011","0.0-8.0-2.0-2.5-0.5","3","1","bs3z4ekd595x0eq","","null","","sounds/syllables/ru_SWS.wav","","null","","","","","","","","","","","","","","","","","","","","","","","","","","","","","","","","","","","","","","","","","",""
"html-keyboard-response","291","2082825","0.0-8.0-2.0-2.5-1.5","3","1","bs3z4ekd595x0eq","","1813.199999988079","","<p>To replay the <u>TARGET SOUND</u>, press P.</p> When you are ready to begin, press SPACEBAR.","","80","","","","","","","","","","","","","","","","","","","","","","","","","","","","","","","","","","","","","","","","","",""
"audio-keyboard-response","292","2083629","0.0-8.0-2.0-2.6-0.6","3","1","bs3z4ekd595x0eq","","null","","sounds/syllables/ru_SWS.wav","","null","","","","","","","","","","","","","","","","","","","","","","","","","","","","","","","","","","","","","","","","","",""
"html-keyboard-response","293","2086019","0.0-8.0-2.0-2.6-1.6","3","1","bs3z4ekd595x0eq","","2389.399999976158","","<p>To replay the <u>TARGET SOUND</u>, press P.</p> When you are ready to begin, press SPACEBAR.","","32","","","","","","","","","","","","","","","","","","","","","","","","","","","","","","","","","","","","","","","","","",""
"audio-keyboard-response","294","2100970","0.0-8.0-2.0-3.0","3","1","bs3z4ekd595x0eq","","2112","","sounds/C/TD/RU_03_TD.mp3","","32","","","TD_SUMMARY","","","","","","","","","","","","","","","","","","","","","RU","","1200,3900,8400,10200","2","1200","3900","8400","10200","914.8999999761581","965.5","1075.199999988079","null","2114.899999976158_2467.5_3767.5_4544.800000011921_4865.5_5622.800000011921_6521_7781.699999988079_9228.100000023842_9475.199999988079_9711.399999976158_12542.5_12768.800000011921_12951.399999976158","7","","","","",""
"html-button-response","295","2142512","0.0-8.0-2.0-0.1","3","1","bs3z4ekd595x0eq","","41528.69999998808","","<p>Trial 2 of 36</p>","0","","","","","","","","","","","","","","","","","","","","","","","","","RE","sounds/syllables/re_SWS.wav","3000,5700,7500,11100","2","","","","","","","","","","","","","","",""
"html-keyboard-response","296","2144761","0.0-8.0-2.0-1.1","3","1","bs3z4ekd595x0eq","","2245.699999988079","","","","80","","","","","","","","","","","","","","","","","","","","","","","","RE","","3000,5700,7500,11100","2","","","","","","","","","","","","","","",""
"audio-keyboard-response","297","2145111","0.0-8.0-2.0-2.7-0.7","3","1","bs3z4ekd595x0eq","","null","","sounds/syllables/re_SWS.wav","","null","","","","","","","","","","","","","","","","","","","","","","","","","","","","","","","","","","","","","","","","","",""
"html-keyboard-response","298","2145814","0.0-8.0-2.0-2.7-1.7","3","1","bs3z4ekd595x0eq","","702.1999999880791","","<p>To replay the <u>TARGET SOUND</u>, press P.</p> When you are ready to begin, press SPACEBAR.","","80","","","","","","","","","","","","","","","","","","","","","","","","","","","","","","","","","","","","","","","","","",""
"audio-keyboard-response","299","2146621","0.0-8.0-2.0-2.8-0.8","3","1","bs3z4ekd595x0eq","","null","","sounds/syllables/re_SWS.wav","","null","","","","","","","","","","","","","","","","","","","","","","","","","","","","","","","","","","","","","","","","","",""
"html-keyboard-response","300","2147444","0.0-8.0-2.0-2.8-1.8","3","1","bs3z4ekd595x0eq","","821.5","","<p>To replay the <u>TARGET SOUND</u>, press P.</p> When you are ready to begin, press SPACEBAR.","","80","","","","","","","","","","","","","","","","","","","","","","","","","","","","","","","","","","","","","","","","","",""
"audio-keyboard-response","301","2148247","0.0-8.0-2.0-2.9-0.9","3","1","bs3z4ekd595x0eq","","null","","sounds/syllables/re_SWS.wav","","null","","","","","","","","","","","","","","","","","","","","","","","","","","","","","","","","","","","","","","","","","",""
"html-keyboard-response","302","2150763","0.0-8.0-2.0-2.9-1.9","3","1","bs3z4ekd595x0eq","","2514.600000023842","","<p>To replay the <u>TARGET SOUND</u>, press P.</p> When you are ready to begin, press SPACEBAR.","","80","","","","","","","","","","","","","","","","","","","","","","","","","","","","","","","","","","","","","","","","","",""
"audio-keyboard-response","303","2151570","0.0-8.0-2.0-2.10-0.10","3","1","bs3z4ekd595x0eq","","null","","sounds/syllables/re_SWS.wav","","null","","","","","","","","","","","","","","","","","","","","","","","","","","","","","","","","","","","","","","","","","",""
"html-keyboard-response","304","2152298","0.0-8.0-2.0-2.10-1.10","3","1","bs3z4ekd595x0eq","","727","","<p>To replay the <u>TARGET SOUND</u>, press P.</p> When you are ready to begin, press SPACEBAR.","","32","","","","","","","","","","","","","","","","","","","","","","","","","","","","","","","","","","","","","","","","","",""
"audio-keyboard-response","305","2167245","0.0-8.0-2.0-3.1","3","1","bs3z4ekd595x0eq","","1616","","sounds/C/TD/RE_02_TD.mp3","","32","","","TD_SUMMARY","","","","","","","","","","","","","","","","","","","","","RE","","3000,5700,7500,11100","2","3000","5700","7500","11100","797.1999999880791","448.89999997615814","929.3000000119209","null","______________1613_3090.399999976158_3474.5_3797.199999988079_5664.599999964237_6148.899999976158_7126.399999976158_7675.300000011921_8429.300000011921_10832.699999988079_14364.5","4","","","","",""
"html-button-response","306","2169878","0.0-8.0-2.0-0.2","3","1","bs3z4ekd595x0eq","","2629.199999988079","","<p>Trial 3 of 36</p>","0","","","","","","","","","","","","","","","","","","","","","","","","","GE","sounds/syllables/ge_SWS.wav","1500,6000,7800,10500","3","","","","","","","","","","","","","","",""
"html-keyboard-response","307","2171475","0.0-8.0-2.0-1.2","3","1","bs3z4ekd595x0eq","","1596","","","","80","","","","","","","","","","","","","","","","","","","","","","","","GE","","1500,6000,7800,10500","3","","","","","","","","","","","","","","",""
"audio-keyboard-response","308","2171777","0.0-8.0-2.0-2.11-0.11","3","1","bs3z4ekd595x0eq","","null","","sounds/syllables/ge_SWS.wav","","null","","","","","","","","","","","","","","","","","","","","","","","","","","","","","","","","","","","","","","","","","",""
"html-keyboard-response","309","2172269","0.0-8.0-2.0-2.11-1.11","3","1","bs3z4ekd595x0eq","","491","","<p>To replay the <u>TARGET SOUND</u>, press P.</p> When you are ready to begin, press SPACEBAR.","","80","","","","","","","","","","","","","","","","","","","","","","","","","","","","","","","","","","","","","","","","","",""
"audio-keyboard-response","310","2173074","0.0-8.0-2.0-2.12-0.12","3","1","bs3z4ekd595x0eq","","null","","sounds/syllables/ge_SWS.wav","","null","","","","","","","","","","","","","","","","","","","","","","","","","","","","","","","","","","","","","","","","","",""
"html-keyboard-response","311","2173364","0.0-8.0-2.0-2.12-1.12","3","1","bs3z4ekd595x0eq","","288.69999998807907","","<p>To replay the <u>TARGET SOUND</u>, press P.</p> When you are ready to begin, press SPACEBAR.","","80","","","","","","","","","","","","","","","","","","","","","","","","","","","","","","","","","","","","","","","","","",""
"audio-keyboard-response","312","2174167","0.0-8.0-2.0-2.13-0.13","3","1","bs3z4ekd595x0eq","","null","","sounds/syllables/ge_SWS.wav","","null","","","","","","","","","","","","","","","","","","","","","","","","","","","","","","","","","","","","","","","","","",""
"html-keyboard-response","313","2175400","0.0-8.0-2.0-2.13-1.13","3","1","bs3z4ekd595x0eq","","1231.5","","<p>To replay the <u>TARGET SOUND</u>, press P.</p> When you are ready to begin, press SPACEBAR.","","80","","","","","","","","","","","","","","","","","","","","","","","","","","","","","","","","","","","","","","","","","",""
"audio-keyboard-response","314","2176204","0.0-8.0-2.0-2.14-0.14","3","1","bs3z4ekd595x0eq","","null","","sounds/syllables/ge_SWS.wav","","null","","","","","","","","","","","","","","","","","","","","","","","","","","","","","","","","","","","","","","","","","",""
"html-keyboard-response","315","2176625","0.0-8.0-2.0-2.14-1.14","3","1","bs3z4ekd595x0eq","","419.60000002384186","","<p>To replay the <u>TARGET SOUND</u>, press P.</p> When you are ready to begin, press SPACEBAR.","","32","","","","","","","","","","","","","","","","","","","","","","","","","","","","","","","","","","","","","","","","","",""
