"trial_type","trial_index","time_elapsed","internal_node_id","counterbalance","lang_instruct","ParticipantID","view_history","rt","url","stimulus","button_pressed","key_press","correctRESP","correct","designation","location","correctanswer","responses","sentence","keywords","typed_resp","keyword1_acc","keyword2_acc","keyword3_acc","keyword4_acc","keyword5_acc","total_acc","prop_acc","timeouts","pause_rt01","pause_rt02","train_file","numKeyPress","sound","fam_type","SYLLABLE","EXEMPLAR","TD_LOCS","TD_TYPE","TDLOC_01","TDLOC_02","TDLOC_03","TDLOC_04","TD_RT_01","TD_RT_02","TD_RT_03","TD_RT_04","TD_SUBJ_RTs","number_of_plays","slider_start","response","question_order","syllable","syllable_type"
"pavlovia","0","3","0.0-0.0","2","1","gaubs1usjzox655","","","","","","","","","","","","","","","","","","","","","","","","","","","","","","","","","","","","","","","","","","","","","","","",""
"instructions","1","10893","0.0-1.0","2","1","gaubs1usjzox655","[{""page_index"":0,""viewing_time"":3923.699999999255},{""page_index"":1,""viewing_time"":6965.10000000149}]","10890.300000000745","","","","","","","","","","","","","","","","","","","","","","","","","","","","","","","","","","","","","","","","","","","","","",""
"external-html","2","24731","0.0-2.0","2","1","gaubs1usjzox655","","13718.800000000745","consent/consent.html","","","","","","","","","","","","","","","","","","","","","","","","","","","","","","","","","","","","","","","","","","","","",""
"html-button-response","3","429197","0.0-3.0-0.0-0.0","2","1","gaubs1usjzox655","","404463.5","","<p>Welcome to the study. You will first complete a short volume calibration and headphone check.</p><p>Please make sure you are in a quiet listening environment, that you are wearing headphones, and that your computer's volume is turned on.<p></p>","0","","","","","","","","","","","","","","","","","","","","","","","","","","","","","","","","","","","","","","","","","","",""
"html-button-response","4","433471","0.0-3.0-0.0-1.0","2","1","gaubs1usjzox655","","4011.60000000149","","<p>The volume calibration will be first.</p><p>You will hear a thirty-second noise. Please adjust your computer's volume so that this noise is being presented at a comfortable level.<p></p>","0","","","","","","","","","","","","","","","","","","","","","","","","","","","","","","","","","","","","","","","","","","",""
"audio-button-response","5","442516","0.0-3.0-0.0-2.0","2","1","gaubs1usjzox655","","8301","","audCalib/volumetest.mp3","0","","","","","","","","","","","","","","","","","","","","","","","","","","","","","","","","","","","","","","","","","","",""
"html-button-response","6","452201","0.0-3.0-1.0-0.0","2","1","gaubs1usjzox655","","9683.599999997765","","<p>You will now complete a short headphone check.</p><p>On each trial, you will hear three tones. One of these tones will be quieter than the others. Your task is to identify whether the quiet tone occured first, second, or third.</p><p>There are six trials in total.<p></p>","0","","","","","","","","","","","","","","","","","","","","","","","","","","","","","","","","","","","","","","","","","","",""
"html-keyboard-response","7","452968","0.0-3.0-1.0-1.0-0.0","2","1","gaubs1usjzox655","","null","","<div style=""font-size:60px;"">+</div>","","null","","","","","","","","","","","","","","","","","","","","","","","","","","","","","","","","","","","","","","","","","",""
"audio-button-response","8","457844","0.0-3.0-1.0-1.0-1.0","2","1","gaubs1usjzox655","","4870","","audCalib/t2_1.mp3","1","","1","1","headphone-test","","","","","","","","","","","","","","","","","","","","","","","","","","","","","","","","","","","","","","",""
"html-keyboard-response","9","458614","0.0-3.0-1.0-1.0-0.1","2","1","gaubs1usjzox655","","null","","<div style=""font-size:60px;"">+</div>","","null","","","","","","","","","","","","","","","","","","","","","","","","","","","","","","","","","","","","","","","","","",""
"audio-button-response","10","463394","0.0-3.0-1.0-1.0-1.1","2","1","gaubs1usjzox655","","4778","","audCalib/t1_1.mp3","0","","0","1","headphone-test","","","","","","","","","","","","","","","","","","","","","","","","","","","","","","","","","","","","","","",""
"html-keyboard-response","11","464159","0.0-3.0-1.0-1.0-0.2","2","1","gaubs1usjzox655","","null","","<div style=""font-size:60px;"">+</div>","","null","","","","","","","","","","","","","","","","","","","","","","","","","","","","","","","","","","","","","","","","","",""
"audio-button-response","12","468331","0.0-3.0-1.0-1.0-1.2","2","1","gaubs1usjzox655","","4171","","audCalib/t2_2.mp3","1","","1","1","headphone-test","","","","","","","","","","","","","","","","","","","","","","","","","","","","","","","","","","","","","","",""
"html-keyboard-response","13","469086","0.0-3.0-1.0-1.0-0.3","2","1","gaubs1usjzox655","","null","","<div style=""font-size:60px;"">+</div>","","null","","","","","","","","","","","","","","","","","","","","","","","","","","","","","","","","","","","","","","","","","",""
"audio-button-response","14","473646","0.0-3.0-1.0-1.0-1.3","2","1","gaubs1usjzox655","","4560","","audCalib/t3_1.mp3","2","","2","1","headphone-test","","","","","","","","","","","","","","","","","","","","","","","","","","","","","","","","","","","","","","",""
"html-keyboard-response","15","474403","0.0-3.0-1.0-1.0-0.4","2","1","gaubs1usjzox655","","null","","<div style=""font-size:60px;"">+</div>","","null","","","","","","","","","","","","","","","","","","","","","","","","","","","","","","","","","","","","","","","","","",""
"audio-button-response","16","478746","0.0-3.0-1.0-1.0-1.4","2","1","gaubs1usjzox655","","4351","","audCalib/t1_2.mp3","0","","0","1","headphone-test","","","","","","","","","","","","","","","","","","","","","","","","","","","","","","","","","","","","","","",""
"html-keyboard-response","17","479510","0.0-3.0-1.0-1.0-0.5","2","1","gaubs1usjzox655","","null","","<div style=""font-size:60px;"">+</div>","","null","","","","","","","","","","","","","","","","","","","","","","","","","","","","","","","","","","","","","","","","","",""
"audio-button-response","18","483340","0.0-3.0-1.0-1.0-1.5","2","1","gaubs1usjzox655","","3828","","audCalib/t3_2.mp3","2","","2","1","headphone-test","","","","","","","","","","","","","","","","","","","","","","","","","","","","","","","","","","","","","","",""
"html-button-response","19","485668","0.0-3.0-2.0","2","1","gaubs1usjzox655","","2070.39999999851","","<p>The volume calibration and headphone check are now complete.</p>","0","","","","","","","","","","","","","","","","","","","","","","","","","","","","","","","","","","","","","","","","","","",""
"instructions","20","509354","0.0-4.0-0.0","2","1","gaubs1usjzox655","[{""page_index"":0,""viewing_time"":1536.5},{""page_index"":1,""viewing_time"":20192.89999999851},{""page_index"":2,""viewing_time"":1956}]","23685.60000000149","","","","","","","","","","","","","","","","","","","","","","","","","","","","","","","","","","","","","","","","","","","","","",""
"audio-keyboard-response","21","509665","0.0-4.0-1.0-0.0","2","1","gaubs1usjzox655","","null","","sounds/induction/left/ge_SWS.wav","","null","","","","","","","","","","","","","","","","","","","","","","","","","","","","","","","","","","","","","","","","","",""
"html-button-response","22","515325","0.0-4.0-1.0-1.0","2","1","gaubs1usjzox655","","5658.800000000745","","What sound did you hear?","1","","","1","INDUCTION-JUDGMENT","left","1","","","","","","","","","","","","","","","","","","","","","","","","","","","","","","","","","","","","",""
"html-keyboard-response","23","516327","0.0-4.0-1.0-2.0","2","1","gaubs1usjzox655","","null","","<p style=""color:green;""><b>Correct!</b></p>","","null","","","","","","","","","","","","","","","","","","","","","","","","","","","","","","","","","","","","","","","","","",""
"audio-keyboard-response","24","517134","0.0-4.0-1.0-0.1","2","1","gaubs1usjzox655","","null","","sounds/induction/right/ti_SWS.wav","","null","","","","","","","","","","","","","","","","","","","","","","","","","","","","","","","","","","","","","","","","","",""
"html-button-response","25","518731","0.0-4.0-1.0-1.1","2","1","gaubs1usjzox655","","1596.7999999970198","","What sound did you hear?","0","","","0","INDUCTION-JUDGMENT","right","1","","","","","","","","","","","","","","","","","","","","","","","","","","","","","","","","","","","","",""
"html-keyboard-response","26","519732","0.0-4.0-1.0-2.1","2","1","gaubs1usjzox655","","null","","<p style=""color:red;""><b>Incorrect!</b></p>","","null","","","","","","","","","","","","","","","","","","","","","","","","","","","","","","","","","","","","","","","","","",""
"audio-keyboard-response","27","520555","0.0-4.0-1.0-0.2","2","1","gaubs1usjzox655","","null","","sounds/induction/right/ko_SWS.wav","","null","","","","","","","","","","","","","","","","","","","","","","","","","","","","","","","","","","","","","","","","","",""
"html-button-response","28","522175","0.0-4.0-1.0-1.2","2","1","gaubs1usjzox655","","1618.7999999970198","","What sound did you hear?","0","","","1","INDUCTION-JUDGMENT","right","0","","","","","","","","","","","","","","","","","","","","","","","","","","","","","","","","","","","","",""
"html-keyboard-response","29","523176","0.0-4.0-1.0-2.2","2","1","gaubs1usjzox655","","null","","<p style=""color:green;""><b>Correct!</b></p>","","null","","","","","","","","","","","","","","","","","","","","","","","","","","","","","","","","","","","","","","","","","",""
"audio-keyboard-response","30","523985","0.0-4.0-1.0-0.3","2","1","gaubs1usjzox655","","null","","sounds/induction/left/su_SWS.wav","","null","","","","","","","","","","","","","","","","","","","","","","","","","","","","","","","","","","","","","","","","","",""
"html-button-response","31","525791","0.0-4.0-1.0-1.3","2","1","gaubs1usjzox655","","1805.8999999985099","","What sound did you hear?","0","","","1","INDUCTION-JUDGMENT","left","0","","","","","","","","","","","","","","","","","","","","","","","","","","","","","","","","","","","","",""
"html-keyboard-response","32","526800","0.0-4.0-1.0-2.3","2","1","gaubs1usjzox655","","null","","<p style=""color:green;""><b>Correct!</b></p>","","null","","","","","","","","","","","","","","","","","","","","","","","","","","","","","","","","","","","","","","","","","",""
"audio-keyboard-response","33","527605","0.0-4.0-1.0-0.4","2","1","gaubs1usjzox655","","null","","sounds/induction/left/me_SWS.wav","","null","","","","","","","","","","","","","","","","","","","","","","","","","","","","","","","","","","","","","","","","","",""
"html-button-response","34","528955","0.0-4.0-1.0-1.4","2","1","gaubs1usjzox655","","1349.8999999985099","","What sound did you hear?","1","","","1","INDUCTION-JUDGMENT","left","1","","","","","","","","","","","","","","","","","","","","","","","","","","","","","","","","","","","","",""
"html-keyboard-response","35","529958","0.0-4.0-1.0-2.4","2","1","gaubs1usjzox655","","null","","<p style=""color:green;""><b>Correct!</b></p>","","null","","","","","","","","","","","","","","","","","","","","","","","","","","","","","","","","","","","","","","","","","",""
"audio-keyboard-response","36","530765","0.0-4.0-1.0-0.5","2","1","gaubs1usjzox655","","null","","sounds/induction/right/fu_SWS.wav","","null","","","","","","","","","","","","","","","","","","","","","","","","","","","","","","","","","","","","","","","","","",""
"html-button-response","37","532208","0.0-4.0-1.0-1.5","2","1","gaubs1usjzox655","","1441.8999999985099","","What sound did you hear?","0","","","1","INDUCTION-JUDGMENT","right","0","","","","","","","","","","","","","","","","","","","","","","","","","","","","","","","","","","","","",""
"html-keyboard-response","38","533217","0.0-4.0-1.0-2.5","2","1","gaubs1usjzox655","","null","","<p style=""color:green;""><b>Correct!</b></p>","","null","","","","","","","","","","","","","","","","","","","","","","","","","","","","","","","","","","","","","","","","","",""
"audio-keyboard-response","39","534025","0.0-4.0-1.0-0.6","2","1","gaubs1usjzox655","","null","","sounds/induction/right/su_SWS.wav","","null","","","","","","","","","","","","","","","","","","","","","","","","","","","","","","","","","","","","","","","","","",""
"html-button-response","40","535017","0.0-4.0-1.0-1.6","2","1","gaubs1usjzox655","","991.0999999977648","","What sound did you hear?","1","","","1","INDUCTION-JUDGMENT","right","1","","","","","","","","","","","","","","","","","","","","","","","","","","","","","","","","","","","","",""
"html-keyboard-response","41","536023","0.0-4.0-1.0-2.6","2","1","gaubs1usjzox655","","null","","<p style=""color:green;""><b>Correct!</b></p>","","null","","","","","","","","","","","","","","","","","","","","","","","","","","","","","","","","","","","","","","","","","",""
"audio-keyboard-response","42","536834","0.0-4.0-1.0-0.7","2","1","gaubs1usjzox655","","null","","sounds/induction/right/ni_SWS.wav","","null","","","","","","","","","","","","","","","","","","","","","","","","","","","","","","","","","","","","","","","","","",""
"html-button-response","43","538332","0.0-4.0-1.0-1.7","2","1","gaubs1usjzox655","","1497.3999999985099","","What sound did you hear?","1","","","0","INDUCTION-JUDGMENT","right","0","","","","","","","","","","","","","","","","","","","","","","","","","","","","","","","","","","","","",""
"html-keyboard-response","44","539341","0.0-4.0-1.0-2.7","2","1","gaubs1usjzox655","","null","","<p style=""color:red;""><b>Incorrect!</b></p>","","null","","","","","","","","","","","","","","","","","","","","","","","","","","","","","","","","","","","","","","","","","",""
"audio-keyboard-response","45","540134","0.0-4.0-1.0-0.8","2","1","gaubs1usjzox655","","null","","sounds/induction/left/re_SWS.wav","","null","","","","","","","","","","","","","","","","","","","","","","","","","","","","","","","","","","","","","","","","","",""
"html-button-response","46","541734","0.0-4.0-1.0-1.8","2","1","gaubs1usjzox655","","1599.300000000745","","What sound did you hear?","1","","","0","INDUCTION-JUDGMENT","left","0","","","","","","","","","","","","","","","","","","","","","","","","","","","","","","","","","","","","",""
"html-keyboard-response","47","542736","0.0-4.0-1.0-2.8","2","1","gaubs1usjzox655","","null","","<p style=""color:red;""><b>Incorrect!</b></p>","","null","","","","","","","","","","","","","","","","","","","","","","","","","","","","","","","","","","","","","","","","","",""
"audio-keyboard-response","48","543545","0.0-4.0-1.0-0.9","2","1","gaubs1usjzox655","","null","","sounds/induction/right/ti_SWS.wav","","null","","","","","","","","","","","","","","","","","","","","","","","","","","","","","","","","","","","","","","","","","",""
"html-button-response","49","545242","0.0-4.0-1.0-1.9","2","1","gaubs1usjzox655","","1696.699999999255","","What sound did you hear?","1","","","1","INDUCTION-JUDGMENT","right","1","","","","","","","","","","","","","","","","","","","","","","","","","","","","","","","","","","","","",""
"html-keyboard-response","50","546243","0.0-4.0-1.0-2.9","2","1","gaubs1usjzox655","","null","","<p style=""color:green;""><b>Correct!</b></p>","","null","","","","","","","","","","","","","","","","","","","","","","","","","","","","","","","","","","","","","","","","","",""
"audio-keyboard-response","51","547055","0.0-4.0-1.0-0.10","2","1","gaubs1usjzox655","","null","","sounds/induction/left/ru_SWS.wav","","null","","","","","","","","","","","","","","","","","","","","","","","","","","","","","","","","","","","","","","","","","",""
"html-button-response","52","548002","0.0-4.0-1.0-1.10","2","1","gaubs1usjzox655","","946.3999999985099","","What sound did you hear?","0","","","1","INDUCTION-JUDGMENT","left","0","","","","","","","","","","","","","","","","","","","","","","","","","","","","","","","","","","","","",""
"html-keyboard-response","53","549004","0.0-4.0-1.0-2.10","2","1","gaubs1usjzox655","","null","","<p style=""color:green;""><b>Correct!</b></p>","","null","","","","","","","","","","","","","","","","","","","","","","","","","","","","","","","","","","","","","","","","","",""
"audio-keyboard-response","54","549814","0.0-4.0-1.0-0.11","2","1","gaubs1usjzox655","","null","","sounds/induction/left/fu_SWS.wav","","null","","","","","","","","","","","","","","","","","","","","","","","","","","","","","","","","","","","","","","","","","",""
"html-button-response","55","550812","0.0-4.0-1.0-1.11","2","1","gaubs1usjzox655","","997.0999999977648","","What sound did you hear?","1","","","1","INDUCTION-JUDGMENT","left","1","","","","","","","","","","","","","","","","","","","","","","","","","","","","","","","","","","","","",""
"html-keyboard-response","56","551813","0.0-4.0-1.0-2.11","2","1","gaubs1usjzox655","","null","","<p style=""color:green;""><b>Correct!</b></p>","","null","","","","","","","","","","","","","","","","","","","","","","","","","","","","","","","","","","","","","","","","","",""
"audio-keyboard-response","57","552625","0.0-4.0-1.0-0.12","2","1","gaubs1usjzox655","","null","","sounds/induction/left/fe_SWS.wav","","null","","","","","","","","","","","","","","","","","","","","","","","","","","","","","","","","","","","","","","","","","",""
"html-button-response","58","553609","0.0-4.0-1.0-1.12","2","1","gaubs1usjzox655","","982.7000000029802","","What sound did you hear?","1","","","1","INDUCTION-JUDGMENT","left","1","","","","","","","","","","","","","","","","","","","","","","","","","","","","","","","","","","","","",""
"html-keyboard-response","59","554614","0.0-4.0-1.0-2.12","2","1","gaubs1usjzox655","","null","","<p style=""color:green;""><b>Correct!</b></p>","","null","","","","","","","","","","","","","","","","","","","","","","","","","","","","","","","","","","","","","","","","","",""
"audio-keyboard-response","60","555425","0.0-4.0-1.0-0.13","2","1","gaubs1usjzox655","","null","","sounds/induction/left/ti_SWS.wav","","null","","","","","","","","","","","","","","","","","","","","","","","","","","","","","","","","","","","","","","","","","",""
"html-button-response","61","556495","0.0-4.0-1.0-1.13","2","1","gaubs1usjzox655","","1069.7999999970198","","What sound did you hear?","0","","","1","INDUCTION-JUDGMENT","left","0","","","","","","","","","","","","","","","","","","","","","","","","","","","","","","","","","","","","",""
"html-keyboard-response","62","557497","0.0-4.0-1.0-2.13","2","1","gaubs1usjzox655","","null","","<p style=""color:green;""><b>Correct!</b></p>","","null","","","","","","","","","","","","","","","","","","","","","","","","","","","","","","","","","","","","","","","","","",""
"audio-keyboard-response","63","558305","0.0-4.0-1.0-0.14","2","1","gaubs1usjzox655","","null","","sounds/induction/left/fe_SWS.wav","","null","","","","","","","","","","","","","","","","","","","","","","","","","","","","","","","","","","","","","","","","","",""
"html-button-response","64","559448","0.0-4.0-1.0-1.14","2","1","gaubs1usjzox655","","1142.199999999255","","What sound did you hear?","0","","","0","INDUCTION-JUDGMENT","left","1","","","","","","","","","","","","","","","","","","","","","","","","","","","","","","","","","","","","",""
"html-keyboard-response","65","560449","0.0-4.0-1.0-2.14","2","1","gaubs1usjzox655","","null","","<p style=""color:red;""><b>Incorrect!</b></p>","","null","","","","","","","","","","","","","","","","","","","","","","","","","","","","","","","","","","","","","","","","","",""
"audio-keyboard-response","66","561265","0.0-4.0-1.0-0.15","2","1","gaubs1usjzox655","","null","","sounds/induction/left/ko_SWS.wav","","null","","","","","","","","","","","","","","","","","","","","","","","","","","","","","","","","","","","","","","","","","",""
"html-button-response","67","562326","0.0-4.0-1.0-1.15","2","1","gaubs1usjzox655","","1060.5999999977648","","What sound did you hear?","0","","","0","INDUCTION-JUDGMENT","left","1","","","","","","","","","","","","","","","","","","","","","","","","","","","","","","","","","","","","",""
"html-keyboard-response","68","563337","0.0-4.0-1.0-2.15","2","1","gaubs1usjzox655","","null","","<p style=""color:red;""><b>Incorrect!</b></p>","","null","","","","","","","","","","","","","","","","","","","","","","","","","","","","","","","","","","","","","","","","","",""
"audio-keyboard-response","69","564146","0.0-4.0-1.0-0.16","2","1","gaubs1usjzox655","","null","","sounds/induction/right/me_SWS.wav","","null","","","","","","","","","","","","","","","","","","","","","","","","","","","","","","","","","","","","","","","","","",""
"html-button-response","70","565300","0.0-4.0-1.0-1.16","2","1","gaubs1usjzox655","","1153.5999999977648","","What sound did you hear?","1","","","0","INDUCTION-JUDGMENT","right","0","","","","","","","","","","","","","","","","","","","","","","","","","","","","","","","","","","","","",""
"html-keyboard-response","71","566301","0.0-4.0-1.0-2.16","2","1","gaubs1usjzox655","","null","","<p style=""color:red;""><b>Incorrect!</b></p>","","null","","","","","","","","","","","","","","","","","","","","","","","","","","","","","","","","","","","","","","","","","",""
"audio-keyboard-response","72","567105","0.0-4.0-1.0-0.17","2","1","gaubs1usjzox655","","null","","sounds/induction/right/re_SWS.wav","","null","","","","","","","","","","","","","","","","","","","","","","","","","","","","","","","","","","","","","","","","","",""
"html-button-response","73","568054","0.0-4.0-1.0-1.17","2","1","gaubs1usjzox655","","948","","What sound did you hear?","1","","","1","INDUCTION-JUDGMENT","right","1","","","","","","","","","","","","","","","","","","","","","","","","","","","","","","","","","","","","",""
"html-keyboard-response","74","569069","0.0-4.0-1.0-2.17","2","1","gaubs1usjzox655","","null","","<p style=""color:green;""><b>Correct!</b></p>","","null","","","","","","","","","","","","","","","","","","","","","","","","","","","","","","","","","","","","","","","","","",""
"audio-keyboard-response","75","569864","0.0-4.0-1.0-0.18","2","1","gaubs1usjzox655","","null","","sounds/induction/left/ni_SWS.wav","","null","","","","","","","","","","","","","","","","","","","","","","","","","","","","","","","","","","","","","","","","","",""
"html-button-response","76","571549","0.0-4.0-1.0-1.18","2","1","gaubs1usjzox655","","1683.8999999985099","","What sound did you hear?","0","","","0","INDUCTION-JUDGMENT","left","1","","","","","","","","","","","","","","","","","","","","","","","","","","","","","","","","","","","","",""
"html-keyboard-response","77","572550","0.0-4.0-1.0-2.18","2","1","gaubs1usjzox655","","null","","<p style=""color:red;""><b>Incorrect!</b></p>","","null","","","","","","","","","","","","","","","","","","","","","","","","","","","","","","","","","","","","","","","","","",""
"audio-keyboard-response","78","573365","0.0-4.0-1.0-0.19","2","1","gaubs1usjzox655","","null","","sounds/induction/right/ge_SWS.wav","","null","","","","","","","","","","","","","","","","","","","","","","","","","","","","","","","","","","","","","","","","","",""
"html-button-response","79","574919","0.0-4.0-1.0-1.19","2","1","gaubs1usjzox655","","1552.3999999985099","","What sound did you hear?","1","","","0","INDUCTION-JUDGMENT","right","0","","","","","","","","","","","","","","","","","","","","","","","","","","","","","","","","","","","","",""
"html-keyboard-response","80","575928","0.0-4.0-1.0-2.19","2","1","gaubs1usjzox655","","null","","<p style=""color:red;""><b>Incorrect!</b></p>","","null","","","","","","","","","","","","","","","","","","","","","","","","","","","","","","","","","","","","","","","","","",""
"audio-keyboard-response","81","576755","0.0-4.0-1.0-0.20","2","1","gaubs1usjzox655","","null","","sounds/induction/right/re_SWS.wav","","null","","","","","","","","","","","","","","","","","","","","","","","","","","","","","","","","","","","","","","","","","",""
"html-button-response","82","579136","0.0-4.0-1.0-1.20","2","1","gaubs1usjzox655","","2379.800000000745","","What sound did you hear?","0","","","0","INDUCTION-JUDGMENT","right","1","","","","","","","","","","","","","","","","","","","","","","","","","","","","","","","","","","","","",""
"html-keyboard-response","83","580137","0.0-4.0-1.0-2.20","2","1","gaubs1usjzox655","","null","","<p style=""color:red;""><b>Incorrect!</b></p>","","null","","","","","","","","","","","","","","","","","","","","","","","","","","","","","","","","","","","","","","","","","",""
"audio-keyboard-response","84","580955","0.0-4.0-1.0-0.21","2","1","gaubs1usjzox655","","null","","sounds/induction/right/pu_SWS.wav","","null","","","","","","","","","","","","","","","","","","","","","","","","","","","","","","","","","","","","","","","","","",""
"html-button-response","85","582316","0.0-4.0-1.0-1.21","2","1","gaubs1usjzox655","","1360.5","","What sound did you hear?","1","","","1","INDUCTION-JUDGMENT","right","1","","","","","","","","","","","","","","","","","","","","","","","","","","","","","","","","","","","","",""
"html-keyboard-response","86","583322","0.0-4.0-1.0-2.21","2","1","gaubs1usjzox655","","null","","<p style=""color:green;""><b>Correct!</b></p>","","null","","","","","","","","","","","","","","","","","","","","","","","","","","","","","","","","","","","","","","","","","",""
"audio-keyboard-response","87","584125","0.0-4.0-1.0-0.22","2","1","gaubs1usjzox655","","null","","sounds/induction/right/su_SWS.wav","","null","","","","","","","","","","","","","","","","","","","","","","","","","","","","","","","","","","","","","","","","","",""
"html-button-response","88","585680","0.0-4.0-1.0-1.22","2","1","gaubs1usjzox655","","1554.9000000022352","","What sound did you hear?","1","","","1","INDUCTION-JUDGMENT","right","1","","","","","","","","","","","","","","","","","","","","","","","","","","","","","","","","","","","","",""
"html-keyboard-response","89","586685","0.0-4.0-1.0-2.22","2","1","gaubs1usjzox655","","null","","<p style=""color:green;""><b>Correct!</b></p>","","null","","","","","","","","","","","","","","","","","","","","","","","","","","","","","","","","","","","","","","","","","",""
"audio-keyboard-response","90","587495","0.0-4.0-1.0-0.23","2","1","gaubs1usjzox655","","null","","sounds/induction/left/ge_SWS.wav","","null","","","","","","","","","","","","","","","","","","","","","","","","","","","","","","","","","","","","","","","","","",""
"html-button-response","91","590231","0.0-4.0-1.0-1.23","2","1","gaubs1usjzox655","","2735.699999999255","","What sound did you hear?","0","","","0","INDUCTION-JUDGMENT","left","1","","","","","","","","","","","","","","","","","","","","","","","","","","","","","","","","","","","","",""
"html-keyboard-response","92","591241","0.0-4.0-1.0-2.23","2","1","gaubs1usjzox655","","null","","<p style=""color:red;""><b>Incorrect!</b></p>","","null","","","","","","","","","","","","","","","","","","","","","","","","","","","","","","","","","","","","","","","","","",""
"audio-keyboard-response","93","592055","0.0-4.0-1.0-0.24","2","1","gaubs1usjzox655","","null","","sounds/induction/left/ta_SWS.wav","","null","","","","","","","","","","","","","","","","","","","","","","","","","","","","","","","","","","","","","","","","","",""
"html-button-response","94","593109","0.0-4.0-1.0-1.24","2","1","gaubs1usjzox655","","1053.7000000029802","","What sound did you hear?","0","","","1","INDUCTION-JUDGMENT","left","0","","","","","","","","","","","","","","","","","","","","","","","","","","","","","","","","","","","","",""
"html-keyboard-response","95","594125","0.0-4.0-1.0-2.24","2","1","gaubs1usjzox655","","null","","<p style=""color:green;""><b>Correct!</b></p>","","null","","","","","","","","","","","","","","","","","","","","","","","","","","","","","","","","","","","","","","","","","",""
"audio-keyboard-response","96","594924","0.0-4.0-1.0-0.25","2","1","gaubs1usjzox655","","null","","sounds/induction/left/pu_SWS.wav","","null","","","","","","","","","","","","","","","","","","","","","","","","","","","","","","","","","","","","","","","","","",""
"html-button-response","97","596013","0.0-4.0-1.0-1.25","2","1","gaubs1usjzox655","","1087.699999999255","","What sound did you hear?","0","","","1","INDUCTION-JUDGMENT","left","0","","","","","","","","","","","","","","","","","","","","","","","","","","","","","","","","","","","","",""
"html-keyboard-response","98","597023","0.0-4.0-1.0-2.25","2","1","gaubs1usjzox655","","null","","<p style=""color:green;""><b>Correct!</b></p>","","null","","","","","","","","","","","","","","","","","","","","","","","","","","","","","","","","","","","","","","","","","",""
"audio-keyboard-response","99","597825","0.0-4.0-1.0-0.26","2","1","gaubs1usjzox655","","null","","sounds/induction/left/ko_SWS.wav","","null","","","","","","","","","","","","","","","","","","","","","","","","","","","","","","","","","","","","","","","","","",""
"html-button-response","100","598844","0.0-4.0-1.0-1.26","2","1","gaubs1usjzox655","","1018","","What sound did you hear?","1","","","1","INDUCTION-JUDGMENT","left","1","","","","","","","","","","","","","","","","","","","","","","","","","","","","","","","","","","","","",""
"html-keyboard-response","101","599852","0.0-4.0-1.0-2.26","2","1","gaubs1usjzox655","","null","","<p style=""color:green;""><b>Correct!</b></p>","","null","","","","","","","","","","","","","","","","","","","","","","","","","","","","","","","","","","","","","","","","","",""
"audio-keyboard-response","102","600655","0.0-4.0-1.0-0.27","2","1","gaubs1usjzox655","","null","","sounds/induction/right/fe_SWS.wav","","null","","","","","","","","","","","","","","","","","","","","","","","","","","","","","","","","","","","","","","","","","",""
"html-button-response","103","602802","0.0-4.0-1.0-1.27","2","1","gaubs1usjzox655","","2146.199999999255","","What sound did you hear?","0","","","1","INDUCTION-JUDGMENT","right","0","","","","","","","","","","","","","","","","","","","","","","","","","","","","","","","","","","","","",""
"html-keyboard-response","104","603803","0.0-4.0-1.0-2.27","2","1","gaubs1usjzox655","","null","","<p style=""color:green;""><b>Correct!</b></p>","","null","","","","","","","","","","","","","","","","","","","","","","","","","","","","","","","","","","","","","","","","","",""
"audio-keyboard-response","105","604604","0.0-4.0-1.0-0.28","2","1","gaubs1usjzox655","","null","","sounds/induction/left/ti_SWS.wav","","null","","","","","","","","","","","","","","","","","","","","","","","","","","","","","","","","","","","","","","","","","",""
"html-button-response","106","607899","0.0-4.0-1.0-1.28","2","1","gaubs1usjzox655","","3294.10000000149","","What sound did you hear?","0","","","1","INDUCTION-JUDGMENT","left","0","","","","","","","","","","","","","","","","","","","","","","","","","","","","","","","","","","","","",""
"html-keyboard-response","107","608914","0.0-4.0-1.0-2.28","2","1","gaubs1usjzox655","","null","","<p style=""color:green;""><b>Correct!</b></p>","","null","","","","","","","","","","","","","","","","","","","","","","","","","","","","","","","","","","","","","","","","","",""
"audio-keyboard-response","108","609725","0.0-4.0-1.0-0.29","2","1","gaubs1usjzox655","","null","","sounds/induction/left/fu_SWS.wav","","null","","","","","","","","","","","","","","","","","","","","","","","","","","","","","","","","","","","","","","","","","",""
"html-button-response","109","610867","0.0-4.0-1.0-1.29","2","1","gaubs1usjzox655","","1140.6000000014901","","What sound did you hear?","1","","","1","INDUCTION-JUDGMENT","left","1","","","","","","","","","","","","","","","","","","","","","","","","","","","","","","","","","","","","",""
"html-keyboard-response","110","611868","0.0-4.0-1.0-2.29","2","1","gaubs1usjzox655","","null","","<p style=""color:green;""><b>Correct!</b></p>","","null","","","","","","","","","","","","","","","","","","","","","","","","","","","","","","","","","","","","","","","","","",""
"audio-keyboard-response","111","612664","0.0-4.0-1.0-0.30","2","1","gaubs1usjzox655","","null","","sounds/induction/right/fe_SWS.wav","","null","","","","","","","","","","","","","","","","","","","","","","","","","","","","","","","","","","","","","","","","","",""
"html-button-response","112","614345","0.0-4.0-1.0-1.30","2","1","gaubs1usjzox655","","1679.699999999255","","What sound did you hear?","0","","","1","INDUCTION-JUDGMENT","right","0","","","","","","","","","","","","","","","","","","","","","","","","","","","","","","","","","","","","",""
"html-keyboard-response","113","615361","0.0-4.0-1.0-2.30","2","1","gaubs1usjzox655","","null","","<p style=""color:green;""><b>Correct!</b></p>","","null","","","","","","","","","","","","","","","","","","","","","","","","","","","","","","","","","","","","","","","","","",""
"audio-keyboard-response","114","616175","0.0-4.0-1.0-0.31","2","1","gaubs1usjzox655","","null","","sounds/induction/left/su_SWS.wav","","null","","","","","","","","","","","","","","","","","","","","","","","","","","","","","","","","","","","","","","","","","",""
"html-button-response","115","617777","0.0-4.0-1.0-1.31","2","1","gaubs1usjzox655","","1601.0999999977648","","What sound did you hear?","0","","","1","INDUCTION-JUDGMENT","left","0","","","","","","","","","","","","","","","","","","","","","","","","","","","","","","","","","","","","",""
"html-keyboard-response","116","618782","0.0-4.0-1.0-2.31","2","1","gaubs1usjzox655","","null","","<p style=""color:green;""><b>Correct!</b></p>","","null","","","","","","","","","","","","","","","","","","","","","","","","","","","","","","","","","","","","","","","","","",""
"audio-keyboard-response","117","619605","0.0-4.0-1.0-0.32","2","1","gaubs1usjzox655","","null","","sounds/induction/left/pu_SWS.wav","","null","","","","","","","","","","","","","","","","","","","","","","","","","","","","","","","","","","","","","","","","","",""
"html-button-response","118","621033","0.0-4.0-1.0-1.32","2","1","gaubs1usjzox655","","1427.9000000022352","","What sound did you hear?","0","","","1","INDUCTION-JUDGMENT","left","0","","","","","","","","","","","","","","","","","","","","","","","","","","","","","","","","","","","","",""
"html-keyboard-response","119","622040","0.0-4.0-1.0-2.32","2","1","gaubs1usjzox655","","null","","<p style=""color:green;""><b>Correct!</b></p>","","null","","","","","","","","","","","","","","","","","","","","","","","","","","","","","","","","","","","","","","","","","",""
"audio-keyboard-response","120","622844","0.0-4.0-1.0-0.33","2","1","gaubs1usjzox655","","null","","sounds/induction/left/ni_SWS.wav","","null","","","","","","","","","","","","","","","","","","","","","","","","","","","","","","","","","","","","","","","","","",""
"html-button-response","121","624041","0.0-4.0-1.0-1.33","2","1","gaubs1usjzox655","","1195.800000000745","","What sound did you hear?","1","","","1","INDUCTION-JUDGMENT","left","1","","","","","","","","","","","","","","","","","","","","","","","","","","","","","","","","","","","","",""
"html-keyboard-response","122","625043","0.0-4.0-1.0-2.33","2","1","gaubs1usjzox655","","null","","<p style=""color:green;""><b>Correct!</b></p>","","null","","","","","","","","","","","","","","","","","","","","","","","","","","","","","","","","","","","","","","","","","",""
"audio-keyboard-response","123","625854","0.0-4.0-1.0-0.34","2","1","gaubs1usjzox655","","null","","sounds/induction/right/ta_SWS.wav","","null","","","","","","","","","","","","","","","","","","","","","","","","","","","","","","","","","","","","","","","","","",""
"html-button-response","124","627547","0.0-4.0-1.0-1.34","2","1","gaubs1usjzox655","","1691.8999999985099","","What sound did you hear?","0","","","0","INDUCTION-JUDGMENT","right","1","","","","","","","","","","","","","","","","","","","","","","","","","","","","","","","","","","","","",""
"html-keyboard-response","125","628555","0.0-4.0-1.0-2.34","2","1","gaubs1usjzox655","","null","","<p style=""color:red;""><b>Incorrect!</b></p>","","null","","","","","","","","","","","","","","","","","","","","","","","","","","","","","","","","","","","","","","","","","",""
"audio-keyboard-response","126","629354","0.0-4.0-1.0-0.35","2","1","gaubs1usjzox655","","null","","sounds/induction/right/ta_SWS.wav","","null","","","","","","","","","","","","","","","","","","","","","","","","","","","","","","","","","","","","","","","","","",""
"html-button-response","127","630691","0.0-4.0-1.0-1.35","2","1","gaubs1usjzox655","","1336.699999999255","","What sound did you hear?","1","","","1","INDUCTION-JUDGMENT","right","1","","","","","","","","","","","","","","","","","","","","","","","","","","","","","","","","","","","","",""
"html-keyboard-response","128","631693","0.0-4.0-1.0-2.35","2","1","gaubs1usjzox655","","null","","<p style=""color:green;""><b>Correct!</b></p>","","null","","","","","","","","","","","","","","","","","","","","","","","","","","","","","","","","","","","","","","","","","",""
"audio-keyboard-response","129","632494","0.0-4.0-1.0-0.36","2","1","gaubs1usjzox655","","null","","sounds/induction/right/pu_SWS.wav","","null","","","","","","","","","","","","","","","","","","","","","","","","","","","","","","","","","","","","","","","","","",""
"html-button-response","130","633310","0.0-4.0-1.0-1.36","2","1","gaubs1usjzox655","","814.8000000007451","","What sound did you hear?","1","","","1","INDUCTION-JUDGMENT","right","1","","","","","","","","","","","","","","","","","","","","","","","","","","","","","","","","","","","","",""
"html-keyboard-response","131","634312","0.0-4.0-1.0-2.36","2","1","gaubs1usjzox655","","null","","<p style=""color:green;""><b>Correct!</b></p>","","null","","","","","","","","","","","","","","","","","","","","","","","","","","","","","","","","","","","","","","","","","",""
"audio-keyboard-response","132","635104","0.0-4.0-1.0-0.37","2","1","gaubs1usjzox655","","null","","sounds/induction/right/ru_SWS.wav","","null","","","","","","","","","","","","","","","","","","","","","","","","","","","","","","","","","","","","","","","","","",""
"html-button-response","133","636473","0.0-4.0-1.0-1.37","2","1","gaubs1usjzox655","","1368.4000000022352","","What sound did you hear?","1","","","1","INDUCTION-JUDGMENT","right","1","","","","","","","","","","","","","","","","","","","","","","","","","","","","","","","","","","","","",""
"html-keyboard-response","134","637479","0.0-4.0-1.0-2.37","2","1","gaubs1usjzox655","","null","","<p style=""color:green;""><b>Correct!</b></p>","","null","","","","","","","","","","","","","","","","","","","","","","","","","","","","","","","","","","","","","","","","","",""
"audio-keyboard-response","135","638284","0.0-4.0-1.0-0.38","2","1","gaubs1usjzox655","","null","","sounds/induction/left/re_SWS.wav","","null","","","","","","","","","","","","","","","","","","","","","","","","","","","","","","","","","","","","","","","","","",""
"html-button-response","136","639541","0.0-4.0-1.0-1.38","2","1","gaubs1usjzox655","","1256.199999999255","","What sound did you hear?","0","","","1","INDUCTION-JUDGMENT","left","0","","","","","","","","","","","","","","","","","","","","","","","","","","","","","","","","","","","","",""
"html-keyboard-response","137","640544","0.0-4.0-1.0-2.38","2","1","gaubs1usjzox655","","null","","<p style=""color:green;""><b>Correct!</b></p>","","null","","","","","","","","","","","","","","","","","","","","","","","","","","","","","","","","","","","","","","","","","",""
"audio-keyboard-response","138","641344","0.0-4.0-1.0-0.39","2","1","gaubs1usjzox655","","null","","sounds/induction/left/me_SWS.wav","","null","","","","","","","","","","","","","","","","","","","","","","","","","","","","","","","","","","","","","","","","","",""
"html-button-response","139","644371","0.0-4.0-1.0-1.39","2","1","gaubs1usjzox655","","3027","","What sound did you hear?","0","","","0","INDUCTION-JUDGMENT","left","1","","","","","","","","","","","","","","","","","","","","","","","","","","","","","","","","","","","","",""
"html-keyboard-response","140","645372","0.0-4.0-1.0-2.39","2","1","gaubs1usjzox655","","null","","<p style=""color:red;""><b>Incorrect!</b></p>","","null","","","","","","","","","","","","","","","","","","","","","","","","","","","","","","","","","","","","","","","","","",""
"audio-keyboard-response","141","646175","0.0-4.0-1.0-0.40","2","1","gaubs1usjzox655","","null","","sounds/induction/right/ge_SWS.wav","","null","","","","","","","","","","","","","","","","","","","","","","","","","","","","","","","","","","","","","","","","","",""
"html-button-response","142","647439","0.0-4.0-1.0-1.40","2","1","gaubs1usjzox655","","1262.8999999985099","","What sound did you hear?","0","","","1","INDUCTION-JUDGMENT","right","0","","","","","","","","","","","","","","","","","","","","","","","","","","","","","","","","","","","","",""
"html-keyboard-response","143","648441","0.0-4.0-1.0-2.40","2","1","gaubs1usjzox655","","null","","<p style=""color:green;""><b>Correct!</b></p>","","null","","","","","","","","","","","","","","","","","","","","","","","","","","","","","","","","","","","","","","","","","",""
"audio-keyboard-response","144","649245","0.0-4.0-1.0-0.41","2","1","gaubs1usjzox655","","null","","sounds/induction/left/ru_SWS.wav","","null","","","","","","","","","","","","","","","","","","","","","","","","","","","","","","","","","","","","","","","","","",""
"html-button-response","145","650340","0.0-4.0-1.0-1.41","2","1","gaubs1usjzox655","","1094.6000000014901","","What sound did you hear?","0","","","1","INDUCTION-JUDGMENT","left","0","","","","","","","","","","","","","","","","","","","","","","","","","","","","","","","","","","","","",""
"html-keyboard-response","146","651348","0.0-4.0-1.0-2.41","2","1","gaubs1usjzox655","","null","","<p style=""color:green;""><b>Correct!</b></p>","","null","","","","","","","","","","","","","","","","","","","","","","","","","","","","","","","","","","","","","","","","","",""
"audio-keyboard-response","147","652144","0.0-4.0-1.0-0.42","2","1","gaubs1usjzox655","","null","","sounds/induction/left/ta_SWS.wav","","null","","","","","","","","","","","","","","","","","","","","","","","","","","","","","","","","","","","","","","","","","",""
"html-button-response","148","653363","0.0-4.0-1.0-1.42","2","1","gaubs1usjzox655","","1218","","What sound did you hear?","1","","","0","INDUCTION-JUDGMENT","left","0","","","","","","","","","","","","","","","","","","","","","","","","","","","","","","","","","","","","",""
"html-keyboard-response","149","654370","0.0-4.0-1.0-2.42","2","1","gaubs1usjzox655","","null","","<p style=""color:red;""><b>Incorrect!</b></p>","","null","","","","","","","","","","","","","","","","","","","","","","","","","","","","","","","","","","","","","","","","","",""
"audio-keyboard-response","150","655174","0.0-4.0-1.0-0.43","2","1","gaubs1usjzox655","","null","","sounds/induction/right/ru_SWS.wav","","null","","","","","","","","","","","","","","","","","","","","","","","","","","","","","","","","","","","","","","","","","",""
"html-button-response","151","656484","0.0-4.0-1.0-1.43","2","1","gaubs1usjzox655","","1309.8999999985099","","What sound did you hear?","1","","","1","INDUCTION-JUDGMENT","right","1","","","","","","","","","","","","","","","","","","","","","","","","","","","","","","","","","","","","",""
"html-keyboard-response","152","657499","0.0-4.0-1.0-2.43","2","1","gaubs1usjzox655","","null","","<p style=""color:green;""><b>Correct!</b></p>","","null","","","","","","","","","","","","","","","","","","","","","","","","","","","","","","","","","","","","","","","","","",""
"audio-keyboard-response","153","658295","0.0-4.0-1.0-0.44","2","1","gaubs1usjzox655","","null","","sounds/induction/right/ni_SWS.wav","","null","","","","","","","","","","","","","","","","","","","","","","","","","","","","","","","","","","","","","","","","","",""
"html-button-response","154","660590","0.0-4.0-1.0-1.44","2","1","gaubs1usjzox655","","2294","","What sound did you hear?","1","","","0","INDUCTION-JUDGMENT","right","0","","","","","","","","","","","","","","","","","","","","","","","","","","","","","","","","","","","","",""
"html-keyboard-response","155","661597","0.0-4.0-1.0-2.44","2","1","gaubs1usjzox655","","null","","<p style=""color:red;""><b>Incorrect!</b></p>","","null","","","","","","","","","","","","","","","","","","","","","","","","","","","","","","","","","","","","","","","","","",""
"audio-keyboard-response","156","662404","0.0-4.0-1.0-0.45","2","1","gaubs1usjzox655","","null","","sounds/induction/right/ko_SWS.wav","","null","","","","","","","","","","","","","","","","","","","","","","","","","","","","","","","","","","","","","","","","","",""
"html-button-response","157","663522","0.0-4.0-1.0-1.45","2","1","gaubs1usjzox655","","1117.300000000745","","What sound did you hear?","0","","","1","INDUCTION-JUDGMENT","right","0","","","","","","","","","","","","","","","","","","","","","","","","","","","","","","","","","","","","",""
"html-keyboard-response","158","664523","0.0-4.0-1.0-2.45","2","1","gaubs1usjzox655","","null","","<p style=""color:green;""><b>Correct!</b></p>","","null","","","","","","","","","","","","","","","","","","","","","","","","","","","","","","","","","","","","","","","","","",""
"audio-keyboard-response","159","665325","0.0-4.0-1.0-0.46","2","1","gaubs1usjzox655","","null","","sounds/induction/right/fu_SWS.wav","","null","","","","","","","","","","","","","","","","","","","","","","","","","","","","","","","","","","","","","","","","","",""
"html-button-response","160","666866","0.0-4.0-1.0-1.46","2","1","gaubs1usjzox655","","1540.300000000745","","What sound did you hear?","0","","","1","INDUCTION-JUDGMENT","right","0","","","","","","","","","","","","","","","","","","","","","","","","","","","","","","","","","","","","",""
"html-keyboard-response","161","667867","0.0-4.0-1.0-2.46","2","1","gaubs1usjzox655","","null","","<p style=""color:green;""><b>Correct!</b></p>","","null","","","","","","","","","","","","","","","","","","","","","","","","","","","","","","","","","","","","","","","","","",""
"audio-keyboard-response","162","668674","0.0-4.0-1.0-0.47","2","1","gaubs1usjzox655","","null","","sounds/induction/right/me_SWS.wav","","null","","","","","","","","","","","","","","","","","","","","","","","","","","","","","","","","","","","","","","","","","",""
"html-button-response","163","670250","0.0-4.0-1.0-1.47","2","1","gaubs1usjzox655","","1575.199999999255","","What sound did you hear?","0","","","1","INDUCTION-JUDGMENT","right","0","","","","","","","","","","","","","","","","","","","","","","","","","","","","","","","","","","","","",""
"html-keyboard-response","164","671252","0.0-4.0-1.0-2.47","2","1","gaubs1usjzox655","","null","","<p style=""color:green;""><b>Correct!</b></p>","","null","","","","","","","","","","","","","","","","","","","","","","","","","","","","","","","","","","","","","","","","","",""
"html-button-response","165","680278","0.0-5.0-0.0","2","1","gaubs1usjzox655","","8513.70000000298","","<p>Thank you for your answers.</p><p>You will now listen to similar sounds. The main difference is that the sounds will be longer and will make up complete sentences.</p><p>Please listen carefully to each sentence. After each sentence, you will be asked to type back what you heard to the best of your ability. After you provide your response, you will be given feedback about the correct answer.</p><p>There are 10 sentences in total.","0","","","","","","","","","","","","","","","","","","","","","","","","","","","","","","","","","","","","","","","","","","",""
"audio-keyboard-response","166","683274","0.0-5.0-1.0-0.0","2","1","gaubs1usjzox655","","null","","sounds/sentences/left/14_05_cfSWS.wav","","null","","","","","","","","","","","","","","","","","","","","","","","","","","","","","","","","","","","","","","","","","",""
"sentence-resp","167","712304","0.0-5.0-1.0-1.0","2","1","gaubs1usjzox655","","29028","","","","","","","SWS-SENT-RESPONSE","","","{""Q0"":""I was not ready""}","The glow deepened in the eyes of the sweet girl.","glow,deepened,eyes,sweet,girl","I WAS NOT READY","0","0","0","0","0","0","0","","","","","","","","","","","","","","","","","","","","","","","","","",""
"html-keyboard-response","168","713568","0.0-5.0-1.0-2.0","2","1","gaubs1usjzox655","","null","","","","null","","","","","","","","","","","","","","","","","","","","","","","","","","","","","","","","","","","","","","","","","",""
"audio-keyboard-response","169","716055","0.0-5.0-1.0-3.0","2","1","gaubs1usjzox655","","null","","sounds/sentences/left/14_05_cfSWS.wav","","null","","","","","","","","","","","","","","","","","","","","","","","","","","","","","","","","","","","","","","","","","",""
"html-keyboard-response","170","717069","0.0-5.0-1.0-4.0","2","1","gaubs1usjzox655","","null","","","","null","","","","","","","","","","","","","","","","","","","","","","","","","","","","","","","","","","","","","","","","","",""
"html-button-response","171","718816","0.0-5.0-1.0-5.0","2","1","gaubs1usjzox655","","1243.5999999977648","","<p>Press the button below when you are ready to continue.</p>","0","","","","","","","","","","","","","","","","","","","","","","","","","","","","","","","","","","","","","","","","","","",""
"audio-keyboard-response","172","721845","0.0-5.0-1.0-0.1","2","1","gaubs1usjzox655","","null","","sounds/sentences/right/14_10_cfSWS.wav","","null","","","","","","","","","","","","","","","","","","","","","","","","","","","","","","","","","","","","","","","","","",""
"sentence-resp","173","728309","0.0-5.0-1.0-1.1","2","1","gaubs1usjzox655","","6462","","","","","","","SWS-SENT-RESPONSE","","","{""Q0"":""Cannot decipher""}","Port is a strong wine with a smoky taste.","port,strong,wine,smoky,taste","CANNOT DECIPHER","0","0","0","0","0","0","0","","","","","","","","","","","","","","","","","","","","","","","","","",""
"html-keyboard-response","174","729570","0.0-5.0-1.0-2.1","2","1","gaubs1usjzox655","","null","","","","null","","","","","","","","","","","","","","","","","","","","","","","","","","","","","","","","","","","","","","","","","",""
"audio-keyboard-response","175","732084","0.0-5.0-1.0-3.1","2","1","gaubs1usjzox655","","null","","sounds/sentences/right/14_10_cfSWS.wav","","null","","","","","","","","","","","","","","","","","","","","","","","","","","","","","","","","","","","","","","","","","",""
"html-keyboard-response","176","733101","0.0-5.0-1.0-4.1","2","1","gaubs1usjzox655","","null","","","","null","","","","","","","","","","","","","","","","","","","","","","","","","","","","","","","","","","","","","","","","","",""
"html-button-response","177","734673","0.0-5.0-1.0-5.1","2","1","gaubs1usjzox655","","1065.5","","<p>Press the button below when you are ready to continue.</p>","0","","","","","","","","","","","","","","","","","","","","","","","","","","","","","","","","","","","","","","","","","","",""
"audio-keyboard-response","178","737434","0.0-5.0-1.0-0.2","2","1","gaubs1usjzox655","","null","","sounds/sentences/right/14_08_cfSWS.wav","","null","","","","","","","","","","","","","","","","","","","","","","","","","","","","","","","","","","","","","","","","","",""
"sentence-resp","179","754919","0.0-5.0-1.0-1.2","2","1","gaubs1usjzox655","","17484","","","","","","","SWS-SENT-RESPONSE","","","{""Q0"":""I can only understand after the sentence is shown""}","Clothes and lodging are free to new men.","clothes,lodging,free,new,men","I CAN ONLY UNDERSTAND AFTER THE SENTENCE IS SHOWN","0","0","0","0","0","0","0","","","","","","","","","","","","","","","","","","","","","","","","","",""
"html-keyboard-response","180","756184","0.0-5.0-1.0-2.2","2","1","gaubs1usjzox655","","null","","","","null","","","","","","","","","","","","","","","","","","","","","","","","","","","","","","","","","","","","","","","","","",""
"audio-keyboard-response","181","758445","0.0-5.0-1.0-3.2","2","1","gaubs1usjzox655","","null","","sounds/sentences/right/14_08_cfSWS.wav","","null","","","","","","","","","","","","","","","","","","","","","","","","","","","","","","","","","","","","","","","","","",""
"html-keyboard-response","182","759456","0.0-5.0-1.0-4.2","2","1","gaubs1usjzox655","","null","","","","null","","","","","","","","","","","","","","","","","","","","","","","","","","","","","","","","","","","","","","","","","",""
"html-button-response","183","760594","0.0-5.0-1.0-5.2","2","1","gaubs1usjzox655","","631.6999999992549","","<p>Press the button below when you are ready to continue.</p>","0","","","","","","","","","","","","","","","","","","","","","","","","","","","","","","","","","","","","","","","","","","",""
"audio-keyboard-response","184","763154","0.0-5.0-1.0-0.3","2","1","gaubs1usjzox655","","null","","sounds/sentences/left/14_04_cfSWS.wav","","null","","","","","","","","","","","","","","","","","","","","","","","","","","","","","","","","","","","","","","","","","",""
"sentence-resp","185","783273","0.0-5.0-1.0-1.3","2","1","gaubs1usjzox655","","20117","","","","","","","SWS-SENT-RESPONSE","","","{""Q0"":""""}","Two plus seven is less than ten.","two,plus,seven,less,ten","","0","0","0","0","0","0","0","","","","","","","","","","","","","","","","","","","","","","","","","",""
"html-keyboard-response","186","784542","0.0-5.0-1.0-2.3","2","1","gaubs1usjzox655","","null","","","","null","","","","","","","","","","","","","","","","","","","","","","","","","","","","","","","","","","","","","","","","","",""
"audio-keyboard-response","187","786595","0.0-5.0-1.0-3.3","2","1","gaubs1usjzox655","","null","","sounds/sentences/left/14_04_cfSWS.wav","","null","","","","","","","","","","","","","","","","","","","","","","","","","","","","","","","","","","","","","","","","","",""
"html-keyboard-response","188","787604","0.0-5.0-1.0-4.3","2","1","gaubs1usjzox655","","null","","","","null","","","","","","","","","","","","","","","","","","","","","","","","","","","","","","","","","","","","","","","","","",""
"html-button-response","189","788879","0.0-5.0-1.0-5.3","2","1","gaubs1usjzox655","","770","","<p>Press the button below when you are ready to continue.</p>","0","","","","","","","","","","","","","","","","","","","","","","","","","","","","","","","","","","","","","","","","","","",""
"audio-keyboard-response","190","791476","0.0-5.0-1.0-0.4","2","1","gaubs1usjzox655","","null","","sounds/sentences/left/14_03_cfSWS.wav","","null","","","","","","","","","","","","","","","","","","","","","","","","","","","","","","","","","","","","","","","","","",""
"sentence-resp","191","793339","0.0-5.0-1.0-1.4","2","1","gaubs1usjzox655","","1862","","","","","","","SWS-SENT-RESPONSE","","","{""Q0"":""""}","Pluck the bright rose without leaves.","pluck,bright,rose,without,leaves","","0","0","0","0","0","0","0","","","","","","","","","","","","","","","","","","","","","","","","","",""
"html-keyboard-response","192","794603","0.0-5.0-1.0-2.4","2","1","gaubs1usjzox655","","null","","","","null","","","","","","","","","","","","","","","","","","","","","","","","","","","","","","","","","","","","","","","","","",""
"audio-keyboard-response","193","796685","0.0-5.0-1.0-3.4","2","1","gaubs1usjzox655","","null","","sounds/sentences/left/14_03_cfSWS.wav","","null","","","","","","","","","","","","","","","","","","","","","","","","","","","","","","","","","","","","","","","","","",""
"html-keyboard-response","194","797688","0.0-5.0-1.0-4.4","2","1","gaubs1usjzox655","","null","","","","null","","","","","","","","","","","","","","","","","","","","","","","","","","","","","","","","","","","","","","","","","",""
"html-button-response","195","799191","0.0-5.0-1.0-5.4","2","1","gaubs1usjzox655","","1001.4000000022352","","<p>Press the button below when you are ready to continue.</p>","0","","","","","","","","","","","","","","","","","","","","","","","","","","","","","","","","","","","","","","","","","","",""
"audio-keyboard-response","196","802085","0.0-5.0-1.0-0.5","2","1","gaubs1usjzox655","","null","","sounds/sentences/right/14_07_cfSWS.wav","","null","","","","","","","","","","","","","","","","","","","","","","","","","","","","","","","","","","","","","","","","","",""
"sentence-resp","197","807795","0.0-5.0-1.0-1.5","2","1","gaubs1usjzox655","","5710","","","","","","","SWS-SENT-RESPONSE","","","{""Q0"":""differentiation?""}","Write a fond note to the friend you cherish.","write,fond,note,friend,cherish","DIFFERENTIATION","0","0","0","0","0","0","0","","","","","","","","","","","","","","","","","","","","","","","","","",""
"html-keyboard-response","198","809056","0.0-5.0-1.0-2.5","2","1","gaubs1usjzox655","","null","","","","null","","","","","","","","","","","","","","","","","","","","","","","","","","","","","","","","","","","","","","","","","",""
"audio-keyboard-response","199","811445","0.0-5.0-1.0-3.5","2","1","gaubs1usjzox655","","null","","sounds/sentences/right/14_07_cfSWS.wav","","null","","","","","","","","","","","","","","","","","","","","","","","","","","","","","","","","","","","","","","","","","",""
"html-keyboard-response","200","812455","0.0-5.0-1.0-4.5","2","1","gaubs1usjzox655","","null","","","","null","","","","","","","","","","","","","","","","","","","","","","","","","","","","","","","","","","","","","","","","","",""
"html-button-response","201","813891","0.0-5.0-1.0-5.5","2","1","gaubs1usjzox655","","934.1999999992549","","<p>Press the button below when you are ready to continue.</p>","0","","","","","","","","","","","","","","","","","","","","","","","","","","","","","","","","","","","","","","","","","","",""
"audio-keyboard-response","202","816634","0.0-5.0-1.0-0.6","2","1","gaubs1usjzox655","","null","","sounds/sentences/right/14_09_cfSWS.wav","","null","","","","","","","","","","","","","","","","","","","","","","","","","","","","","","","","","","","","","","","","","",""
"sentence-resp","203","821444","0.0-5.0-1.0-1.6","2","1","gaubs1usjzox655","","4808","","","","","","","SWS-SENT-RESPONSE","","","{""Q0"":""""}","We frown when events take a bad turn.","frown,events,take,bad,turn","","0","0","0","0","0","0","0","","","","","","","","","","","","","","","","","","","","","","","","","",""
"html-keyboard-response","204","822717","0.0-5.0-1.0-2.6","2","1","gaubs1usjzox655","","null","","","","null","","","","","","","","","","","","","","","","","","","","","","","","","","","","","","","","","","","","","","","","","",""
"audio-keyboard-response","205","824944","0.0-5.0-1.0-3.6","2","1","gaubs1usjzox655","","null","","sounds/sentences/right/14_09_cfSWS.wav","","null","","","","","","","","","","","","","","","","","","","","","","","","","","","","","","","","","","","","","","","","","",""
"html-keyboard-response","206","825946","0.0-5.0-1.0-4.6","2","1","gaubs1usjzox655","","null","","","","null","","","","","","","","","","","","","","","","","","","","","","","","","","","","","","","","","","","","","","","","","",""
"html-button-response","207","827167","0.0-5.0-1.0-5.6","2","1","gaubs1usjzox655","","720.1000000014901","","<p>Press the button below when you are ready to continue.</p>","0","","","","","","","","","","","","","","","","","","","","","","","","","","","","","","","","","","","","","","","","","","",""
"audio-keyboard-response","208","829994","0.0-5.0-1.0-0.7","2","1","gaubs1usjzox655","","null","","sounds/sentences/left/14_02_cfSWS.wav","","null","","","","","","","","","","","","","","","","","","","","","","","","","","","","","","","","","","","","","","","","","",""
"sentence-resp","209","833605","0.0-5.0-1.0-1.7","2","1","gaubs1usjzox655","","3609","","","","","","","SWS-SENT-RESPONSE","","","{""Q0"":""thirty nine""}","He said the same phrase thirty times.","said,same,phrase,thirty,times","THIRTY NINE","0","0","0","1","0","1","0.2","","","","","","","","","","","","","","","","","","","","","","","","","",""
"html-keyboard-response","210","834875","0.0-5.0-1.0-2.7","2","1","gaubs1usjzox655","","null","","","","null","","","","","","","","","","","","","","","","","","","","","","","","","","","","","","","","","","","","","","","","","",""
"audio-keyboard-response","211","837195","0.0-5.0-1.0-3.7","2","1","gaubs1usjzox655","","null","","sounds/sentences/left/14_02_cfSWS.wav","","null","","","","","","","","","","","","","","","","","","","","","","","","","","","","","","","","","","","","","","","","","",""
"html-keyboard-response","212","838205","0.0-5.0-1.0-4.7","2","1","gaubs1usjzox655","","null","","","","null","","","","","","","","","","","","","","","","","","","","","","","","","","","","","","","","","","","","","","","","","",""
"html-button-response","213","839466","0.0-5.0-1.0-5.7","2","1","gaubs1usjzox655","","758","","<p>Press the button below when you are ready to continue.</p>","0","","","","","","","","","","","","","","","","","","","","","","","","","","","","","","","","","","","","","","","","","","",""
"audio-keyboard-response","214","842224","0.0-5.0-1.0-0.8","2","1","gaubs1usjzox655","","null","","sounds/sentences/right/14_06_cfSWS.wav","","null","","","","","","","","","","","","","","","","","","","","","","","","","","","","","","","","","","","","","","","","","",""
"sentence-resp","215","846902","0.0-5.0-1.0-1.8","2","1","gaubs1usjzox655","","4677","","","","","","","SWS-SENT-RESPONSE","","","{""Q0"":""problems""}","Bring your problems to the wise chief.","bring,your,problems,wise,chief","PROBLEMS","0","0","1","0","0","1","0.2","","","","","","","","","","","","","","","","","","","","","","","","","",""
"html-keyboard-response","216","848160","0.0-5.0-1.0-2.8","2","1","gaubs1usjzox655","","null","","","","null","","","","","","","","","","","","","","","","","","","","","","","","","","","","","","","","","","","","","","","","","",""
"audio-keyboard-response","217","850404","0.0-5.0-1.0-3.8","2","1","gaubs1usjzox655","","null","","sounds/sentences/right/14_06_cfSWS.wav","","null","","","","","","","","","","","","","","","","","","","","","","","","","","","","","","","","","","","","","","","","","",""
"html-keyboard-response","218","851405","0.0-5.0-1.0-4.8","2","1","gaubs1usjzox655","","null","","","","null","","","","","","","","","","","","","","","","","","","","","","","","","","","","","","","","","","","","","","","","","",""
"html-button-response","219","852844","0.0-5.0-1.0-5.8","2","1","gaubs1usjzox655","","933","","<p>Press the button below when you are ready to continue.</p>","0","","","","","","","","","","","","","","","","","","","","","","","","","","","","","","","","","","","","","","","","","","",""
"audio-keyboard-response","220","855964","0.0-5.0-1.0-0.9","2","1","gaubs1usjzox655","","null","","sounds/sentences/left/14_01_cfSWS.wav","","null","","","","","","","","","","","","","","","","","","","","","","","","","","","","","","","","","","","","","","","","","",""
"sentence-resp","221","860100","0.0-5.0-1.0-1.9","2","1","gaubs1usjzox655","","4135","","","","","","","SWS-SENT-RESPONSE","","","{""Q0"":""small""}","A cramp is no small danger on a swim.","cramp,no,small,danger,swim","SMALL","0","0","1","0","0","1","0.2","","","","","","","","","","","","","","","","","","","","","","","","","",""
"html-keyboard-response","222","861361","0.0-5.0-1.0-2.9","2","1","gaubs1usjzox655","","null","","","","null","","","","","","","","","","","","","","","","","","","","","","","","","","","","","","","","","","","","","","","","","",""
"audio-keyboard-response","223","863974","0.0-5.0-1.0-3.9","2","1","gaubs1usjzox655","","null","","sounds/sentences/left/14_01_cfSWS.wav","","null","","","","","","","","","","","","","","","","","","","","","","","","","","","","","","","","","","","","","","","","","",""
"html-keyboard-response","224","864976","0.0-5.0-1.0-4.9","2","1","gaubs1usjzox655","","null","","","","null","","","","","","","","","","","","","","","","","","","","","","","","","","","","","","","","","","","","","","","","","",""
"html-button-response","225","866383","0.0-5.0-1.0-5.9","2","1","gaubs1usjzox655","","905.1999999992549","","<p>Press the button below when you are ready to continue.</p>","0","","","","","","","","","","","","","","","","","","","","","","","","","","","","","","","","","","","","","","","","","","",""
"html-keyboard-response","226","888004","0.0-6.0-0.0","2","1","gaubs1usjzox655","","21113.699999999255","","<p>In this part of the study, you will hear sounds similar to those you just heard.</p><p>Please focus on these sounds, as you may be asked questions about them later.</p><p>Occasionally, the sounds will pause for up to two seconds. When this happens, please press SPACEBAR as quickly as you can.</br>This helps ensure that you are paying attention to the sounds.</p><p>This part of the study will take about 12 minutes to complete, and you will be given the opportunity to take a couple of short breaks every few minutes.</p><p><strong>Press SPACEBAR to begin</strong></p>","","32","","","","","","","","","","","","","","","","","","","","","","","","","","","","","","","","","","","","","","","","","",""
"html-keyboard-response","227","889015","0.0-6.0-1.0-0.0","2","1","gaubs1usjzox655","","null","","<p style=""font-size: 40px;"">+</p>","","null","","","","","","","","","","","","","","","","","","","","","","","","","","","","","","","","","","","","","","","","","",""
"html-keyboard-response","228","1074018","0.0-6.0-1.0-1.0","2","1","gaubs1usjzox655","","null","","","","null","","","SL-TRAIN","","","","","","","","","","","","","","0","832.3999999985099","1700.800000000745","sounds/B/TRAIN/SEQ__05.mp3","6","","","","","","","","","","","","","","","","","","","","",""
"html-button-response","229","1080389","0.0-6.0-1.0-2.0","2","1","gaubs1usjzox655","","6369.10000000149","","<p>You may take a short break if you wish.</p>","0","","","","","","","","","","","","","","","","","","","","","","","","","","","","","","","","","","","","","","","","","","",""
"html-keyboard-response","230","1081391","0.0-6.0-1.0-3.0","2","1","gaubs1usjzox655","","null","","<p style=""font-size: 40px;"">+</p>","","null","","","","","","","","","","","","","","","","","","","","","","","","","","","","","","","","","","","","","","","","","",""
"html-keyboard-response","231","1266395","0.0-6.0-1.0-4.0","2","1","gaubs1usjzox655","","null","","","","null","","","SL-TRAIN","","","","","","","","","","","","","","1","1945","null","sounds/B/TRAIN/SEQ__02.mp3","6","","","","","","","","","","","","","","","","","","","","",""
"html-button-response","232","1281227","0.0-6.0-1.0-5.0","2","1","gaubs1usjzox655","","14831.10000000149","","<p>You may take a short break if you wish.</p>","0","","","","","","","","","","","","","","","","","","","","","","","","","","","","","","","","","","","","","","","","","","",""
"html-keyboard-response","233","1282229","0.0-6.0-1.0-6.0","2","1","gaubs1usjzox655","","null","","<p style=""font-size: 40px;"">+</p>","","null","","","","","","","","","","","","","","","","","","","","","","","","","","","","","","","","","","","","","","","","","",""
"html-keyboard-response","234","1467232","0.0-6.0-1.0-7.0","2","1","gaubs1usjzox655","","null","","","","null","","","SL-TRAIN","","","","","","","","","","","","","","0","1849.199999999255","1771.9000000022352","sounds/B/TRAIN/SEQ__11.mp3","6","","","","","","","","","","","","","","","","","","","","",""
"html-button-response","235","1476036","0.0-6.0-1.0-8.0","2","1","gaubs1usjzox655","","8802.89999999851","","<p>You may take a short break if you wish.</p>","0","","","","","","","","","","","","","","","","","","","","","","","","","","","","","","","","","","","","","","","","","","",""
"html-keyboard-response","236","1477041","0.0-6.0-1.0-9.0","2","1","gaubs1usjzox655","","null","","<p style=""font-size: 40px;"">+</p>","","null","","","","","","","","","","","","","","","","","","","","","","","","","","","","","","","","","","","","","","","","","",""
"html-keyboard-response","237","1662044","0.0-6.0-1.0-10.0","2","1","gaubs1usjzox655","","null","","","","null","","","SL-TRAIN","","","","","","","","","","","","","","1","1330","null","sounds/B/TRAIN/SEQ__12.mp3","8","","","","","","","","","","","","","","","","","","","","",""
"html-button-response","238","1671834","0.0-6.0-1.0-11.0","2","1","gaubs1usjzox655","","9789.300000000745","","<p>You may take a short break if you wish.</p>","0","","","","","","","","","","","","","","","","","","","","","","","","","","","","","","","","","","","","","","","","","","",""
"html-button-response","239","1679315","0.0-7.0-0.0","2","1","gaubs1usjzox655","","7480.400000002235","","<p>Welcome to the second part of the study. This is a <u>familiarity task</u>.</p><p>You will now hear short sounds and will be asked to rate how familiar they sound to you <b>based on what you heard in the previous part of the study</b>.</p><p>You will rate 12 sounds in total.</p>","0","","","","","","","","","","","","","","","","","","","","","","","","","","","","","","","","","","","","","","","","","","",""
"html-keyboard-response","240","1680317","0.0-7.0-1.0-0.0","2","1","gaubs1usjzox655","","null","","","","null","","","","","","","","","","","","","","","","","","","","","","","","","","","","","","","","","","","","","","","","","",""
"audio-keyboard-response","241","1681276","0.0-7.0-1.0-1.0","2","1","gaubs1usjzox655","","null","","sounds/B/FAM/P001.mp3","","null","","","","","","","","","","","","","","","","","","","","","","","","","","","","","","","","","","","","","","","","","",""
"html-keyboard-response","242","1687595","0.0-7.0-1.0-2.0","2","1","gaubs1usjzox655","","5810.60000000149","","<p>How familiar did this sound to you?</p><p>1&nbsp;&nbsp;&nbsp;&nbsp;&nbsp;&nbsp;&nbsp;&nbsp;&nbsp;&nbsp;&nbsp;&nbsp;&nbsp;&nbsp;&nbsp;&nbsp;&nbsp;&nbsp;&nbsp;2&nbsp;&nbsp;&nbsp;&nbsp;&nbsp;&nbsp;&nbsp;&nbsp;&nbsp;&nbsp;&nbsp;&nbsp;&nbsp;&nbsp;&nbsp;&nbsp;&nbsp;&nbsp;&nbsp;3&nbsp;&nbsp;&nbsp;&nbsp;&nbsp;&nbsp;&nbsp;&nbsp;&nbsp;&nbsp;&nbsp;&nbsp;&nbsp;&nbsp;&nbsp;&nbsp;&nbsp;&nbsp;&nbsp;4</p><p style=""font-size:14px"">Not at all familiar&nbsp;&nbsp;&nbsp;&nbsp;A little familiar&nbsp;&nbsp;&nbsp;Moderately familiar&nbsp;&nbsp;&nbsp;Extremely familiar</p><p>(press the corresponding number on your keyboard)</p>","","52","","","FAM-RESPONSE","","","","","","","","","","","","","","","","","","","sounds/B/FAM/P001.mp3","partword","","","","","","","","","","","","","","","","","","",""
"html-keyboard-response","243","1689606","0.0-7.0-1.0-0.1","2","1","gaubs1usjzox655","","null","","","","null","","","","","","","","","","","","","","","","","","","","","","","","","","","","","","","","","","","","","","","","","",""
"audio-keyboard-response","244","1690546","0.0-7.0-1.0-1.1","2","1","gaubs1usjzox655","","null","","sounds/B/FAM/N002.mp3","","null","","","","","","","","","","","","","","","","","","","","","","","","","","","","","","","","","","","","","","","","","",""
"html-keyboard-response","245","1692680","0.0-7.0-1.0-2.1","2","1","gaubs1usjzox655","","1622.7000000029802","","<p>How familiar did this sound to you?</p><p>1&nbsp;&nbsp;&nbsp;&nbsp;&nbsp;&nbsp;&nbsp;&nbsp;&nbsp;&nbsp;&nbsp;&nbsp;&nbsp;&nbsp;&nbsp;&nbsp;&nbsp;&nbsp;&nbsp;2&nbsp;&nbsp;&nbsp;&nbsp;&nbsp;&nbsp;&nbsp;&nbsp;&nbsp;&nbsp;&nbsp;&nbsp;&nbsp;&nbsp;&nbsp;&nbsp;&nbsp;&nbsp;&nbsp;3&nbsp;&nbsp;&nbsp;&nbsp;&nbsp;&nbsp;&nbsp;&nbsp;&nbsp;&nbsp;&nbsp;&nbsp;&nbsp;&nbsp;&nbsp;&nbsp;&nbsp;&nbsp;&nbsp;4</p><p style=""font-size:14px"">Not at all familiar&nbsp;&nbsp;&nbsp;&nbsp;A little familiar&nbsp;&nbsp;&nbsp;Moderately familiar&nbsp;&nbsp;&nbsp;Extremely familiar</p><p>(press the corresponding number on your keyboard)</p>","","51","","","FAM-RESPONSE","","","","","","","","","","","","","","","","","","","sounds/B/FAM/N002.mp3","nonword","","","","","","","","","","","","","","","","","","",""
"html-keyboard-response","246","1694694","0.0-7.0-1.0-0.2","2","1","gaubs1usjzox655","","null","","","","null","","","","","","","","","","","","","","","","","","","","","","","","","","","","","","","","","","","","","","","","","",""
"audio-keyboard-response","247","1695636","0.0-7.0-1.0-1.2","2","1","gaubs1usjzox655","","null","","sounds/B/FAM/W001.mp3","","null","","","","","","","","","","","","","","","","","","","","","","","","","","","","","","","","","","","","","","","","","",""
"html-keyboard-response","248","1699340","0.0-7.0-1.0-2.2","2","1","gaubs1usjzox655","","3196.2000000029802","","<p>How familiar did this sound to you?</p><p>1&nbsp;&nbsp;&nbsp;&nbsp;&nbsp;&nbsp;&nbsp;&nbsp;&nbsp;&nbsp;&nbsp;&nbsp;&nbsp;&nbsp;&nbsp;&nbsp;&nbsp;&nbsp;&nbsp;2&nbsp;&nbsp;&nbsp;&nbsp;&nbsp;&nbsp;&nbsp;&nbsp;&nbsp;&nbsp;&nbsp;&nbsp;&nbsp;&nbsp;&nbsp;&nbsp;&nbsp;&nbsp;&nbsp;3&nbsp;&nbsp;&nbsp;&nbsp;&nbsp;&nbsp;&nbsp;&nbsp;&nbsp;&nbsp;&nbsp;&nbsp;&nbsp;&nbsp;&nbsp;&nbsp;&nbsp;&nbsp;&nbsp;4</p><p style=""font-size:14px"">Not at all familiar&nbsp;&nbsp;&nbsp;&nbsp;A little familiar&nbsp;&nbsp;&nbsp;Moderately familiar&nbsp;&nbsp;&nbsp;Extremely familiar</p><p>(press the corresponding number on your keyboard)</p>","","50","","","FAM-RESPONSE","","","","","","","","","","","","","","","","","","","sounds/B/FAM/W001.mp3","word","","","","","","","","","","","","","","","","","","",""
"html-keyboard-response","249","1700367","0.0-7.0-1.0-0.3","2","1","gaubs1usjzox655","","22.400000002235174","","","","175","","","","","","","","","","","","","","","","","","","","","","","","","","","","","","","","","","","","","","","","","",""
"audio-keyboard-response","250","1700451","0.0-7.0-1.0-1.3","2","1","gaubs1usjzox655","","81","","sounds/B/FAM/W002.mp3","","175","","","","","","","","","","","","","","","","","","","","","","","","","","","","","","","","","","","","","","","","","",""
"html-keyboard-response","251","1702418","0.0-7.0-1.0-2.3","2","1","gaubs1usjzox655","","1457.199999999255","","<p>How familiar did this sound to you?</p><p>1&nbsp;&nbsp;&nbsp;&nbsp;&nbsp;&nbsp;&nbsp;&nbsp;&nbsp;&nbsp;&nbsp;&nbsp;&nbsp;&nbsp;&nbsp;&nbsp;&nbsp;&nbsp;&nbsp;2&nbsp;&nbsp;&nbsp;&nbsp;&nbsp;&nbsp;&nbsp;&nbsp;&nbsp;&nbsp;&nbsp;&nbsp;&nbsp;&nbsp;&nbsp;&nbsp;&nbsp;&nbsp;&nbsp;3&nbsp;&nbsp;&nbsp;&nbsp;&nbsp;&nbsp;&nbsp;&nbsp;&nbsp;&nbsp;&nbsp;&nbsp;&nbsp;&nbsp;&nbsp;&nbsp;&nbsp;&nbsp;&nbsp;4</p><p style=""font-size:14px"">Not at all familiar&nbsp;&nbsp;&nbsp;&nbsp;A little familiar&nbsp;&nbsp;&nbsp;Moderately familiar&nbsp;&nbsp;&nbsp;Extremely familiar</p><p>(press the corresponding number on your keyboard)</p>","","49","","","FAM-RESPONSE","","","","","","","","","","","","","","","","","","","sounds/B/FAM/W002.mp3","word","","","","","","","","","","","","","","","","","","",""
"html-keyboard-response","252","1704430","0.0-7.0-1.0-0.4","2","1","gaubs1usjzox655","","null","","","","null","","","","","","","","","","","","","","","","","","","","","","","","","","","","","","","","","","","","","","","","","",""
"audio-keyboard-response","253","1705366","0.0-7.0-1.0-1.4","2","1","gaubs1usjzox655","","null","","sounds/B/FAM/W003.mp3","","null","","","","","","","","","","","","","","","","","","","","","","","","","","","","","","","","","","","","","","","","","",""
"html-keyboard-response","254","1707614","0.0-7.0-1.0-2.4","2","1","gaubs1usjzox655","","1745.199999999255","","<p>How familiar did this sound to you?</p><p>1&nbsp;&nbsp;&nbsp;&nbsp;&nbsp;&nbsp;&nbsp;&nbsp;&nbsp;&nbsp;&nbsp;&nbsp;&nbsp;&nbsp;&nbsp;&nbsp;&nbsp;&nbsp;&nbsp;2&nbsp;&nbsp;&nbsp;&nbsp;&nbsp;&nbsp;&nbsp;&nbsp;&nbsp;&nbsp;&nbsp;&nbsp;&nbsp;&nbsp;&nbsp;&nbsp;&nbsp;&nbsp;&nbsp;3&nbsp;&nbsp;&nbsp;&nbsp;&nbsp;&nbsp;&nbsp;&nbsp;&nbsp;&nbsp;&nbsp;&nbsp;&nbsp;&nbsp;&nbsp;&nbsp;&nbsp;&nbsp;&nbsp;4</p><p style=""font-size:14px"">Not at all familiar&nbsp;&nbsp;&nbsp;&nbsp;A little familiar&nbsp;&nbsp;&nbsp;Moderately familiar&nbsp;&nbsp;&nbsp;Extremely familiar</p><p>(press the corresponding number on your keyboard)</p>","","51","","","FAM-RESPONSE","","","","","","","","","","","","","","","","","","","sounds/B/FAM/W003.mp3","word","","","","","","","","","","","","","","","","","","",""
"html-keyboard-response","255","1709469","0.0-7.0-1.0-0.5","2","1","gaubs1usjzox655","","845.4000000022352","","","","175","","","","","","","","","","","","","","","","","","","","","","","","","","","","","","","","","","","","","","","","","",""
"audio-keyboard-response","256","1709546","0.0-7.0-1.0-1.5","2","1","gaubs1usjzox655","","81","","sounds/B/FAM/N003.mp3","","175","","","","","","","","","","","","","","","","","","","","","","","","","","","","","","","","","","","","","","","","","",""
"html-keyboard-response","257","1711747","0.0-7.0-1.0-2.5","2","1","gaubs1usjzox655","","1692.5999999977648","","<p>How familiar did this sound to you?</p><p>1&nbsp;&nbsp;&nbsp;&nbsp;&nbsp;&nbsp;&nbsp;&nbsp;&nbsp;&nbsp;&nbsp;&nbsp;&nbsp;&nbsp;&nbsp;&nbsp;&nbsp;&nbsp;&nbsp;2&nbsp;&nbsp;&nbsp;&nbsp;&nbsp;&nbsp;&nbsp;&nbsp;&nbsp;&nbsp;&nbsp;&nbsp;&nbsp;&nbsp;&nbsp;&nbsp;&nbsp;&nbsp;&nbsp;3&nbsp;&nbsp;&nbsp;&nbsp;&nbsp;&nbsp;&nbsp;&nbsp;&nbsp;&nbsp;&nbsp;&nbsp;&nbsp;&nbsp;&nbsp;&nbsp;&nbsp;&nbsp;&nbsp;4</p><p style=""font-size:14px"">Not at all familiar&nbsp;&nbsp;&nbsp;&nbsp;A little familiar&nbsp;&nbsp;&nbsp;Moderately familiar&nbsp;&nbsp;&nbsp;Extremely familiar</p><p>(press the corresponding number on your keyboard)</p>","","52","","","FAM-RESPONSE","","","","","","","","","","","","","","","","","","","sounds/B/FAM/N003.mp3","nonword","","","","","","","","","","","","","","","","","","",""
"html-keyboard-response","258","1713772","0.0-7.0-1.0-0.6","2","1","gaubs1usjzox655","","null","","","","null","","","","","","","","","","","","","","","","","","","","","","","","","","","","","","","","","","","","","","","","","",""
"audio-keyboard-response","259","1714707","0.0-7.0-1.0-1.6","2","1","gaubs1usjzox655","","null","","sounds/B/FAM/N004.mp3","","null","","","","","","","","","","","","","","","","","","","","","","","","","","","","","","","","","","","","","","","","","",""
"html-keyboard-response","260","1715953","0.0-7.0-1.0-2.6","2","1","gaubs1usjzox655","","739.8000000007451","","<p>How familiar did this sound to you?</p><p>1&nbsp;&nbsp;&nbsp;&nbsp;&nbsp;&nbsp;&nbsp;&nbsp;&nbsp;&nbsp;&nbsp;&nbsp;&nbsp;&nbsp;&nbsp;&nbsp;&nbsp;&nbsp;&nbsp;2&nbsp;&nbsp;&nbsp;&nbsp;&nbsp;&nbsp;&nbsp;&nbsp;&nbsp;&nbsp;&nbsp;&nbsp;&nbsp;&nbsp;&nbsp;&nbsp;&nbsp;&nbsp;&nbsp;3&nbsp;&nbsp;&nbsp;&nbsp;&nbsp;&nbsp;&nbsp;&nbsp;&nbsp;&nbsp;&nbsp;&nbsp;&nbsp;&nbsp;&nbsp;&nbsp;&nbsp;&nbsp;&nbsp;4</p><p style=""font-size:14px"">Not at all familiar&nbsp;&nbsp;&nbsp;&nbsp;A little familiar&nbsp;&nbsp;&nbsp;Moderately familiar&nbsp;&nbsp;&nbsp;Extremely familiar</p><p>(press the corresponding number on your keyboard)</p>","","49","","","FAM-RESPONSE","","","","","","","","","","","","","","","","","","","sounds/B/FAM/N004.mp3","nonword","","","","","","","","","","","","","","","","","","",""
"html-keyboard-response","261","1717971","0.0-7.0-1.0-0.7","2","1","gaubs1usjzox655","","null","","","","null","","","","","","","","","","","","","","","","","","","","","","","","","","","","","","","","","","","","","","","","","",""
"audio-keyboard-response","262","1718906","0.0-7.0-1.0-1.7","2","1","gaubs1usjzox655","","null","","sounds/B/FAM/P003.mp3","","null","","","","","","","","","","","","","","","","","","","","","","","","","","","","","","","","","","","","","","","","","",""
"html-keyboard-response","263","1720650","0.0-7.0-1.0-2.7","2","1","gaubs1usjzox655","","1232.300000000745","","<p>How familiar did this sound to you?</p><p>1&nbsp;&nbsp;&nbsp;&nbsp;&nbsp;&nbsp;&nbsp;&nbsp;&nbsp;&nbsp;&nbsp;&nbsp;&nbsp;&nbsp;&nbsp;&nbsp;&nbsp;&nbsp;&nbsp;2&nbsp;&nbsp;&nbsp;&nbsp;&nbsp;&nbsp;&nbsp;&nbsp;&nbsp;&nbsp;&nbsp;&nbsp;&nbsp;&nbsp;&nbsp;&nbsp;&nbsp;&nbsp;&nbsp;3&nbsp;&nbsp;&nbsp;&nbsp;&nbsp;&nbsp;&nbsp;&nbsp;&nbsp;&nbsp;&nbsp;&nbsp;&nbsp;&nbsp;&nbsp;&nbsp;&nbsp;&nbsp;&nbsp;4</p><p style=""font-size:14px"">Not at all familiar&nbsp;&nbsp;&nbsp;&nbsp;A little familiar&nbsp;&nbsp;&nbsp;Moderately familiar&nbsp;&nbsp;&nbsp;Extremely familiar</p><p>(press the corresponding number on your keyboard)</p>","","51","","","FAM-RESPONSE","","","","","","","","","","","","","","","","","","","sounds/B/FAM/P003.mp3","partword","","","","","","","","","","","","","","","","","","",""
"html-keyboard-response","264","1722673","0.0-7.0-1.0-0.8","2","1","gaubs1usjzox655","","null","","","","null","","","","","","","","","","","","","","","","","","","","","","","","","","","","","","","","","","","","","","","","","",""
"audio-keyboard-response","265","1723607","0.0-7.0-1.0-1.8","2","1","gaubs1usjzox655","","null","","sounds/B/FAM/P002.mp3","","null","","","","","","","","","","","","","","","","","","","","","","","","","","","","","","","","","","","","","","","","","",""
"html-keyboard-response","266","1725088","0.0-7.0-1.0-2.8","2","1","gaubs1usjzox655","","970.7999999970198","","<p>How familiar did this sound to you?</p><p>1&nbsp;&nbsp;&nbsp;&nbsp;&nbsp;&nbsp;&nbsp;&nbsp;&nbsp;&nbsp;&nbsp;&nbsp;&nbsp;&nbsp;&nbsp;&nbsp;&nbsp;&nbsp;&nbsp;2&nbsp;&nbsp;&nbsp;&nbsp;&nbsp;&nbsp;&nbsp;&nbsp;&nbsp;&nbsp;&nbsp;&nbsp;&nbsp;&nbsp;&nbsp;&nbsp;&nbsp;&nbsp;&nbsp;3&nbsp;&nbsp;&nbsp;&nbsp;&nbsp;&nbsp;&nbsp;&nbsp;&nbsp;&nbsp;&nbsp;&nbsp;&nbsp;&nbsp;&nbsp;&nbsp;&nbsp;&nbsp;&nbsp;4</p><p style=""font-size:14px"">Not at all familiar&nbsp;&nbsp;&nbsp;&nbsp;A little familiar&nbsp;&nbsp;&nbsp;Moderately familiar&nbsp;&nbsp;&nbsp;Extremely familiar</p><p>(press the corresponding number on your keyboard)</p>","","49","","","FAM-RESPONSE","","","","","","","","","","","","","","","","","","","sounds/B/FAM/P002.mp3","partword","","","","","","","","","","","","","","","","","","",""
"html-keyboard-response","267","1727099","0.0-7.0-1.0-0.9","2","1","gaubs1usjzox655","","null","","","","null","","","","","","","","","","","","","","","","","","","","","","","","","","","","","","","","","","","","","","","","","",""
"audio-keyboard-response","268","1728046","0.0-7.0-1.0-1.9","2","1","gaubs1usjzox655","","null","","sounds/B/FAM/P004.mp3","","null","","","","","","","","","","","","","","","","","","","","","","","","","","","","","","","","","","","","","","","","","",""
"html-keyboard-response","269","1731315","0.0-7.0-1.0-2.9","2","1","gaubs1usjzox655","","2761.89999999851","","<p>How familiar did this sound to you?</p><p>1&nbsp;&nbsp;&nbsp;&nbsp;&nbsp;&nbsp;&nbsp;&nbsp;&nbsp;&nbsp;&nbsp;&nbsp;&nbsp;&nbsp;&nbsp;&nbsp;&nbsp;&nbsp;&nbsp;2&nbsp;&nbsp;&nbsp;&nbsp;&nbsp;&nbsp;&nbsp;&nbsp;&nbsp;&nbsp;&nbsp;&nbsp;&nbsp;&nbsp;&nbsp;&nbsp;&nbsp;&nbsp;&nbsp;3&nbsp;&nbsp;&nbsp;&nbsp;&nbsp;&nbsp;&nbsp;&nbsp;&nbsp;&nbsp;&nbsp;&nbsp;&nbsp;&nbsp;&nbsp;&nbsp;&nbsp;&nbsp;&nbsp;4</p><p style=""font-size:14px"">Not at all familiar&nbsp;&nbsp;&nbsp;&nbsp;A little familiar&nbsp;&nbsp;&nbsp;Moderately familiar&nbsp;&nbsp;&nbsp;Extremely familiar</p><p>(press the corresponding number on your keyboard)</p>","","50","","","FAM-RESPONSE","","","","","","","","","","","","","","","","","","","sounds/B/FAM/P004.mp3","partword","","","","","","","","","","","","","","","","","","",""
"html-keyboard-response","270","1733331","0.0-7.0-1.0-0.10","2","1","gaubs1usjzox655","","null","","","","null","","","","","","","","","","","","","","","","","","","","","","","","","","","","","","","","","","","","","","","","","",""
"audio-keyboard-response","271","1734266","0.0-7.0-1.0-1.10","2","1","gaubs1usjzox655","","null","","sounds/B/FAM/W004.mp3","","null","","","","","","","","","","","","","","","","","","","","","","","","","","","","","","","","","","","","","","","","","",""
"html-keyboard-response","272","1736122","0.0-7.0-1.0-2.10","2","1","gaubs1usjzox655","","1343.2999999970198","","<p>How familiar did this sound to you?</p><p>1&nbsp;&nbsp;&nbsp;&nbsp;&nbsp;&nbsp;&nbsp;&nbsp;&nbsp;&nbsp;&nbsp;&nbsp;&nbsp;&nbsp;&nbsp;&nbsp;&nbsp;&nbsp;&nbsp;2&nbsp;&nbsp;&nbsp;&nbsp;&nbsp;&nbsp;&nbsp;&nbsp;&nbsp;&nbsp;&nbsp;&nbsp;&nbsp;&nbsp;&nbsp;&nbsp;&nbsp;&nbsp;&nbsp;3&nbsp;&nbsp;&nbsp;&nbsp;&nbsp;&nbsp;&nbsp;&nbsp;&nbsp;&nbsp;&nbsp;&nbsp;&nbsp;&nbsp;&nbsp;&nbsp;&nbsp;&nbsp;&nbsp;4</p><p style=""font-size:14px"">Not at all familiar&nbsp;&nbsp;&nbsp;&nbsp;A little familiar&nbsp;&nbsp;&nbsp;Moderately familiar&nbsp;&nbsp;&nbsp;Extremely familiar</p><p>(press the corresponding number on your keyboard)</p>","","50","","","FAM-RESPONSE","","","","","","","","","","","","","","","","","","","sounds/B/FAM/W004.mp3","word","","","","","","","","","","","","","","","","","","",""
"html-keyboard-response","273","1738136","0.0-7.0-1.0-0.11","2","1","gaubs1usjzox655","","null","","","","null","","","","","","","","","","","","","","","","","","","","","","","","","","","","","","","","","","","","","","","","","",""
"audio-keyboard-response","274","1739077","0.0-7.0-1.0-1.11","2","1","gaubs1usjzox655","","null","","sounds/B/FAM/N001.mp3","","null","","","","","","","","","","","","","","","","","","","","","","","","","","","","","","","","","","","","","","","","","",""
"html-keyboard-response","275","1741176","0.0-7.0-1.0-2.11","2","1","gaubs1usjzox655","","1586.5","","<p>How familiar did this sound to you?</p><p>1&nbsp;&nbsp;&nbsp;&nbsp;&nbsp;&nbsp;&nbsp;&nbsp;&nbsp;&nbsp;&nbsp;&nbsp;&nbsp;&nbsp;&nbsp;&nbsp;&nbsp;&nbsp;&nbsp;2&nbsp;&nbsp;&nbsp;&nbsp;&nbsp;&nbsp;&nbsp;&nbsp;&nbsp;&nbsp;&nbsp;&nbsp;&nbsp;&nbsp;&nbsp;&nbsp;&nbsp;&nbsp;&nbsp;3&nbsp;&nbsp;&nbsp;&nbsp;&nbsp;&nbsp;&nbsp;&nbsp;&nbsp;&nbsp;&nbsp;&nbsp;&nbsp;&nbsp;&nbsp;&nbsp;&nbsp;&nbsp;&nbsp;4</p><p style=""font-size:14px"">Not at all familiar&nbsp;&nbsp;&nbsp;&nbsp;A little familiar&nbsp;&nbsp;&nbsp;Moderately familiar&nbsp;&nbsp;&nbsp;Extremely familiar</p><p>(press the corresponding number on your keyboard)</p>","","50","","","FAM-RESPONSE","","","","","","","","","","","","","","","","","","","sounds/B/FAM/N001.mp3","nonword","","","","","","","","","","","","","","","","","","",""
"html-button-response","276","1751966","0.0-8.0-0.0","2","1","gaubs1usjzox655","","9774.699999999255","","<p>You will now listen to longer sound sequences.</p><p>Each sound sequence will last about 16 seconds.</p><p>On each trial, you will be given a <u>TARGET SOUND</u>. Your task is to listen very carefully for this sound.</p><p>Every time you hear the <u>TARGET SOUND</u>, you will press the <b>SPACEBAR</b> as quickly and accurately as you can.</p>","0","","","","","","","","","","","","","","","","","","","","","","","","","","","","","","","","","","","","","","","","","","",""
"html-button-response","277","1765385","0.0-8.0-1.0","2","1","gaubs1usjzox655","","13160","","<p>It is very important that you make your responses as quickly and accurately as possible.</p><p>To help you make your responses, you will be able to listen to the <u>TARGET SOUND</u> at the beginning of each trial.</p><p>There will be 36 total trials.</p><p><b>Note: This is meant to be a difficult task. We simply want you to try your best.</p>","0","","","","","","","","","","","","","","","","","","","","","","","","","","","","","","","","","","","","","","","","","","",""
"html-button-response","278","1767477","0.0-8.0-2.0-0.0","2","1","gaubs1usjzox655","","1838.199999999255","","<p>Trial 1 of 36</p>","0","","","","","","","","","","","","","","","","","","","","","","","","","NI","sounds/syllables/ni_SWS.wav","3000,6600,10200,12000","2","","","","","","","","","","","","","","",""
"html-keyboard-response","279","1771883","0.0-8.0-2.0-1.0","2","1","gaubs1usjzox655","","4404.800000000745","","","","80","","","","","","","","","","","","","","","","","","","","","","","","NI","","3000,6600,10200,12000","2","","","","","","","","","","","","","","",""
"audio-keyboard-response","280","1772188","0.0-8.0-2.0-2.0-0.0","2","1","gaubs1usjzox655","","null","","sounds/syllables/ni_SWS.wav","","null","","","","","","","","","","","","","","","","","","","","","","","","","","","","","","","","","","","","","","","","","",""
"html-keyboard-response","281","1774415","0.0-8.0-2.0-2.0-1.0","2","1","gaubs1usjzox655","","2226.2000000029802","","<p>To replay the <u>TARGET SOUND</u>, press P.</p> When you are ready to begin, press SPACEBAR.","","80","","","","","","","","","","","","","","","","","","","","","","","","","","","","","","","","","","","","","","","","","",""
"audio-keyboard-response","282","1775219","0.0-8.0-2.0-2.1-0.1","2","1","gaubs1usjzox655","","null","","sounds/syllables/ni_SWS.wav","","null","","","","","","","","","","","","","","","","","","","","","","","","","","","","","","","","","","","","","","","","","",""
"html-keyboard-response","283","1777168","0.0-8.0-2.0-2.1-1.1","2","1","gaubs1usjzox655","","1949.1000000014901","","<p>To replay the <u>TARGET SOUND</u>, press P.</p> When you are ready to begin, press SPACEBAR.","","80","","","","","","","","","","","","","","","","","","","","","","","","","","","","","","","","","","","","","","","","","",""
"audio-keyboard-response","284","1777978","0.0-8.0-2.0-2.2-0.2","2","1","gaubs1usjzox655","","null","","sounds/syllables/ni_SWS.wav","","null","","","","","","","","","","","","","","","","","","","","","","","","","","","","","","","","","","","","","","","","","",""
"html-keyboard-response","285","1778443","0.0-8.0-2.0-2.2-1.2","2","1","gaubs1usjzox655","","464.80000000074506","","<p>To replay the <u>TARGET SOUND</u>, press P.</p> When you are ready to begin, press SPACEBAR.","","32","","","","","","","","","","","","","","","","","","","","","","","","","","","","","","","","","","","","","","","","","",""
"audio-keyboard-response","286","1793398","0.0-8.0-2.0-3.0","2","1","gaubs1usjzox655","","8281","","sounds/B/TD/NI_05_TD.mp3","","32","","","TD_SUMMARY","","","","","","","","","","","","","","","","","","","","","NI","","3000,6600,10200,12000","2","3000","6600","10200","12000","null","null","830.1000000014901","426.6000000014901","8272.300000000745_9965_11030.10000000149_11684_12426.60000000149","3","","","","",""
"html-button-response","287","1795329","0.0-8.0-2.0-0.1","2","1","gaubs1usjzox655","","1928.1000000014901","","<p>Trial 2 of 36</p>","0","","","","","","","","","","","","","","","","","","","","","","","","","TA","sounds/syllables/ta_SWS.wav","2400,7800,9600,11400","3","","","","","","","","","","","","","","",""
"html-keyboard-response","288","1796976","0.0-8.0-2.0-1.1","2","1","gaubs1usjzox655","","1646.0999999977648","","","","80","","","","","","","","","","","","","","","","","","","","","","","","TA","","2400,7800,9600,11400","3","","","","","","","","","","","","","","",""
"audio-keyboard-response","289","1797268","0.0-8.0-2.0-2.3-0.3","2","1","gaubs1usjzox655","","null","","sounds/syllables/ta_SWS.wav","","null","","","","","","","","","","","","","","","","","","","","","","","","","","","","","","","","","","","","","","","","","",""
"html-keyboard-response","290","1798823","0.0-8.0-2.0-2.3-1.3","2","1","gaubs1usjzox655","","1554.199999999255","","<p>To replay the <u>TARGET SOUND</u>, press P.</p> When you are ready to begin, press SPACEBAR.","","32","","","","","","","","","","","","","","","","","","","","","","","","","","","","","","","","","","","","","","","","","",""
"audio-keyboard-response","291","1813767","0.0-8.0-2.0-3.1","2","1","gaubs1usjzox655","","610","","sounds/B/TD/TA_01_TD.mp3","","32","","","TD_SUMMARY","","","","","","","","","","","","","","","","","","","","","TA","","2400,7800,9600,11400","3","2400","7800","9600","11400","741.3000000007451","null","null","420.9000000022352","_____605.4000000022352_3141.300000000745_11820.900000002235","1","","","","",""
"html-button-response","292","1815329","0.0-8.0-2.0-0.2","2","1","gaubs1usjzox655","","1560.199999999255","","<p>Trial 3 of 36</p>","0","","","","","","","","","","","","","","","","","","","","","","","","","TA","sounds/syllables/ta_SWS.wav","1500,3300,9600,11400","3","","","","","","","","","","","","","","",""
"html-keyboard-response","293","1816754","0.0-8.0-2.0-1.2","2","1","gaubs1usjzox655","","1424.300000000745","","","","80","","","","","","","","","","","","","","","","","","","","","","","","TA","","1500,3300,9600,11400","3","","","","","","","","","","","","","","",""
"audio-keyboard-response","294","1817047","0.0-8.0-2.0-2.4-0.4","2","1","gaubs1usjzox655","","null","","sounds/syllables/ta_SWS.wav","","null","","","","","","","","","","","","","","","","","","","","","","","","","","","","","","","","","","","","","","","","","",""
"html-keyboard-response","295","1817745","0.0-8.0-2.0-2.4-1.4","2","1","gaubs1usjzox655","","697","","<p>To replay the <u>TARGET SOUND</u>, press P.</p> When you are ready to begin, press SPACEBAR.","","80","","","","","","","","","","","","","","","","","","","","","","","","","","","","","","","","","","","","","","","","","",""
"audio-keyboard-response","296","1818557","0.0-8.0-2.0-2.5-0.5","2","1","gaubs1usjzox655","","null","","sounds/syllables/ta_SWS.wav","","null","","","","","","","","","","","","","","","","","","","","","","","","","","","","","","","","","","","","","","","","","",""
"html-keyboard-response","297","1819073","0.0-8.0-2.0-2.5-1.5","2","1","gaubs1usjzox655","","514.8999999985099","","<p>To replay the <u>TARGET SOUND</u>, press P.</p> When you are ready to begin, press SPACEBAR.","","80","","","","","","","","","","","","","","","","","","","","","","","","","","","","","","","","","","","","","","","","","",""
"audio-keyboard-response","298","1819897","0.0-8.0-2.0-2.6-0.6","2","1","gaubs1usjzox655","","null","","sounds/syllables/ta_SWS.wav","","null","","","","","","","","","","","","","","","","","","","","","","","","","","","","","","","","","","","","","","","","","",""
"html-keyboard-response","299","1820625","0.0-8.0-2.0-2.6-1.6","2","1","gaubs1usjzox655","","727","","<p>To replay the <u>TARGET SOUND</u>, press P.</p> When you are ready to begin, press SPACEBAR.","","32","","","","","","","","","","","","","","","","","","","","","","","","","","","","","","","","","","","","","","","","","",""
"audio-keyboard-response","300","1835587","0.0-8.0-2.0-3.2","2","1","gaubs1usjzox655","","3799","","sounds/B/TD/TA_02_TD.mp3","","32","","","TD_SUMMARY","","","","","","","","","","","","","","","","","","","","","TA","","1500,3300,9600,11400","3","1500","3300","9600","11400","null","506.29999999701977","694.2999999970198","415.69999999925494","________3806.2999999970198_10294.29999999702_11815.699999999255","3","","","","",""
"html-button-response","301","1837101","0.0-8.0-2.0-0.3","2","1","gaubs1usjzox655","","1511.300000000745","","<p>Trial 4 of 36</p>","0","","","","","","","","","","","","","","","","","","","","","","","","","ME","sounds/syllables/me_SWS.wav","2100,4800,6600,9300","2","","","","","","","","","","","","","","",""
"html-keyboard-response","302","1838220","0.0-8.0-2.0-1.3","2","1","gaubs1usjzox655","","1118.4000000022352","","","","80","","","","","","","","","","","","","","","","","","","","","","","","ME","","2100,4800,6600,9300","2","","","","","","","","","","","","","","",""
"audio-keyboard-response","303","1838518","0.0-8.0-2.0-2.7-0.7","2","1","gaubs1usjzox655","","null","","sounds/syllables/me_SWS.wav","","null","","","","","","","","","","","","","","","","","","","","","","","","","","","","","","","","","","","","","","","","","",""
"html-keyboard-response","304","1839346","0.0-8.0-2.0-2.7-1.7","2","1","gaubs1usjzox655","","827","","<p>To replay the <u>TARGET SOUND</u>, press P.</p> When you are ready to begin, press SPACEBAR.","","32","","","","","","","","","","","","","","","","","","","","","","","","","","","","","","","","","","","","","","","","","",""
"audio-keyboard-response","305","1854298","0.0-8.0-2.0-3.3","2","1","gaubs1usjzox655","","7921","","sounds/B/TD/ME_03_TD.mp3","","32","","","TD_SUMMARY","","","","","","","","","","","","","","","","","","","","","ME","","2100,4800,6600,9300","2","2100","4800","6600","9300","null","null","null","null","___________7923.300000000745_11085.39999999851","1","","","","",""
"html-button-response","306","1898386","0.0-8.0-2.0-0.4","2","1","gaubs1usjzox655","","44085.89999999851","","<p>Trial 5 of 36</p>","0","","","","","","","","","","","","","","","","","","","","","","","","","SU","sounds/syllables/su_SWS.wav","3900,8400,10200,12000","2","","","","","","","","","","","","","","",""
"html-keyboard-response","307","1899881","0.0-8.0-2.0-1.4","2","1","gaubs1usjzox655","","1494.1000000014901","","","","80","","","","","","","","","","","","","","","","","","","","","","","","SU","","3900,8400,10200,12000","2","","","","","","","","","","","","","","",""
"audio-keyboard-response","308","1900198","0.0-8.0-2.0-2.8-0.8","2","1","gaubs1usjzox655","","null","","sounds/syllables/su_SWS.wav","","null","","","","","","","","","","","","","","","","","","","","","","","","","","","","","","","","","","","","","","","","","",""
"html-keyboard-response","309","1901085","0.0-8.0-2.0-2.8-1.8","2","1","gaubs1usjzox655","","885.8000000007451","","<p>To replay the <u>TARGET SOUND</u>, press P.</p> When you are ready to begin, press SPACEBAR.","","80","","","","","","","","","","","","","","","","","","","","","","","","","","","","","","","","","","","","","","","","","",""
"audio-keyboard-response","310","1901889","0.0-8.0-2.0-2.9-0.9","2","1","gaubs1usjzox655","","null","","sounds/syllables/su_SWS.wav","","null","","","","","","","","","","","","","","","","","","","","","","","","","","","","","","","","","","","","","","","","","",""
"html-keyboard-response","311","1918247","0.0-8.0-2.0-2.9-1.9","2","1","gaubs1usjzox655","","16357.70000000298","","<p>To replay the <u>TARGET SOUND</u>, press P.</p> When you are ready to begin, press SPACEBAR.","","80","","","","","","","","","","","","","","","","","","","","","","","","","","","","","","","","","","","","","","","","","",""
"audio-keyboard-response","312","1919062","0.0-8.0-2.0-2.10-0.10","2","1","gaubs1usjzox655","","null","","sounds/syllables/su_SWS.wav","","null","","","","","","","","","","","","","","","","","","","","","","","","","","","","","","","","","","","","","","","","","",""
"html-keyboard-response","313","1919904","0.0-8.0-2.0-2.10-1.10","2","1","gaubs1usjzox655","","842.0999999977648","","<p>To replay the <u>TARGET SOUND</u>, press P.</p> When you are ready to begin, press SPACEBAR.","","32","","","","","","","","","","","","","","","","","","","","","","","","","","","","","","","","","","","","","","","","","",""
"audio-keyboard-response","314","1934860","0.0-8.0-2.0-3.4","2","1","gaubs1usjzox655","","4528","","sounds/B/TD/SU_06_TD.mp3","","32","","","TD_SUMMARY","","","","","","","","","","","","","","","","","","","","","SU","","3900,8400,10200,12000","2","3900","8400","10200","12000","632.6999999992549","544.8999999985099","null","895.1999999992549","_____________4532.699999999255_8944.89999999851_12895.199999999255","3","","","","",""
"html-button-response","315","1938443","0.0-8.0-2.0-0.5","2","1","gaubs1usjzox655","","3581.699999999255","","<p>Trial 6 of 36</p>","0","","","","","","","","","","","","","","","","","","","","","","","","","RU","sounds/syllables/ru_SWS.wav","2400,6000,7800,10500","3","","","","","","","","","","","","","","",""
