"trial_type","trial_index","time_elapsed","internal_node_id","counterbalance","lang_instruct","ParticipantID","view_history","rt","url","stimulus","button_pressed","key_press","correctRESP","correct","designation","location","correctanswer","timeouts","pause_rt01","pause_rt02","train_file","numKeyPress","sound","fam_type","SYLLABLE","EXEMPLAR","TD_LOCS","TD_TYPE","TDLOC_01","TDLOC_02","TDLOC_03","TDLOC_04","TD_RT_01","TD_RT_02","TD_RT_03","TD_RT_04","TD_SUBJ_RTs","number_of_plays","responses","slider_start","response","question_order","syllable","syllable_type"
"pavlovia","0","2","0.0-0.0","1","0","rcm9hmcl85vhjqr","","","","","","","","","","","","","","","","","","","","","","","","","","","","","","","","","","","","","",""
"instructions","1","26997","0.0-1.0","1","0","rcm9hmcl85vhjqr","[{""page_index"":0,""viewing_time"":2938.4000000953674},{""page_index"":1,""viewing_time"":24054.099999904633}]","26996.400000095367","","","","","","","","","","","","","","","","","","","","","","","","","","","","","","","","","","","",""
"external-html","2","32107","0.0-2.0","1","0","rcm9hmcl85vhjqr","","4954.200000047684","consent/consent.html","","","","","","","","","","","","","","","","","","","","","","","","","","","","","","","","","","",""
"html-button-response","3","37795","0.0-3.0-0.0-0.0","1","0","rcm9hmcl85vhjqr","","5685.299999952316","","<p>Welcome to the study. You will first complete a short volume calibration and headphone check.</p><p>Please make sure you are in a quiet listening environment, that you are wearing headphones, and that your computer's volume is turned on.<p></p>","0","","","","","","","","","","","","","","","","","","","","","","","","","","","","","","","","",""
"html-button-response","4","44679","0.0-3.0-0.0-1.0","1","0","rcm9hmcl85vhjqr","","6628.200000047684","","<p>The volume calibration will be first.</p><p>You will hear a thirty-second noise. Please adjust your computer's volume so that this noise is being presented at a comfortable level.<p></p>","0","","","","","","","","","","","","","","","","","","","","","","","","","","","","","","","","",""
"audio-button-response","5","53470","0.0-3.0-0.0-2.0","1","0","rcm9hmcl85vhjqr","","8469","","audCalib/volumetest.mp3","0","","","","","","","","","","","","","","","","","","","","","","","","","","","","","","","","",""
"html-button-response","6","83620","0.0-3.0-1.0-0.0","1","0","rcm9hmcl85vhjqr","","30149.900000095367","","<p>You will now complete a short headphone check.</p><p>On each trial, you will hear three tones. One of these tones will be quieter than the others. Your task is to identify whether the quiet tone occured first, second, or third.</p><p>There are six trials in total.<p></p>","0","","","","","","","","","","","","","","","","","","","","","","","","","","","","","","","","",""
"html-keyboard-response","7","84378","0.0-3.0-1.0-1.0-0.0","1","0","rcm9hmcl85vhjqr","","null","","<div style=""font-size:60px;"">+</div>","","null","","","","","","","","","","","","","","","","","","","","","","","","","","","","","","","",""
"audio-button-response","8","90750","0.0-3.0-1.0-1.0-1.0","1","0","rcm9hmcl85vhjqr","","6325","","audCalib/t3_1.mp3","2","","2","1","headphone-test","","","","","","","","","","","","","","","","","","","","","","","","","","","","",""
"html-keyboard-response","9","91509","0.0-3.0-1.0-1.0-0.1","1","0","rcm9hmcl85vhjqr","","null","","<div style=""font-size:60px;"">+</div>","","null","","","","","","","","","","","","","","","","","","","","","","","","","","","","","","","",""
"audio-button-response","10","102362","0.0-3.0-1.0-1.0-1.1","1","0","rcm9hmcl85vhjqr","","10848","","audCalib/t1_1.mp3","2","","0","0","headphone-test","","","","","","","","","","","","","","","","","","","","","","","","","","","","",""
"html-keyboard-response","11","103120","0.0-3.0-1.0-1.0-0.2","1","0","rcm9hmcl85vhjqr","","null","","<div style=""font-size:60px;"">+</div>","","null","","","","","","","","","","","","","","","","","","","","","","","","","","","","","","","",""
"audio-button-response","12","107924","0.0-3.0-1.0-1.0-1.2","1","0","rcm9hmcl85vhjqr","","4800","","audCalib/t3_2.mp3","2","","2","1","headphone-test","","","","","","","","","","","","","","","","","","","","","","","","","","","","",""
"html-keyboard-response","13","108682","0.0-3.0-1.0-1.0-0.3","1","0","rcm9hmcl85vhjqr","","null","","<div style=""font-size:60px;"">+</div>","","null","","","","","","","","","","","","","","","","","","","","","","","","","","","","","","","",""
"audio-button-response","14","113291","0.0-3.0-1.0-1.0-1.3","1","0","rcm9hmcl85vhjqr","","4603","","audCalib/t2_1.mp3","1","","1","1","headphone-test","","","","","","","","","","","","","","","","","","","","","","","","","","","","",""
"html-keyboard-response","15","114052","0.0-3.0-1.0-1.0-0.4","1","0","rcm9hmcl85vhjqr","","null","","<div style=""font-size:60px;"">+</div>","","null","","","","","","","","","","","","","","","","","","","","","","","","","","","","","","","",""
"audio-button-response","16","121818","0.0-3.0-1.0-1.0-1.4","1","0","rcm9hmcl85vhjqr","","7760","","audCalib/t1_2.mp3","0","","0","1","headphone-test","","","","","","","","","","","","","","","","","","","","","","","","","","","","",""
"html-keyboard-response","17","122578","0.0-3.0-1.0-1.0-0.5","1","0","rcm9hmcl85vhjqr","","null","","<div style=""font-size:60px;"">+</div>","","null","","","","","","","","","","","","","","","","","","","","","","","","","","","","","","","",""
"audio-button-response","18","127108","0.0-3.0-1.0-1.0-1.5","1","0","rcm9hmcl85vhjqr","","4528","","audCalib/t2_2.mp3","1","","1","1","headphone-test","","","","","","","","","","","","","","","","","","","","","","","","","","","","",""
"html-button-response","19","130041","0.0-3.0-2.0","1","0","rcm9hmcl85vhjqr","","2676.0999999046326","","<p>The volume calibration and headphone check are now complete.</p>","0","","","","","","","","","","","","","","","","","","","","","","","","","","","","","","","","",""
"instructions","20","158351","0.0-4.0-0.0","1","0","rcm9hmcl85vhjqr","[{""page_index"":0,""viewing_time"":2617.5},{""page_index"":1,""viewing_time"":20525.900000095367},{""page_index"":2,""viewing_time"":5166}]","28309.900000095367","","","","","","","","","","","","","","","","","","","","","","","","","","","","","","","","","","","",""
"audio-keyboard-response","21","158700","0.0-4.0-1.0-0.0","1","0","rcm9hmcl85vhjqr","","null","","sounds/induction/right_rev/pu_SWS.wav","","null","","","","","","","","","","","","","","","","","","","","","","","","","","","","","","","",""
"html-button-response","22","160526","0.0-4.0-1.0-1.0","1","0","rcm9hmcl85vhjqr","","1824.4000000953674","","Was the sound coming from the left or the right?","0","","","0","INDUCTION-JUDGMENT","right","1","","","","","","","","","","","","","","","","","","","","","","","","","","",""
"html-keyboard-response","23","161529","0.0-4.0-1.0-2.0","1","0","rcm9hmcl85vhjqr","","null","","<p style=""color:#690000;""><b>Incorrect!</b></p>","","null","","","","","","","","","","","","","","","","","","","","","","","","","","","","","","","",""
"audio-keyboard-response","24","162337","0.0-4.0-1.0-0.1","1","0","rcm9hmcl85vhjqr","","null","","sounds/induction/right_rev/su_SWS.wav","","null","","","","","","","","","","","","","","","","","","","","","","","","","","","","","","","",""
"html-button-response","25","167616","0.0-4.0-1.0-1.1","1","0","rcm9hmcl85vhjqr","","5277.800000190735","","Was the sound coming from the left or the right?","0","","","0","INDUCTION-JUDGMENT","right","1","","","","","","","","","","","","","","","","","","","","","","","","","","",""
"html-keyboard-response","26","168618","0.0-4.0-1.0-2.1","1","0","rcm9hmcl85vhjqr","","null","","<p style=""color:#690000;""><b>Incorrect!</b></p>","","null","","","","","","","","","","","","","","","","","","","","","","","","","","","","","","","",""
"audio-keyboard-response","27","169420","0.0-4.0-1.0-0.2","1","0","rcm9hmcl85vhjqr","","null","","sounds/induction/left_rev/ge_SWS.wav","","null","","","","","","","","","","","","","","","","","","","","","","","","","","","","","","","",""
"html-button-response","28","170333","0.0-4.0-1.0-1.2","1","0","rcm9hmcl85vhjqr","","911","","Was the sound coming from the left or the right?","1","","","0","INDUCTION-JUDGMENT","left","0","","","","","","","","","","","","","","","","","","","","","","","","","","",""
"html-keyboard-response","29","171335","0.0-4.0-1.0-2.2","1","0","rcm9hmcl85vhjqr","","null","","<p style=""color:#690000;""><b>Incorrect!</b></p>","","null","","","","","","","","","","","","","","","","","","","","","","","","","","","","","","","",""
"audio-keyboard-response","30","172140","0.0-4.0-1.0-0.3","1","0","rcm9hmcl85vhjqr","","null","","sounds/induction/left_rev/fu_SWS.wav","","null","","","","","","","","","","","","","","","","","","","","","","","","","","","","","","","",""
"html-button-response","31","177321","0.0-4.0-1.0-1.3","1","0","rcm9hmcl85vhjqr","","5179.200000047684","","Was the sound coming from the left or the right?","1","","","0","INDUCTION-JUDGMENT","left","0","","","","","","","","","","","","","","","","","","","","","","","","","","",""
"html-keyboard-response","32","178327","0.0-4.0-1.0-2.3","1","0","rcm9hmcl85vhjqr","","null","","<p style=""color:#690000;""><b>Incorrect!</b></p>","","null","","","","","","","","","","","","","","","","","","","","","","","","","","","","","","","",""
"audio-keyboard-response","33","179132","0.0-4.0-1.0-0.4","1","0","rcm9hmcl85vhjqr","","null","","sounds/induction/left_rev/ni_SWS.wav","","null","","","","","","","","","","","","","","","","","","","","","","","","","","","","","","","",""
"html-button-response","34","181631","0.0-4.0-1.0-1.4","1","0","rcm9hmcl85vhjqr","","2496.5999999046326","","Was the sound coming from the left or the right?","0","","","1","INDUCTION-JUDGMENT","left","0","","","","","","","","","","","","","","","","","","","","","","","","","","",""
"html-keyboard-response","35","182636","0.0-4.0-1.0-2.4","1","0","rcm9hmcl85vhjqr","","null","","<p style=""color:#054d00;""><b>Correct!</b></p>","","null","","","","","","","","","","","","","","","","","","","","","","","","","","","","","","","",""
"audio-keyboard-response","36","183442","0.0-4.0-1.0-0.5","1","0","rcm9hmcl85vhjqr","","null","","sounds/induction/right_rev/ko_SWS.wav","","null","","","","","","","","","","","","","","","","","","","","","","","","","","","","","","","",""
"html-button-response","37","184606","0.0-4.0-1.0-1.5","1","0","rcm9hmcl85vhjqr","","1162.7000000476837","","Was the sound coming from the left or the right?","0","","","0","INDUCTION-JUDGMENT","right","1","","","","","","","","","","","","","","","","","","","","","","","","","","",""
"html-keyboard-response","38","185612","0.0-4.0-1.0-2.5","1","0","rcm9hmcl85vhjqr","","null","","<p style=""color:#690000;""><b>Incorrect!</b></p>","","null","","","","","","","","","","","","","","","","","","","","","","","","","","","","","","","",""
"audio-keyboard-response","39","186418","0.0-4.0-1.0-0.6","1","0","rcm9hmcl85vhjqr","","null","","sounds/induction/left_rev/ti_SWS.wav","","null","","","","","","","","","","","","","","","","","","","","","","","","","","","","","","","",""
"html-button-response","40","187541","0.0-4.0-1.0-1.6","1","0","rcm9hmcl85vhjqr","","1121.7000000476837","","Was the sound coming from the left or the right?","1","","","0","INDUCTION-JUDGMENT","left","0","","","","","","","","","","","","","","","","","","","","","","","","","","",""
"html-keyboard-response","41","188546","0.0-4.0-1.0-2.6","1","0","rcm9hmcl85vhjqr","","null","","<p style=""color:#690000;""><b>Incorrect!</b></p>","","null","","","","","","","","","","","","","","","","","","","","","","","","","","","","","","","",""
"audio-keyboard-response","42","189351","0.0-4.0-1.0-0.7","1","0","rcm9hmcl85vhjqr","","null","","sounds/induction/right_rev/ni_SWS.wav","","null","","","","","","","","","","","","","","","","","","","","","","","","","","","","","","","",""
"html-button-response","43","206163","0.0-4.0-1.0-1.7","1","0","rcm9hmcl85vhjqr","","16812.60000014305","","Was the sound coming from the left or the right?","0","","","0","INDUCTION-JUDGMENT","right","1","","","","","","","","","","","","","","","","","","","","","","","","","","",""
"html-keyboard-response","44","207168","0.0-4.0-1.0-2.7","1","0","rcm9hmcl85vhjqr","","null","","<p style=""color:#690000;""><b>Incorrect!</b></p>","","null","","","","","","","","","","","","","","","","","","","","","","","","","","","","","","","",""
"audio-keyboard-response","45","207975","0.0-4.0-1.0-0.8","1","0","rcm9hmcl85vhjqr","","null","","sounds/induction/right_rev/ko_SWS.wav","","null","","","","","","","","","","","","","","","","","","","","","","","","","","","","","","","",""
"html-button-response","46","208743","0.0-4.0-1.0-1.8","1","0","rcm9hmcl85vhjqr","","766.5","","Was the sound coming from the left or the right?","1","","","1","INDUCTION-JUDGMENT","right","1","","","","","","","","","","","","","","","","","","","","","","","","","","",""
"html-keyboard-response","47","209746","0.0-4.0-1.0-2.8","1","0","rcm9hmcl85vhjqr","","null","","<p style=""color:#054d00;""><b>Correct!</b></p>","","null","","","","","","","","","","","","","","","","","","","","","","","","","","","","","","","",""
"audio-keyboard-response","48","210556","0.0-4.0-1.0-0.9","1","0","rcm9hmcl85vhjqr","","null","","sounds/induction/right_rev/me_SWS.wav","","null","","","","","","","","","","","","","","","","","","","","","","","","","","","","","","","",""
"html-button-response","49","211306","0.0-4.0-1.0-1.9","1","0","rcm9hmcl85vhjqr","","747.7999999523163","","Was the sound coming from the left or the right?","1","","","1","INDUCTION-JUDGMENT","right","1","","","","","","","","","","","","","","","","","","","","","","","","","","",""
"html-keyboard-response","50","212310","0.0-4.0-1.0-2.9","1","0","rcm9hmcl85vhjqr","","null","","<p style=""color:#054d00;""><b>Correct!</b></p>","","null","","","","","","","","","","","","","","","","","","","","","","","","","","","","","","","",""
"audio-keyboard-response","51","213111","0.0-4.0-1.0-0.10","1","0","rcm9hmcl85vhjqr","","null","","sounds/induction/left_rev/ta_SWS.wav","","null","","","","","","","","","","","","","","","","","","","","","","","","","","","","","","","",""
"html-button-response","52","214985","0.0-4.0-1.0-1.10","1","0","rcm9hmcl85vhjqr","","1872","","Was the sound coming from the left or the right?","0","","","1","INDUCTION-JUDGMENT","left","0","","","","","","","","","","","","","","","","","","","","","","","","","","",""
"html-keyboard-response","53","215989","0.0-4.0-1.0-2.10","1","0","rcm9hmcl85vhjqr","","null","","<p style=""color:#054d00;""><b>Correct!</b></p>","","null","","","","","","","","","","","","","","","","","","","","","","","","","","","","","","","",""
"audio-keyboard-response","54","216791","0.0-4.0-1.0-0.11","1","0","rcm9hmcl85vhjqr","","null","","sounds/induction/left_rev/su_SWS.wav","","null","","","","","","","","","","","","","","","","","","","","","","","","","","","","","","","",""
"html-button-response","55","218219","0.0-4.0-1.0-1.11","1","0","rcm9hmcl85vhjqr","","1426.3999998569489","","Was the sound coming from the left or the right?","0","","","1","INDUCTION-JUDGMENT","left","0","","","","","","","","","","","","","","","","","","","","","","","","","","",""
"html-keyboard-response","56","219221","0.0-4.0-1.0-2.11","1","0","rcm9hmcl85vhjqr","","null","","<p style=""color:#054d00;""><b>Correct!</b></p>","","null","","","","","","","","","","","","","","","","","","","","","","","","","","","","","","","",""
"audio-keyboard-response","57","220023","0.0-4.0-1.0-0.12","1","0","rcm9hmcl85vhjqr","","null","","sounds/induction/right_rev/ta_SWS.wav","","null","","","","","","","","","","","","","","","","","","","","","","","","","","","","","","","",""
"html-button-response","58","221032","0.0-4.0-1.0-1.12","1","0","rcm9hmcl85vhjqr","","1008.2000000476837","","Was the sound coming from the left or the right?","1","","","1","INDUCTION-JUDGMENT","right","1","","","","","","","","","","","","","","","","","","","","","","","","","","",""
"html-keyboard-response","59","222034","0.0-4.0-1.0-2.12","1","0","rcm9hmcl85vhjqr","","null","","<p style=""color:#054d00;""><b>Correct!</b></p>","","null","","","","","","","","","","","","","","","","","","","","","","","","","","","","","","","",""
"audio-keyboard-response","60","222839","0.0-4.0-1.0-0.13","1","0","rcm9hmcl85vhjqr","","null","","sounds/induction/left_rev/fu_SWS.wav","","null","","","","","","","","","","","","","","","","","","","","","","","","","","","","","","","",""
"html-button-response","61","224136","0.0-4.0-1.0-1.13","1","0","rcm9hmcl85vhjqr","","1296","","Was the sound coming from the left or the right?","0","","","1","INDUCTION-JUDGMENT","left","0","","","","","","","","","","","","","","","","","","","","","","","","","","",""
"html-keyboard-response","62","225141","0.0-4.0-1.0-2.13","1","0","rcm9hmcl85vhjqr","","null","","<p style=""color:#054d00;""><b>Correct!</b></p>","","null","","","","","","","","","","","","","","","","","","","","","","","","","","","","","","","",""
"audio-keyboard-response","63","225943","0.0-4.0-1.0-0.14","1","0","rcm9hmcl85vhjqr","","null","","sounds/induction/right_rev/ti_SWS.wav","","null","","","","","","","","","","","","","","","","","","","","","","","","","","","","","","","",""
"html-button-response","64","227145","0.0-4.0-1.0-1.14","1","0","rcm9hmcl85vhjqr","","1200.6000001430511","","Was the sound coming from the left or the right?","1","","","1","INDUCTION-JUDGMENT","right","1","","","","","","","","","","","","","","","","","","","","","","","","","","",""
"html-keyboard-response","65","228149","0.0-4.0-1.0-2.14","1","0","rcm9hmcl85vhjqr","","null","","<p style=""color:#054d00;""><b>Correct!</b></p>","","null","","","","","","","","","","","","","","","","","","","","","","","","","","","","","","","",""
"audio-keyboard-response","66","228956","0.0-4.0-1.0-0.15","1","0","rcm9hmcl85vhjqr","","null","","sounds/induction/right_rev/fu_SWS.wav","","null","","","","","","","","","","","","","","","","","","","","","","","","","","","","","","","",""
"html-button-response","67","231947","0.0-4.0-1.0-1.15","1","0","rcm9hmcl85vhjqr","","2990","","Was the sound coming from the left or the right?","1","","","1","INDUCTION-JUDGMENT","right","1","","","","","","","","","","","","","","","","","","","","","","","","","","",""
"html-keyboard-response","68","232949","0.0-4.0-1.0-2.15","1","0","rcm9hmcl85vhjqr","","null","","<p style=""color:#054d00;""><b>Correct!</b></p>","","null","","","","","","","","","","","","","","","","","","","","","","","","","","","","","","","",""
"audio-keyboard-response","69","233751","0.0-4.0-1.0-0.16","1","0","rcm9hmcl85vhjqr","","null","","sounds/induction/left_rev/re_SWS.wav","","null","","","","","","","","","","","","","","","","","","","","","","","","","","","","","","","",""
"html-button-response","70","234818","0.0-4.0-1.0-1.16","1","0","rcm9hmcl85vhjqr","","1064.5999999046326","","Was the sound coming from the left or the right?","0","","","1","INDUCTION-JUDGMENT","left","0","","","","","","","","","","","","","","","","","","","","","","","","","","",""
"html-keyboard-response","71","235823","0.0-4.0-1.0-2.16","1","0","rcm9hmcl85vhjqr","","null","","<p style=""color:#054d00;""><b>Correct!</b></p>","","null","","","","","","","","","","","","","","","","","","","","","","","","","","","","","","","",""
"audio-keyboard-response","72","236631","0.0-4.0-1.0-0.17","1","0","rcm9hmcl85vhjqr","","null","","sounds/induction/right_rev/ta_SWS.wav","","null","","","","","","","","","","","","","","","","","","","","","","","","","","","","","","","",""
"html-button-response","73","237962","0.0-4.0-1.0-1.17","1","0","rcm9hmcl85vhjqr","","1330.3999998569489","","Was the sound coming from the left or the right?","1","","","1","INDUCTION-JUDGMENT","right","1","","","","","","","","","","","","","","","","","","","","","","","","","","",""
"html-keyboard-response","74","238965","0.0-4.0-1.0-2.17","1","0","rcm9hmcl85vhjqr","","null","","<p style=""color:#054d00;""><b>Correct!</b></p>","","null","","","","","","","","","","","","","","","","","","","","","","","","","","","","","","","",""
"audio-keyboard-response","75","239767","0.0-4.0-1.0-0.18","1","0","rcm9hmcl85vhjqr","","null","","sounds/induction/left_rev/pu_SWS.wav","","null","","","","","","","","","","","","","","","","","","","","","","","","","","","","","","","",""
"html-button-response","76","241278","0.0-4.0-1.0-1.18","1","0","rcm9hmcl85vhjqr","","1509.7999999523163","","Was the sound coming from the left or the right?","0","","","1","INDUCTION-JUDGMENT","left","0","","","","","","","","","","","","","","","","","","","","","","","","","","",""
"html-keyboard-response","77","242282","0.0-4.0-1.0-2.18","1","0","rcm9hmcl85vhjqr","","null","","<p style=""color:#054d00;""><b>Correct!</b></p>","","null","","","","","","","","","","","","","","","","","","","","","","","","","","","","","","","",""
"audio-keyboard-response","78","243084","0.0-4.0-1.0-0.19","1","0","rcm9hmcl85vhjqr","","null","","sounds/induction/left_rev/ge_SWS.wav","","null","","","","","","","","","","","","","","","","","","","","","","","","","","","","","","","",""
"html-button-response","79","244787","0.0-4.0-1.0-1.19","1","0","rcm9hmcl85vhjqr","","1701.5","","Was the sound coming from the left or the right?","0","","","1","INDUCTION-JUDGMENT","left","0","","","","","","","","","","","","","","","","","","","","","","","","","","",""
"html-keyboard-response","80","245791","0.0-4.0-1.0-2.19","1","0","rcm9hmcl85vhjqr","","null","","<p style=""color:#054d00;""><b>Correct!</b></p>","","null","","","","","","","","","","","","","","","","","","","","","","","","","","","","","","","",""
"audio-keyboard-response","81","246599","0.0-4.0-1.0-0.20","1","0","rcm9hmcl85vhjqr","","null","","sounds/induction/left_rev/me_SWS.wav","","null","","","","","","","","","","","","","","","","","","","","","","","","","","","","","","","",""
"html-button-response","82","248648","0.0-4.0-1.0-1.20","1","0","rcm9hmcl85vhjqr","","2048.4000000953674","","Was the sound coming from the left or the right?","0","","","1","INDUCTION-JUDGMENT","left","0","","","","","","","","","","","","","","","","","","","","","","","","","","",""
"html-keyboard-response","83","249654","0.0-4.0-1.0-2.20","1","0","rcm9hmcl85vhjqr","","null","","<p style=""color:#054d00;""><b>Correct!</b></p>","","null","","","","","","","","","","","","","","","","","","","","","","","","","","","","","","","",""
"audio-keyboard-response","84","250460","0.0-4.0-1.0-0.21","1","0","rcm9hmcl85vhjqr","","null","","sounds/induction/left_rev/ti_SWS.wav","","null","","","","","","","","","","","","","","","","","","","","","","","","","","","","","","","",""
"html-button-response","85","251462","0.0-4.0-1.0-1.21","1","0","rcm9hmcl85vhjqr","","1001","","Was the sound coming from the left or the right?","0","","","1","INDUCTION-JUDGMENT","left","0","","","","","","","","","","","","","","","","","","","","","","","","","","",""
"html-keyboard-response","86","252468","0.0-4.0-1.0-2.21","1","0","rcm9hmcl85vhjqr","","null","","<p style=""color:#054d00;""><b>Correct!</b></p>","","null","","","","","","","","","","","","","","","","","","","","","","","","","","","","","","","",""
"audio-keyboard-response","87","253271","0.0-4.0-1.0-0.22","1","0","rcm9hmcl85vhjqr","","null","","sounds/induction/left_rev/ko_SWS.wav","","null","","","","","","","","","","","","","","","","","","","","","","","","","","","","","","","",""
"html-button-response","88","254042","0.0-4.0-1.0-1.22","1","0","rcm9hmcl85vhjqr","","770.0999999046326","","Was the sound coming from the left or the right?","0","","","1","INDUCTION-JUDGMENT","left","0","","","","","","","","","","","","","","","","","","","","","","","","","","",""
"html-keyboard-response","89","255044","0.0-4.0-1.0-2.22","1","0","rcm9hmcl85vhjqr","","null","","<p style=""color:#054d00;""><b>Correct!</b></p>","","null","","","","","","","","","","","","","","","","","","","","","","","","","","","","","","","",""
"audio-keyboard-response","90","255847","0.0-4.0-1.0-0.23","1","0","rcm9hmcl85vhjqr","","null","","sounds/induction/left_rev/ko_SWS.wav","","null","","","","","","","","","","","","","","","","","","","","","","","","","","","","","","","",""
"html-button-response","91","256500","0.0-4.0-1.0-1.23","1","0","rcm9hmcl85vhjqr","","651.7000000476837","","Was the sound coming from the left or the right?","0","","","1","INDUCTION-JUDGMENT","left","0","","","","","","","","","","","","","","","","","","","","","","","","","","",""
"html-keyboard-response","92","257503","0.0-4.0-1.0-2.23","1","0","rcm9hmcl85vhjqr","","null","","<p style=""color:#054d00;""><b>Correct!</b></p>","","null","","","","","","","","","","","","","","","","","","","","","","","","","","","","","","","",""
"audio-keyboard-response","93","258305","0.0-4.0-1.0-0.24","1","0","rcm9hmcl85vhjqr","","null","","sounds/induction/left_rev/ru_SWS.wav","","null","","","","","","","","","","","","","","","","","","","","","","","","","","","","","","","",""
"html-button-response","94","259046","0.0-4.0-1.0-1.24","1","0","rcm9hmcl85vhjqr","","739.2000000476837","","Was the sound coming from the left or the right?","0","","","1","INDUCTION-JUDGMENT","left","0","","","","","","","","","","","","","","","","","","","","","","","","","","",""
"html-keyboard-response","95","260052","0.0-4.0-1.0-2.24","1","0","rcm9hmcl85vhjqr","","null","","<p style=""color:#054d00;""><b>Correct!</b></p>","","null","","","","","","","","","","","","","","","","","","","","","","","","","","","","","","","",""
"audio-keyboard-response","96","260860","0.0-4.0-1.0-0.25","1","0","rcm9hmcl85vhjqr","","null","","sounds/induction/left_rev/ni_SWS.wav","","null","","","","","","","","","","","","","","","","","","","","","","","","","","","","","","","",""
"html-button-response","97","261625","0.0-4.0-1.0-1.25","1","0","rcm9hmcl85vhjqr","","764","","Was the sound coming from the left or the right?","0","","","1","INDUCTION-JUDGMENT","left","0","","","","","","","","","","","","","","","","","","","","","","","","","","",""
"html-keyboard-response","98","262628","0.0-4.0-1.0-2.25","1","0","rcm9hmcl85vhjqr","","null","","<p style=""color:#054d00;""><b>Correct!</b></p>","","null","","","","","","","","","","","","","","","","","","","","","","","","","","","","","","","",""
"audio-keyboard-response","99","263431","0.0-4.0-1.0-0.26","1","0","rcm9hmcl85vhjqr","","null","","sounds/induction/right_rev/re_SWS.wav","","null","","","","","","","","","","","","","","","","","","","","","","","","","","","","","","","",""
"html-button-response","100","264172","0.0-4.0-1.0-1.26","1","0","rcm9hmcl85vhjqr","","739.5999999046326","","Was the sound coming from the left or the right?","1","","","1","INDUCTION-JUDGMENT","right","1","","","","","","","","","","","","","","","","","","","","","","","","","","",""
"html-keyboard-response","101","265177","0.0-4.0-1.0-2.26","1","0","rcm9hmcl85vhjqr","","null","","<p style=""color:#054d00;""><b>Correct!</b></p>","","null","","","","","","","","","","","","","","","","","","","","","","","","","","","","","","","",""
"audio-keyboard-response","102","265980","0.0-4.0-1.0-0.27","1","0","rcm9hmcl85vhjqr","","null","","sounds/induction/right_rev/fe_SWS.wav","","null","","","","","","","","","","","","","","","","","","","","","","","","","","","","","","","",""
"html-button-response","103","266615","0.0-4.0-1.0-1.27","1","0","rcm9hmcl85vhjqr","","632.9000000953674","","Was the sound coming from the left or the right?","1","","","1","INDUCTION-JUDGMENT","right","1","","","","","","","","","","","","","","","","","","","","","","","","","","",""
"html-keyboard-response","104","267620","0.0-4.0-1.0-2.27","1","0","rcm9hmcl85vhjqr","","null","","<p style=""color:#054d00;""><b>Correct!</b></p>","","null","","","","","","","","","","","","","","","","","","","","","","","","","","","","","","","",""
"audio-keyboard-response","105","268423","0.0-4.0-1.0-0.28","1","0","rcm9hmcl85vhjqr","","null","","sounds/induction/left_rev/ru_SWS.wav","","null","","","","","","","","","","","","","","","","","","","","","","","","","","","","","","","",""
"html-button-response","106","269031","0.0-4.0-1.0-1.28","1","0","rcm9hmcl85vhjqr","","606.5","","Was the sound coming from the left or the right?","0","","","1","INDUCTION-JUDGMENT","left","0","","","","","","","","","","","","","","","","","","","","","","","","","","",""
"html-keyboard-response","107","270036","0.0-4.0-1.0-2.28","1","0","rcm9hmcl85vhjqr","","null","","<p style=""color:#054d00;""><b>Correct!</b></p>","","null","","","","","","","","","","","","","","","","","","","","","","","","","","","","","","","",""
"audio-keyboard-response","108","270838","0.0-4.0-1.0-0.29","1","0","rcm9hmcl85vhjqr","","null","","sounds/induction/right_rev/fe_SWS.wav","","null","","","","","","","","","","","","","","","","","","","","","","","","","","","","","","","",""
"html-button-response","109","271748","0.0-4.0-1.0-1.29","1","0","rcm9hmcl85vhjqr","","908.0999999046326","","Was the sound coming from the left or the right?","1","","","1","INDUCTION-JUDGMENT","right","1","","","","","","","","","","","","","","","","","","","","","","","","","","",""
"html-keyboard-response","110","272752","0.0-4.0-1.0-2.29","1","0","rcm9hmcl85vhjqr","","null","","<p style=""color:#054d00;""><b>Correct!</b></p>","","null","","","","","","","","","","","","","","","","","","","","","","","","","","","","","","","",""
"audio-keyboard-response","111","273558","0.0-4.0-1.0-0.30","1","0","rcm9hmcl85vhjqr","","null","","sounds/induction/left_rev/me_SWS.wav","","null","","","","","","","","","","","","","","","","","","","","","","","","","","","","","","","",""
"html-button-response","112","274213","0.0-4.0-1.0-1.30","1","0","rcm9hmcl85vhjqr","","653.7000000476837","","Was the sound coming from the left or the right?","0","","","1","INDUCTION-JUDGMENT","left","0","","","","","","","","","","","","","","","","","","","","","","","","","","",""
"html-keyboard-response","113","275219","0.0-4.0-1.0-2.30","1","0","rcm9hmcl85vhjqr","","null","","<p style=""color:#054d00;""><b>Correct!</b></p>","","null","","","","","","","","","","","","","","","","","","","","","","","","","","","","","","","",""
"audio-keyboard-response","114","276028","0.0-4.0-1.0-0.31","1","0","rcm9hmcl85vhjqr","","null","","sounds/induction/left_rev/pu_SWS.wav","","null","","","","","","","","","","","","","","","","","","","","","","","","","","","","","","","",""
"html-button-response","115","276566","0.0-4.0-1.0-1.31","1","0","rcm9hmcl85vhjqr","","536.3999998569489","","Was the sound coming from the left or the right?","0","","","1","INDUCTION-JUDGMENT","left","0","","","","","","","","","","","","","","","","","","","","","","","","","","",""
"html-keyboard-response","116","277572","0.0-4.0-1.0-2.31","1","0","rcm9hmcl85vhjqr","","null","","<p style=""color:#054d00;""><b>Correct!</b></p>","","null","","","","","","","","","","","","","","","","","","","","","","","","","","","","","","","",""
"audio-keyboard-response","117","278380","0.0-4.0-1.0-0.32","1","0","rcm9hmcl85vhjqr","","null","","sounds/induction/right_rev/pu_SWS.wav","","null","","","","","","","","","","","","","","","","","","","","","","","","","","","","","","","",""
"html-button-response","118","279073","0.0-4.0-1.0-1.32","1","0","rcm9hmcl85vhjqr","","691.3999998569489","","Was the sound coming from the left or the right?","1","","","1","INDUCTION-JUDGMENT","right","1","","","","","","","","","","","","","","","","","","","","","","","","","","",""
"html-keyboard-response","119","280079","0.0-4.0-1.0-2.32","1","0","rcm9hmcl85vhjqr","","null","","<p style=""color:#054d00;""><b>Correct!</b></p>","","null","","","","","","","","","","","","","","","","","","","","","","","","","","","","","","","",""
"audio-keyboard-response","120","280881","0.0-4.0-1.0-0.33","1","0","rcm9hmcl85vhjqr","","null","","sounds/induction/left_rev/ta_SWS.wav","","null","","","","","","","","","","","","","","","","","","","","","","","","","","","","","","","",""
"html-button-response","121","281959","0.0-4.0-1.0-1.33","1","0","rcm9hmcl85vhjqr","","1076.2000000476837","","Was the sound coming from the left or the right?","0","","","1","INDUCTION-JUDGMENT","left","0","","","","","","","","","","","","","","","","","","","","","","","","","","",""
"html-keyboard-response","122","282963","0.0-4.0-1.0-2.33","1","0","rcm9hmcl85vhjqr","","null","","<p style=""color:#054d00;""><b>Correct!</b></p>","","null","","","","","","","","","","","","","","","","","","","","","","","","","","","","","","","",""
"audio-keyboard-response","123","283766","0.0-4.0-1.0-0.34","1","0","rcm9hmcl85vhjqr","","null","","sounds/induction/left_rev/su_SWS.wav","","null","","","","","","","","","","","","","","","","","","","","","","","","","","","","","","","",""
"html-button-response","124","284667","0.0-4.0-1.0-1.34","1","0","rcm9hmcl85vhjqr","","900.2999999523163","","Was the sound coming from the left or the right?","0","","","1","INDUCTION-JUDGMENT","left","0","","","","","","","","","","","","","","","","","","","","","","","","","","",""
"html-keyboard-response","125","285672","0.0-4.0-1.0-2.34","1","0","rcm9hmcl85vhjqr","","null","","<p style=""color:#054d00;""><b>Correct!</b></p>","","null","","","","","","","","","","","","","","","","","","","","","","","","","","","","","","","",""
"audio-keyboard-response","126","286476","0.0-4.0-1.0-0.35","1","0","rcm9hmcl85vhjqr","","null","","sounds/induction/right_rev/ti_SWS.wav","","null","","","","","","","","","","","","","","","","","","","","","","","","","","","","","","","",""
"html-button-response","127","287393","0.0-4.0-1.0-1.35","1","0","rcm9hmcl85vhjqr","","915.8000001907349","","Was the sound coming from the left or the right?","1","","","1","INDUCTION-JUDGMENT","right","1","","","","","","","","","","","","","","","","","","","","","","","","","","",""
"html-keyboard-response","128","288397","0.0-4.0-1.0-2.35","1","0","rcm9hmcl85vhjqr","","null","","<p style=""color:#054d00;""><b>Correct!</b></p>","","null","","","","","","","","","","","","","","","","","","","","","","","","","","","","","","","",""
"audio-keyboard-response","129","289201","0.0-4.0-1.0-0.36","1","0","rcm9hmcl85vhjqr","","null","","sounds/induction/left_rev/fe_SWS.wav","","null","","","","","","","","","","","","","","","","","","","","","","","","","","","","","","","",""
"html-button-response","130","289777","0.0-4.0-1.0-1.36","1","0","rcm9hmcl85vhjqr","","574.5999999046326","","Was the sound coming from the left or the right?","0","","","1","INDUCTION-JUDGMENT","left","0","","","","","","","","","","","","","","","","","","","","","","","","","","",""
"html-keyboard-response","131","290781","0.0-4.0-1.0-2.36","1","0","rcm9hmcl85vhjqr","","null","","<p style=""color:#054d00;""><b>Correct!</b></p>","","null","","","","","","","","","","","","","","","","","","","","","","","","","","","","","","","",""
"audio-keyboard-response","132","291585","0.0-4.0-1.0-0.37","1","0","rcm9hmcl85vhjqr","","null","","sounds/induction/left_rev/fe_SWS.wav","","null","","","","","","","","","","","","","","","","","","","","","","","","","","","","","","","",""
"html-button-response","133","292235","0.0-4.0-1.0-1.37","1","0","rcm9hmcl85vhjqr","","648.9000000953674","","Was the sound coming from the left or the right?","0","","","1","INDUCTION-JUDGMENT","left","0","","","","","","","","","","","","","","","","","","","","","","","","","","",""
"html-keyboard-response","134","293240","0.0-4.0-1.0-2.37","1","0","rcm9hmcl85vhjqr","","null","","<p style=""color:#054d00;""><b>Correct!</b></p>","","null","","","","","","","","","","","","","","","","","","","","","","","","","","","","","","","",""
"audio-keyboard-response","135","294044","0.0-4.0-1.0-0.38","1","0","rcm9hmcl85vhjqr","","null","","sounds/induction/left_rev/re_SWS.wav","","null","","","","","","","","","","","","","","","","","","","","","","","","","","","","","","","",""
"html-button-response","136","294644","0.0-4.0-1.0-1.38","1","0","rcm9hmcl85vhjqr","","599.4000000953674","","Was the sound coming from the left or the right?","0","","","1","INDUCTION-JUDGMENT","left","0","","","","","","","","","","","","","","","","","","","","","","","","","","",""
"html-keyboard-response","137","295651","0.0-4.0-1.0-2.38","1","0","rcm9hmcl85vhjqr","","null","","<p style=""color:#054d00;""><b>Correct!</b></p>","","null","","","","","","","","","","","","","","","","","","","","","","","","","","","","","","","",""
"audio-keyboard-response","138","296454","0.0-4.0-1.0-0.39","1","0","rcm9hmcl85vhjqr","","null","","sounds/induction/right_rev/ge_SWS.wav","","null","","","","","","","","","","","","","","","","","","","","","","","","","","","","","","","",""
"html-button-response","139","297014","0.0-4.0-1.0-1.39","1","0","rcm9hmcl85vhjqr","","557.6000001430511","","Was the sound coming from the left or the right?","1","","","1","INDUCTION-JUDGMENT","right","1","","","","","","","","","","","","","","","","","","","","","","","","","","",""
"html-keyboard-response","140","298018","0.0-4.0-1.0-2.39","1","0","rcm9hmcl85vhjqr","","null","","<p style=""color:#054d00;""><b>Correct!</b></p>","","null","","","","","","","","","","","","","","","","","","","","","","","","","","","","","","","",""
"audio-keyboard-response","141","298822","0.0-4.0-1.0-0.40","1","0","rcm9hmcl85vhjqr","","null","","sounds/induction/right_rev/fu_SWS.wav","","null","","","","","","","","","","","","","","","","","","","","","","","","","","","","","","","",""
"html-button-response","142","301281","0.0-4.0-1.0-1.40","1","0","rcm9hmcl85vhjqr","","2457.9000000953674","","Was the sound coming from the left or the right?","1","","","1","INDUCTION-JUDGMENT","right","1","","","","","","","","","","","","","","","","","","","","","","","","","","",""
"html-keyboard-response","143","302285","0.0-4.0-1.0-2.40","1","0","rcm9hmcl85vhjqr","","null","","<p style=""color:#054d00;""><b>Correct!</b></p>","","null","","","","","","","","","","","","","","","","","","","","","","","","","","","","","","","",""
"audio-keyboard-response","144","303089","0.0-4.0-1.0-0.41","1","0","rcm9hmcl85vhjqr","","null","","sounds/induction/right_rev/me_SWS.wav","","null","","","","","","","","","","","","","","","","","","","","","","","","","","","","","","","",""
"html-button-response","145","303628","0.0-4.0-1.0-1.41","1","0","rcm9hmcl85vhjqr","","537.9000000953674","","Was the sound coming from the left or the right?","1","","","1","INDUCTION-JUDGMENT","right","1","","","","","","","","","","","","","","","","","","","","","","","","","","",""
"html-keyboard-response","146","304633","0.0-4.0-1.0-2.41","1","0","rcm9hmcl85vhjqr","","null","","<p style=""color:#054d00;""><b>Correct!</b></p>","","null","","","","","","","","","","","","","","","","","","","","","","","","","","","","","","","",""
"audio-keyboard-response","147","305441","0.0-4.0-1.0-0.42","1","0","rcm9hmcl85vhjqr","","null","","sounds/induction/right_rev/re_SWS.wav","","null","","","","","","","","","","","","","","","","","","","","","","","","","","","","","","","",""
"html-button-response","148","306126","0.0-4.0-1.0-1.42","1","0","rcm9hmcl85vhjqr","","683.4000000953674","","Was the sound coming from the left or the right?","1","","","1","INDUCTION-JUDGMENT","right","1","","","","","","","","","","","","","","","","","","","","","","","","","","",""
"html-keyboard-response","149","307133","0.0-4.0-1.0-2.42","1","0","rcm9hmcl85vhjqr","","null","","<p style=""color:#054d00;""><b>Correct!</b></p>","","null","","","","","","","","","","","","","","","","","","","","","","","","","","","","","","","",""
"audio-keyboard-response","150","307937","0.0-4.0-1.0-0.43","1","0","rcm9hmcl85vhjqr","","null","","sounds/induction/right_rev/ru_SWS.wav","","null","","","","","","","","","","","","","","","","","","","","","","","","","","","","","","","",""
"html-button-response","151","308536","0.0-4.0-1.0-1.43","1","0","rcm9hmcl85vhjqr","","597.2000000476837","","Was the sound coming from the left or the right?","1","","","1","INDUCTION-JUDGMENT","right","1","","","","","","","","","","","","","","","","","","","","","","","","","","",""
"html-keyboard-response","152","309538","0.0-4.0-1.0-2.43","1","0","rcm9hmcl85vhjqr","","null","","<p style=""color:#054d00;""><b>Correct!</b></p>","","null","","","","","","","","","","","","","","","","","","","","","","","","","","","","","","","",""
"audio-keyboard-response","153","310342","0.0-4.0-1.0-0.44","1","0","rcm9hmcl85vhjqr","","null","","sounds/induction/right_rev/ge_SWS.wav","","null","","","","","","","","","","","","","","","","","","","","","","","","","","","","","","","",""
"html-button-response","154","310857","0.0-4.0-1.0-1.44","1","0","rcm9hmcl85vhjqr","","512.5999999046326","","Was the sound coming from the left or the right?","1","","","1","INDUCTION-JUDGMENT","right","1","","","","","","","","","","","","","","","","","","","","","","","","","","",""
"html-keyboard-response","155","311863","0.0-4.0-1.0-2.44","1","0","rcm9hmcl85vhjqr","","null","","<p style=""color:#054d00;""><b>Correct!</b></p>","","null","","","","","","","","","","","","","","","","","","","","","","","","","","","","","","","",""
"audio-keyboard-response","156","312668","0.0-4.0-1.0-0.45","1","0","rcm9hmcl85vhjqr","","null","","sounds/induction/right_rev/su_SWS.wav","","null","","","","","","","","","","","","","","","","","","","","","","","","","","","","","","","",""
"html-button-response","157","313073","0.0-4.0-1.0-1.45","1","0","rcm9hmcl85vhjqr","","403.90000009536743","","Was the sound coming from the left or the right?","1","","","1","INDUCTION-JUDGMENT","right","1","","","","","","","","","","","","","","","","","","","","","","","","","","",""
"html-keyboard-response","158","314077","0.0-4.0-1.0-2.45","1","0","rcm9hmcl85vhjqr","","null","","<p style=""color:#054d00;""><b>Correct!</b></p>","","null","","","","","","","","","","","","","","","","","","","","","","","","","","","","","","","",""
"audio-keyboard-response","159","314881","0.0-4.0-1.0-0.46","1","0","rcm9hmcl85vhjqr","","null","","sounds/induction/right_rev/ni_SWS.wav","","null","","","","","","","","","","","","","","","","","","","","","","","","","","","","","","","",""
"html-button-response","160","315394","0.0-4.0-1.0-1.46","1","0","rcm9hmcl85vhjqr","","511.10000014305115","","Was the sound coming from the left or the right?","1","","","1","INDUCTION-JUDGMENT","right","1","","","","","","","","","","","","","","","","","","","","","","","","","","",""
"html-keyboard-response","161","316397","0.0-4.0-1.0-2.46","1","0","rcm9hmcl85vhjqr","","null","","<p style=""color:#054d00;""><b>Correct!</b></p>","","null","","","","","","","","","","","","","","","","","","","","","","","","","","","","","","","",""
"audio-keyboard-response","162","317201","0.0-4.0-1.0-0.47","1","0","rcm9hmcl85vhjqr","","null","","sounds/induction/right_rev/ru_SWS.wav","","null","","","","","","","","","","","","","","","","","","","","","","","","","","","","","","","",""
"html-button-response","163","317901","0.0-4.0-1.0-1.47","1","0","rcm9hmcl85vhjqr","","697.7000000476837","","Was the sound coming from the left or the right?","1","","","1","INDUCTION-JUDGMENT","right","1","","","","","","","","","","","","","","","","","","","","","","","","","","",""
"html-keyboard-response","164","318903","0.0-4.0-1.0-2.47","1","0","rcm9hmcl85vhjqr","","null","","<p style=""color:#054d00;""><b>Correct!</b></p>","","null","","","","","","","","","","","","","","","","","","","","","","","","","","","","","","","",""
"html-button-response","165","333212","0.0-5.0-0.0","1","0","rcm9hmcl85vhjqr","","13807.399999856949","","<p>Thank you for your answers.</p><p>You will now listen to similar sounds. The main difference is that the sounds will be longer.</p><p>Just as before, you will be asked to judge whether the sound was coming from the left or the right.</p><p>There are 10 of these longer sounds in total.","0","","","","","","","","","","","","","","","","","","","","","","","","","","","","","","","","",""
"audio-keyboard-response","166","335969","0.0-5.0-1.0-0.0","1","0","rcm9hmcl85vhjqr","","null","","sounds/sentences/right_rev/14_08_cfSWS.wav","","null","","","","","","","","","","","","","","","","","","","","","","","","","","","","","","","",""
"html-button-response","167","337407","0.0-5.0-1.0-1.0","1","0","rcm9hmcl85vhjqr","","1436.0999999046326","","Was the sound coming from the left or the right?","1","","","1","INDUCTION-JUDGMENT","right","1","","","","","","","","","","","","","","","","","","","","","","","","","","",""
"html-keyboard-response","168","338412","0.0-5.0-1.0-2.0","1","0","rcm9hmcl85vhjqr","","null","","<p style=""color:#054d00;""><b>Correct!</b></p>","","null","","","","","","","","","","","","","","","","","","","","","","","","","","","","","","","",""
"html-button-response","169","341522","0.0-5.0-1.0-3.0","1","0","rcm9hmcl85vhjqr","","2608.5","","<p>Press the button below when you are ready to continue.</p>","0","","","","","","","","","","","","","","","","","","","","","","","","","","","","","","","","",""
"audio-keyboard-response","170","344342","0.0-5.0-1.0-0.1","1","0","rcm9hmcl85vhjqr","","null","","sounds/sentences/left_rev/14_02_cfSWS.wav","","null","","","","","","","","","","","","","","","","","","","","","","","","","","","","","","","",""
"html-button-response","171","345249","0.0-5.0-1.0-1.1","1","0","rcm9hmcl85vhjqr","","904.5","","Was the sound coming from the left or the right?","0","","","1","INDUCTION-JUDGMENT","left","0","","","","","","","","","","","","","","","","","","","","","","","","","","",""
"html-keyboard-response","172","346251","0.0-5.0-1.0-2.1","1","0","rcm9hmcl85vhjqr","","null","","<p style=""color:#054d00;""><b>Correct!</b></p>","","null","","","","","","","","","","","","","","","","","","","","","","","","","","","","","","","",""
"html-button-response","173","348071","0.0-5.0-1.0-3.1","1","0","rcm9hmcl85vhjqr","","1314","","<p>Press the button below when you are ready to continue.</p>","0","","","","","","","","","","","","","","","","","","","","","","","","","","","","","","","","",""
"audio-keyboard-response","174","350817","0.0-5.0-1.0-0.2","1","0","rcm9hmcl85vhjqr","","null","","sounds/sentences/right_rev/14_06_cfSWS.wav","","null","","","","","","","","","","","","","","","","","","","","","","","","","","","","","","","",""
"html-button-response","175","351690","0.0-5.0-1.0-1.2","1","0","rcm9hmcl85vhjqr","","871.7999999523163","","Was the sound coming from the left or the right?","1","","","1","INDUCTION-JUDGMENT","right","1","","","","","","","","","","","","","","","","","","","","","","","","","","",""
"html-keyboard-response","176","352694","0.0-5.0-1.0-2.2","1","0","rcm9hmcl85vhjqr","","null","","<p style=""color:#054d00;""><b>Correct!</b></p>","","null","","","","","","","","","","","","","","","","","","","","","","","","","","","","","","","",""
"html-button-response","177","354253","0.0-5.0-1.0-3.2","1","0","rcm9hmcl85vhjqr","","1057","","<p>Press the button below when you are ready to continue.</p>","0","","","","","","","","","","","","","","","","","","","","","","","","","","","","","","","","",""
"audio-keyboard-response","178","356812","0.0-5.0-1.0-0.3","1","0","rcm9hmcl85vhjqr","","null","","sounds/sentences/left_rev/14_04_cfSWS.wav","","null","","","","","","","","","","","","","","","","","","","","","","","","","","","","","","","",""
"html-button-response","179","357479","0.0-5.0-1.0-1.3","1","0","rcm9hmcl85vhjqr","","665.7000000476837","","Was the sound coming from the left or the right?","0","","","1","INDUCTION-JUDGMENT","left","0","","","","","","","","","","","","","","","","","","","","","","","","","","",""
"html-keyboard-response","180","358480","0.0-5.0-1.0-2.3","1","0","rcm9hmcl85vhjqr","","null","","<p style=""color:#054d00;""><b>Correct!</b></p>","","null","","","","","","","","","","","","","","","","","","","","","","","","","","","","","","","",""
"html-button-response","181","359984","0.0-5.0-1.0-3.3","1","0","rcm9hmcl85vhjqr","","1002.0999999046326","","<p>Press the button below when you are ready to continue.</p>","0","","","","","","","","","","","","","","","","","","","","","","","","","","","","","","","","",""
"audio-keyboard-response","182","362716","0.0-5.0-1.0-0.4","1","0","rcm9hmcl85vhjqr","","null","","sounds/sentences/right_rev/14_09_cfSWS.wav","","null","","","","","","","","","","","","","","","","","","","","","","","","","","","","","","","",""
"html-button-response","183","363592","0.0-5.0-1.0-1.4","1","0","rcm9hmcl85vhjqr","","874.7000000476837","","Was the sound coming from the left or the right?","1","","","1","INDUCTION-JUDGMENT","right","1","","","","","","","","","","","","","","","","","","","","","","","","","","",""
"html-keyboard-response","184","364597","0.0-5.0-1.0-2.4","1","0","rcm9hmcl85vhjqr","","null","","<p style=""color:#054d00;""><b>Correct!</b></p>","","null","","","","","","","","","","","","","","","","","","","","","","","","","","","","","","","",""
"html-button-response","185","366043","0.0-5.0-1.0-3.4","1","0","rcm9hmcl85vhjqr","","944","","<p>Press the button below when you are ready to continue.</p>","0","","","","","","","","","","","","","","","","","","","","","","","","","","","","","","","","",""
"audio-keyboard-response","186","369062","0.0-5.0-1.0-0.5","1","0","rcm9hmcl85vhjqr","","null","","sounds/sentences/right_rev/14_10_cfSWS.wav","","null","","","","","","","","","","","","","","","","","","","","","","","","","","","","","","","",""
"html-button-response","187","369559","0.0-5.0-1.0-1.5","1","0","rcm9hmcl85vhjqr","","494.90000009536743","","Was the sound coming from the left or the right?","1","","","1","INDUCTION-JUDGMENT","right","1","","","","","","","","","","","","","","","","","","","","","","","","","","",""
"html-keyboard-response","188","370565","0.0-5.0-1.0-2.5","1","0","rcm9hmcl85vhjqr","","null","","<p style=""color:#054d00;""><b>Correct!</b></p>","","null","","","","","","","","","","","","","","","","","","","","","","","","","","","","","","","",""
"html-button-response","189","371942","0.0-5.0-1.0-3.5","1","0","rcm9hmcl85vhjqr","","874.5999999046326","","<p>Press the button below when you are ready to continue.</p>","0","","","","","","","","","","","","","","","","","","","","","","","","","","","","","","","","",""
"audio-keyboard-response","190","374934","0.0-5.0-1.0-0.6","1","0","rcm9hmcl85vhjqr","","null","","sounds/sentences/left_rev/14_05_cfSWS.wav","","null","","","","","","","","","","","","","","","","","","","","","","","","","","","","","","","",""
"html-button-response","191","375663","0.0-5.0-1.0-1.6","1","0","rcm9hmcl85vhjqr","","727.2999999523163","","Was the sound coming from the left or the right?","0","","","1","INDUCTION-JUDGMENT","left","0","","","","","","","","","","","","","","","","","","","","","","","","","","",""
"html-keyboard-response","192","376666","0.0-5.0-1.0-2.6","1","0","rcm9hmcl85vhjqr","","null","","<p style=""color:#054d00;""><b>Correct!</b></p>","","null","","","","","","","","","","","","","","","","","","","","","","","","","","","","","","","",""
"html-button-response","193","378243","0.0-5.0-1.0-3.6","1","0","rcm9hmcl85vhjqr","","1075.0999999046326","","<p>Press the button below when you are ready to continue.</p>","0","","","","","","","","","","","","","","","","","","","","","","","","","","","","","","","","",""
"audio-keyboard-response","194","381137","0.0-5.0-1.0-0.7","1","0","rcm9hmcl85vhjqr","","null","","sounds/sentences/right_rev/14_07_cfSWS.wav","","null","","","","","","","","","","","","","","","","","","","","","","","","","","","","","","","",""
"html-button-response","195","382187","0.0-5.0-1.0-1.7","1","0","rcm9hmcl85vhjqr","","1048.0999999046326","","Was the sound coming from the left or the right?","1","","","1","INDUCTION-JUDGMENT","right","1","","","","","","","","","","","","","","","","","","","","","","","","","","",""
"html-keyboard-response","196","383189","0.0-5.0-1.0-2.7","1","0","rcm9hmcl85vhjqr","","null","","<p style=""color:#054d00;""><b>Correct!</b></p>","","null","","","","","","","","","","","","","","","","","","","","","","","","","","","","","","","",""
"html-button-response","197","384557","0.0-5.0-1.0-3.7","1","0","rcm9hmcl85vhjqr","","865.7999999523163","","<p>Press the button below when you are ready to continue.</p>","0","","","","","","","","","","","","","","","","","","","","","","","","","","","","","","","","",""
"audio-keyboard-response","198","387681","0.0-5.0-1.0-0.8","1","0","rcm9hmcl85vhjqr","","null","","sounds/sentences/left_rev/14_01_cfSWS.wav","","null","","","","","","","","","","","","","","","","","","","","","","","","","","","","","","","",""
"html-button-response","199","388445","0.0-5.0-1.0-1.8","1","0","rcm9hmcl85vhjqr","","762.5","","Was the sound coming from the left or the right?","0","","","1","INDUCTION-JUDGMENT","left","0","","","","","","","","","","","","","","","","","","","","","","","","","","",""
"html-keyboard-response","200","389450","0.0-5.0-1.0-2.8","1","0","rcm9hmcl85vhjqr","","null","","<p style=""color:#054d00;""><b>Correct!</b></p>","","null","","","","","","","","","","","","","","","","","","","","","","","","","","","","","","","",""
"html-button-response","201","394956","0.0-5.0-1.0-3.8","1","0","rcm9hmcl85vhjqr","","5003.800000190735","","<p>Press the button below when you are ready to continue.</p>","0","","","","","","","","","","","","","","","","","","","","","","","","","","","","","","","","",""
"audio-keyboard-response","202","397542","0.0-5.0-1.0-0.9","1","0","rcm9hmcl85vhjqr","","null","","sounds/sentences/left_rev/14_03_cfSWS.wav","","null","","","","","","","","","","","","","","","","","","","","","","","","","","","","","","","",""
"html-button-response","203","398092","0.0-5.0-1.0-1.9","1","0","rcm9hmcl85vhjqr","","547.7999999523163","","Was the sound coming from the left or the right?","0","","","1","INDUCTION-JUDGMENT","left","0","","","","","","","","","","","","","","","","","","","","","","","","","","",""
"html-keyboard-response","204","399094","0.0-5.0-1.0-2.9","1","0","rcm9hmcl85vhjqr","","null","","<p style=""color:#054d00;""><b>Correct!</b></p>","","null","","","","","","","","","","","","","","","","","","","","","","","","","","","","","","","",""
"html-button-response","205","400395","0.0-5.0-1.0-3.9","1","0","rcm9hmcl85vhjqr","","795.7999999523163","","<p>Press the button below when you are ready to continue.</p>","0","","","","","","","","","","","","","","","","","","","","","","","","","","","","","","","","",""
"html-keyboard-response","206","433007","0.0-6.0-0.0","1","0","rcm9hmcl85vhjqr","","32106.400000095367","","<p>In this part of the study, you will hear sounds similar to those you just heard.</p><p>Please focus on these sounds, as you may be asked questions about them later.</p><p>Occasionally, the sounds will pause for up to two seconds. When this happens, please press SPACEBAR as quickly as you can.</br>This helps ensure that you are paying attention to the sounds.</p><p>This part of the study will take about 12 minutes to complete, and you will be given the opportunity to take a couple of short breaks every few minutes.</p><p><strong>Press SPACEBAR to begin</strong></p>","","32","","","","","","","","","","","","","","","","","","","","","","","","","","","","","","","",""
"html-keyboard-response","207","434008","0.0-6.0-1.0-0.0","1","0","rcm9hmcl85vhjqr","","null","","<p style=""font-size: 40px;"">+</p>","","null","","","","","","","","","","","","","","","","","","","","","","","","","","","","","","","",""
"html-keyboard-response","208","619013","0.0-6.0-1.0-1.0","1","0","rcm9hmcl85vhjqr","","null","","","","null","","","SL-TRAIN","","","0","1199.8999998569489","721.5999999046326","sounds/A/TRAIN/SEQ__04.mp3","2","","","","","","","","","","","","","","","","","","","","","",""
"html-button-response","209","625392","0.0-6.0-1.0-2.0","1","0","rcm9hmcl85vhjqr","","6376.599999904633","","<p>You may take a short break if you wish.</p>","0","","","","","","","","","","","","","","","","","","","","","","","","","","","","","","","","",""
"html-keyboard-response","210","626396","0.0-6.0-1.0-3.0","1","0","rcm9hmcl85vhjqr","","null","","<p style=""font-size: 40px;"">+</p>","","null","","","","","","","","","","","","","","","","","","","","","","","","","","","","","","","",""
"html-keyboard-response","211","811396","0.0-6.0-1.0-4.0","1","0","rcm9hmcl85vhjqr","","null","","","","null","","","SL-TRAIN","","","0","785.3000001907349","615.8000001907349","sounds/A/TRAIN/SEQ__02.mp3","4","","","","","","","","","","","","","","","","","","","","","",""
"html-button-response","212","835569","0.0-6.0-1.0-5.0","1","0","rcm9hmcl85vhjqr","","24172.699999809265","","<p>You may take a short break if you wish.</p>","0","","","","","","","","","","","","","","","","","","","","","","","","","","","","","","","","",""
"html-keyboard-response","213","836575","0.0-6.0-1.0-6.0","1","0","rcm9hmcl85vhjqr","","null","","<p style=""font-size: 40px;"">+</p>","","null","","","","","","","","","","","","","","","","","","","","","","","","","","","","","","","",""
"html-keyboard-response","214","1021575","0.0-6.0-1.0-7.0","1","0","rcm9hmcl85vhjqr","","null","","","","null","","","SL-TRAIN","","","0","1228.7000000476837","756.7000000476837","sounds/A/TRAIN/SEQ__09.mp3","8","","","","","","","","","","","","","","","","","","","","","",""
"html-button-response","215","1042537","0.0-6.0-1.0-8.0","1","0","rcm9hmcl85vhjqr","","20961.10000014305","","<p>You may take a short break if you wish.</p>","0","","","","","","","","","","","","","","","","","","","","","","","","","","","","","","","","",""
"html-keyboard-response","216","1043543","0.0-6.0-1.0-9.0","1","0","rcm9hmcl85vhjqr","","null","","<p style=""font-size: 40px;"">+</p>","","null","","","","","","","","","","","","","","","","","","","","","","","","","","","","","","","",""
"html-keyboard-response","217","1228543","0.0-6.0-1.0-10.0","1","0","rcm9hmcl85vhjqr","","null","","","","null","","","SL-TRAIN","","","0","1017.1999998092651","855.8999998569489","sounds/A/TRAIN/SEQ__07.mp3","11","","","","","","","","","","","","","","","","","","","","","",""
"html-button-response","218","1311078","0.0-6.0-1.0-11.0","1","0","rcm9hmcl85vhjqr","","82535.70000004768","","<p>You may take a short break if you wish.</p>","0","","","","","","","","","","","","","","","","","","","","","","","","","","","","","","","","",""
"html-button-response","219","1327087","0.0-7.0-0.0","1","0","rcm9hmcl85vhjqr","","16007.799999952316","","<p>Welcome to the second part of the study. This is a <u>familiarity task</u>.</p><p>You will now hear short sounds and will be asked to rate how familiar they sound to you <b>based on what you heard in the previous part of the study</b>.</p><p>You will rate 12 sounds in total.</p>","0","","","","","","","","","","","","","","","","","","","","","","","","","","","","","","","","",""
"html-keyboard-response","220","1328093","0.0-7.0-1.0-0.0","1","0","rcm9hmcl85vhjqr","","null","","","","null","","","","","","","","","","","","","","","","","","","","","","","","","","","","","","","",""
"audio-keyboard-response","221","1329084","0.0-7.0-1.0-1.0","1","0","rcm9hmcl85vhjqr","","null","","sounds/A/FAM/P003.mp3","","null","","","","","","","","","","","","","","","","","","","","","","","","","","","","","","","",""
"html-keyboard-response","222","1337046","0.0-7.0-1.0-2.0","1","0","rcm9hmcl85vhjqr","","7459.599999904633","","<p>How familiar did this sound to you?</p><p>1&nbsp;&nbsp;&nbsp;&nbsp;&nbsp;&nbsp;&nbsp;&nbsp;&nbsp;&nbsp;&nbsp;&nbsp;&nbsp;&nbsp;&nbsp;&nbsp;&nbsp;&nbsp;&nbsp;2&nbsp;&nbsp;&nbsp;&nbsp;&nbsp;&nbsp;&nbsp;&nbsp;&nbsp;&nbsp;&nbsp;&nbsp;&nbsp;&nbsp;&nbsp;&nbsp;&nbsp;&nbsp;&nbsp;3&nbsp;&nbsp;&nbsp;&nbsp;&nbsp;&nbsp;&nbsp;&nbsp;&nbsp;&nbsp;&nbsp;&nbsp;&nbsp;&nbsp;&nbsp;&nbsp;&nbsp;&nbsp;&nbsp;4</p><p style=""font-size:14px"">Not at all familiar&nbsp;&nbsp;&nbsp;&nbsp;A little familiar&nbsp;&nbsp;&nbsp;Moderately familiar&nbsp;&nbsp;&nbsp;Extremely familiar</p><p>(press the corresponding number on your keyboard)</p>","","52","","","FAM-RESPONSE","","","","","","","","sounds/A/FAM/P003.mp3","partword","","","","","","","","","","","","","","","","","","","",""
"html-keyboard-response","223","1339052","0.0-7.0-1.0-0.1","1","0","rcm9hmcl85vhjqr","","null","","","","null","","","","","","","","","","","","","","","","","","","","","","","","","","","","","","","",""
"audio-keyboard-response","224","1339996","0.0-7.0-1.0-1.1","1","0","rcm9hmcl85vhjqr","","null","","sounds/A/FAM/P004.mp3","","null","","","","","","","","","","","","","","","","","","","","","","","","","","","","","","","",""
"html-keyboard-response","225","1341612","0.0-7.0-1.0-2.1","1","0","rcm9hmcl85vhjqr","","1113.7000000476837","","<p>How familiar did this sound to you?</p><p>1&nbsp;&nbsp;&nbsp;&nbsp;&nbsp;&nbsp;&nbsp;&nbsp;&nbsp;&nbsp;&nbsp;&nbsp;&nbsp;&nbsp;&nbsp;&nbsp;&nbsp;&nbsp;&nbsp;2&nbsp;&nbsp;&nbsp;&nbsp;&nbsp;&nbsp;&nbsp;&nbsp;&nbsp;&nbsp;&nbsp;&nbsp;&nbsp;&nbsp;&nbsp;&nbsp;&nbsp;&nbsp;&nbsp;3&nbsp;&nbsp;&nbsp;&nbsp;&nbsp;&nbsp;&nbsp;&nbsp;&nbsp;&nbsp;&nbsp;&nbsp;&nbsp;&nbsp;&nbsp;&nbsp;&nbsp;&nbsp;&nbsp;4</p><p style=""font-size:14px"">Not at all familiar&nbsp;&nbsp;&nbsp;&nbsp;A little familiar&nbsp;&nbsp;&nbsp;Moderately familiar&nbsp;&nbsp;&nbsp;Extremely familiar</p><p>(press the corresponding number on your keyboard)</p>","","52","","","FAM-RESPONSE","","","","","","","","sounds/A/FAM/P004.mp3","partword","","","","","","","","","","","","","","","","","","","",""
"html-keyboard-response","226","1343623","0.0-7.0-1.0-0.2","1","0","rcm9hmcl85vhjqr","","null","","","","null","","","","","","","","","","","","","","","","","","","","","","","","","","","","","","","",""
"audio-keyboard-response","227","1344566","0.0-7.0-1.0-1.2","1","0","rcm9hmcl85vhjqr","","null","","sounds/A/FAM/N004.mp3","","null","","","","","","","","","","","","","","","","","","","","","","","","","","","","","","","",""
"html-keyboard-response","228","1346583","0.0-7.0-1.0-2.2","1","0","rcm9hmcl85vhjqr","","1514.0999999046326","","<p>How familiar did this sound to you?</p><p>1&nbsp;&nbsp;&nbsp;&nbsp;&nbsp;&nbsp;&nbsp;&nbsp;&nbsp;&nbsp;&nbsp;&nbsp;&nbsp;&nbsp;&nbsp;&nbsp;&nbsp;&nbsp;&nbsp;2&nbsp;&nbsp;&nbsp;&nbsp;&nbsp;&nbsp;&nbsp;&nbsp;&nbsp;&nbsp;&nbsp;&nbsp;&nbsp;&nbsp;&nbsp;&nbsp;&nbsp;&nbsp;&nbsp;3&nbsp;&nbsp;&nbsp;&nbsp;&nbsp;&nbsp;&nbsp;&nbsp;&nbsp;&nbsp;&nbsp;&nbsp;&nbsp;&nbsp;&nbsp;&nbsp;&nbsp;&nbsp;&nbsp;4</p><p style=""font-size:14px"">Not at all familiar&nbsp;&nbsp;&nbsp;&nbsp;A little familiar&nbsp;&nbsp;&nbsp;Moderately familiar&nbsp;&nbsp;&nbsp;Extremely familiar</p><p>(press the corresponding number on your keyboard)</p>","","51","","","FAM-RESPONSE","","","","","","","","sounds/A/FAM/N004.mp3","nonword","","","","","","","","","","","","","","","","","","","",""
"html-keyboard-response","229","1348588","0.0-7.0-1.0-0.3","1","0","rcm9hmcl85vhjqr","","null","","","","null","","","","","","","","","","","","","","","","","","","","","","","","","","","","","","","",""
"audio-keyboard-response","230","1349532","0.0-7.0-1.0-1.3","1","0","rcm9hmcl85vhjqr","","null","","sounds/A/FAM/W001.mp3","","null","","","","","","","","","","","","","","","","","","","","","","","","","","","","","","","",""
"html-keyboard-response","231","1351669","0.0-7.0-1.0-2.3","1","0","rcm9hmcl85vhjqr","","1634.9000000953674","","<p>How familiar did this sound to you?</p><p>1&nbsp;&nbsp;&nbsp;&nbsp;&nbsp;&nbsp;&nbsp;&nbsp;&nbsp;&nbsp;&nbsp;&nbsp;&nbsp;&nbsp;&nbsp;&nbsp;&nbsp;&nbsp;&nbsp;2&nbsp;&nbsp;&nbsp;&nbsp;&nbsp;&nbsp;&nbsp;&nbsp;&nbsp;&nbsp;&nbsp;&nbsp;&nbsp;&nbsp;&nbsp;&nbsp;&nbsp;&nbsp;&nbsp;3&nbsp;&nbsp;&nbsp;&nbsp;&nbsp;&nbsp;&nbsp;&nbsp;&nbsp;&nbsp;&nbsp;&nbsp;&nbsp;&nbsp;&nbsp;&nbsp;&nbsp;&nbsp;&nbsp;4</p><p style=""font-size:14px"">Not at all familiar&nbsp;&nbsp;&nbsp;&nbsp;A little familiar&nbsp;&nbsp;&nbsp;Moderately familiar&nbsp;&nbsp;&nbsp;Extremely familiar</p><p>(press the corresponding number on your keyboard)</p>","","52","","","FAM-RESPONSE","","","","","","","","sounds/A/FAM/W001.mp3","word","","","","","","","","","","","","","","","","","","","",""
"html-keyboard-response","232","1353676","0.0-7.0-1.0-0.4","1","0","rcm9hmcl85vhjqr","","null","","","","null","","","","","","","","","","","","","","","","","","","","","","","","","","","","","","","",""
"audio-keyboard-response","233","1354620","0.0-7.0-1.0-1.4","1","0","rcm9hmcl85vhjqr","","null","","sounds/A/FAM/N002.mp3","","null","","","","","","","","","","","","","","","","","","","","","","","","","","","","","","","",""
"html-keyboard-response","234","1356166","0.0-7.0-1.0-2.4","1","0","rcm9hmcl85vhjqr","","1041.7000000476837","","<p>How familiar did this sound to you?</p><p>1&nbsp;&nbsp;&nbsp;&nbsp;&nbsp;&nbsp;&nbsp;&nbsp;&nbsp;&nbsp;&nbsp;&nbsp;&nbsp;&nbsp;&nbsp;&nbsp;&nbsp;&nbsp;&nbsp;2&nbsp;&nbsp;&nbsp;&nbsp;&nbsp;&nbsp;&nbsp;&nbsp;&nbsp;&nbsp;&nbsp;&nbsp;&nbsp;&nbsp;&nbsp;&nbsp;&nbsp;&nbsp;&nbsp;3&nbsp;&nbsp;&nbsp;&nbsp;&nbsp;&nbsp;&nbsp;&nbsp;&nbsp;&nbsp;&nbsp;&nbsp;&nbsp;&nbsp;&nbsp;&nbsp;&nbsp;&nbsp;&nbsp;4</p><p style=""font-size:14px"">Not at all familiar&nbsp;&nbsp;&nbsp;&nbsp;A little familiar&nbsp;&nbsp;&nbsp;Moderately familiar&nbsp;&nbsp;&nbsp;Extremely familiar</p><p>(press the corresponding number on your keyboard)</p>","","52","","","FAM-RESPONSE","","","","","","","","sounds/A/FAM/N002.mp3","nonword","","","","","","","","","","","","","","","","","","","",""
"html-keyboard-response","235","1358176","0.0-7.0-1.0-0.5","1","0","rcm9hmcl85vhjqr","","null","","","","null","","","","","","","","","","","","","","","","","","","","","","","","","","","","","","","",""
"audio-keyboard-response","236","1359121","0.0-7.0-1.0-1.5","1","0","rcm9hmcl85vhjqr","","null","","sounds/A/FAM/W003.mp3","","null","","","","","","","","","","","","","","","","","","","","","","","","","","","","","","","",""
"html-keyboard-response","237","1360576","0.0-7.0-1.0-2.5","1","0","rcm9hmcl85vhjqr","","951.4000000953674","","<p>How familiar did this sound to you?</p><p>1&nbsp;&nbsp;&nbsp;&nbsp;&nbsp;&nbsp;&nbsp;&nbsp;&nbsp;&nbsp;&nbsp;&nbsp;&nbsp;&nbsp;&nbsp;&nbsp;&nbsp;&nbsp;&nbsp;2&nbsp;&nbsp;&nbsp;&nbsp;&nbsp;&nbsp;&nbsp;&nbsp;&nbsp;&nbsp;&nbsp;&nbsp;&nbsp;&nbsp;&nbsp;&nbsp;&nbsp;&nbsp;&nbsp;3&nbsp;&nbsp;&nbsp;&nbsp;&nbsp;&nbsp;&nbsp;&nbsp;&nbsp;&nbsp;&nbsp;&nbsp;&nbsp;&nbsp;&nbsp;&nbsp;&nbsp;&nbsp;&nbsp;4</p><p style=""font-size:14px"">Not at all familiar&nbsp;&nbsp;&nbsp;&nbsp;A little familiar&nbsp;&nbsp;&nbsp;Moderately familiar&nbsp;&nbsp;&nbsp;Extremely familiar</p><p>(press the corresponding number on your keyboard)</p>","","52","","","FAM-RESPONSE","","","","","","","","sounds/A/FAM/W003.mp3","word","","","","","","","","","","","","","","","","","","","",""
"html-keyboard-response","238","1362582","0.0-7.0-1.0-0.6","1","0","rcm9hmcl85vhjqr","","null","","","","null","","","","","","","","","","","","","","","","","","","","","","","","","","","","","","","",""
"audio-keyboard-response","239","1363526","0.0-7.0-1.0-1.6","1","0","rcm9hmcl85vhjqr","","null","","sounds/A/FAM/N003.mp3","","null","","","","","","","","","","","","","","","","","","","","","","","","","","","","","","","",""
"html-keyboard-response","240","1366109","0.0-7.0-1.0-2.6","1","0","rcm9hmcl85vhjqr","","2080.9000000953674","","<p>How familiar did this sound to you?</p><p>1&nbsp;&nbsp;&nbsp;&nbsp;&nbsp;&nbsp;&nbsp;&nbsp;&nbsp;&nbsp;&nbsp;&nbsp;&nbsp;&nbsp;&nbsp;&nbsp;&nbsp;&nbsp;&nbsp;2&nbsp;&nbsp;&nbsp;&nbsp;&nbsp;&nbsp;&nbsp;&nbsp;&nbsp;&nbsp;&nbsp;&nbsp;&nbsp;&nbsp;&nbsp;&nbsp;&nbsp;&nbsp;&nbsp;3&nbsp;&nbsp;&nbsp;&nbsp;&nbsp;&nbsp;&nbsp;&nbsp;&nbsp;&nbsp;&nbsp;&nbsp;&nbsp;&nbsp;&nbsp;&nbsp;&nbsp;&nbsp;&nbsp;4</p><p style=""font-size:14px"">Not at all familiar&nbsp;&nbsp;&nbsp;&nbsp;A little familiar&nbsp;&nbsp;&nbsp;Moderately familiar&nbsp;&nbsp;&nbsp;Extremely familiar</p><p>(press the corresponding number on your keyboard)</p>","","51","","","FAM-RESPONSE","","","","","","","","sounds/A/FAM/N003.mp3","nonword","","","","","","","","","","","","","","","","","","","",""
"html-keyboard-response","241","1368112","0.0-7.0-1.0-0.7","1","0","rcm9hmcl85vhjqr","","null","","","","null","","","","","","","","","","","","","","","","","","","","","","","","","","","","","","","",""
"audio-keyboard-response","242","1369057","0.0-7.0-1.0-1.7","1","0","rcm9hmcl85vhjqr","","null","","sounds/A/FAM/W004.mp3","","null","","","","","","","","","","","","","","","","","","","","","","","","","","","","","","","",""
"html-keyboard-response","243","1370037","0.0-7.0-1.0-2.7","1","0","rcm9hmcl85vhjqr","","478.7000000476837","","<p>How familiar did this sound to you?</p><p>1&nbsp;&nbsp;&nbsp;&nbsp;&nbsp;&nbsp;&nbsp;&nbsp;&nbsp;&nbsp;&nbsp;&nbsp;&nbsp;&nbsp;&nbsp;&nbsp;&nbsp;&nbsp;&nbsp;2&nbsp;&nbsp;&nbsp;&nbsp;&nbsp;&nbsp;&nbsp;&nbsp;&nbsp;&nbsp;&nbsp;&nbsp;&nbsp;&nbsp;&nbsp;&nbsp;&nbsp;&nbsp;&nbsp;3&nbsp;&nbsp;&nbsp;&nbsp;&nbsp;&nbsp;&nbsp;&nbsp;&nbsp;&nbsp;&nbsp;&nbsp;&nbsp;&nbsp;&nbsp;&nbsp;&nbsp;&nbsp;&nbsp;4</p><p style=""font-size:14px"">Not at all familiar&nbsp;&nbsp;&nbsp;&nbsp;A little familiar&nbsp;&nbsp;&nbsp;Moderately familiar&nbsp;&nbsp;&nbsp;Extremely familiar</p><p>(press the corresponding number on your keyboard)</p>","","52","","","FAM-RESPONSE","","","","","","","","sounds/A/FAM/W004.mp3","word","","","","","","","","","","","","","","","","","","","",""
"html-keyboard-response","244","1372042","0.0-7.0-1.0-0.8","1","0","rcm9hmcl85vhjqr","","null","","","","null","","","","","","","","","","","","","","","","","","","","","","","","","","","","","","","",""
"audio-keyboard-response","245","1372988","0.0-7.0-1.0-1.8","1","0","rcm9hmcl85vhjqr","","null","","sounds/A/FAM/N001.mp3","","null","","","","","","","","","","","","","","","","","","","","","","","","","","","","","","","",""
"html-keyboard-response","246","1375208","0.0-7.0-1.0-2.8","1","0","rcm9hmcl85vhjqr","","1716.2000000476837","","<p>How familiar did this sound to you?</p><p>1&nbsp;&nbsp;&nbsp;&nbsp;&nbsp;&nbsp;&nbsp;&nbsp;&nbsp;&nbsp;&nbsp;&nbsp;&nbsp;&nbsp;&nbsp;&nbsp;&nbsp;&nbsp;&nbsp;2&nbsp;&nbsp;&nbsp;&nbsp;&nbsp;&nbsp;&nbsp;&nbsp;&nbsp;&nbsp;&nbsp;&nbsp;&nbsp;&nbsp;&nbsp;&nbsp;&nbsp;&nbsp;&nbsp;3&nbsp;&nbsp;&nbsp;&nbsp;&nbsp;&nbsp;&nbsp;&nbsp;&nbsp;&nbsp;&nbsp;&nbsp;&nbsp;&nbsp;&nbsp;&nbsp;&nbsp;&nbsp;&nbsp;4</p><p style=""font-size:14px"">Not at all familiar&nbsp;&nbsp;&nbsp;&nbsp;A little familiar&nbsp;&nbsp;&nbsp;Moderately familiar&nbsp;&nbsp;&nbsp;Extremely familiar</p><p>(press the corresponding number on your keyboard)</p>","","52","","","FAM-RESPONSE","","","","","","","","sounds/A/FAM/N001.mp3","nonword","","","","","","","","","","","","","","","","","","","",""
"html-keyboard-response","247","1377211","0.0-7.0-1.0-0.9","1","0","rcm9hmcl85vhjqr","","null","","","","null","","","","","","","","","","","","","","","","","","","","","","","","","","","","","","","",""
"audio-keyboard-response","248","1378155","0.0-7.0-1.0-1.9","1","0","rcm9hmcl85vhjqr","","null","","sounds/A/FAM/P002.mp3","","null","","","","","","","","","","","","","","","","","","","","","","","","","","","","","","","",""
"html-keyboard-response","249","1381574","0.0-7.0-1.0-2.9","1","0","rcm9hmcl85vhjqr","","2917.0999999046326","","<p>How familiar did this sound to you?</p><p>1&nbsp;&nbsp;&nbsp;&nbsp;&nbsp;&nbsp;&nbsp;&nbsp;&nbsp;&nbsp;&nbsp;&nbsp;&nbsp;&nbsp;&nbsp;&nbsp;&nbsp;&nbsp;&nbsp;2&nbsp;&nbsp;&nbsp;&nbsp;&nbsp;&nbsp;&nbsp;&nbsp;&nbsp;&nbsp;&nbsp;&nbsp;&nbsp;&nbsp;&nbsp;&nbsp;&nbsp;&nbsp;&nbsp;3&nbsp;&nbsp;&nbsp;&nbsp;&nbsp;&nbsp;&nbsp;&nbsp;&nbsp;&nbsp;&nbsp;&nbsp;&nbsp;&nbsp;&nbsp;&nbsp;&nbsp;&nbsp;&nbsp;4</p><p style=""font-size:14px"">Not at all familiar&nbsp;&nbsp;&nbsp;&nbsp;A little familiar&nbsp;&nbsp;&nbsp;Moderately familiar&nbsp;&nbsp;&nbsp;Extremely familiar</p><p>(press the corresponding number on your keyboard)</p>","","51","","","FAM-RESPONSE","","","","","","","","sounds/A/FAM/P002.mp3","partword","","","","","","","","","","","","","","","","","","","",""
"html-keyboard-response","250","1383579","0.0-7.0-1.0-0.10","1","0","rcm9hmcl85vhjqr","","null","","","","null","","","","","","","","","","","","","","","","","","","","","","","","","","","","","","","",""
"audio-keyboard-response","251","1384524","0.0-7.0-1.0-1.10","1","0","rcm9hmcl85vhjqr","","null","","sounds/A/FAM/P001.mp3","","null","","","","","","","","","","","","","","","","","","","","","","","","","","","","","","","",""
"html-keyboard-response","252","1385458","0.0-7.0-1.0-2.10","1","0","rcm9hmcl85vhjqr","","428.2999999523163","","<p>How familiar did this sound to you?</p><p>1&nbsp;&nbsp;&nbsp;&nbsp;&nbsp;&nbsp;&nbsp;&nbsp;&nbsp;&nbsp;&nbsp;&nbsp;&nbsp;&nbsp;&nbsp;&nbsp;&nbsp;&nbsp;&nbsp;2&nbsp;&nbsp;&nbsp;&nbsp;&nbsp;&nbsp;&nbsp;&nbsp;&nbsp;&nbsp;&nbsp;&nbsp;&nbsp;&nbsp;&nbsp;&nbsp;&nbsp;&nbsp;&nbsp;3&nbsp;&nbsp;&nbsp;&nbsp;&nbsp;&nbsp;&nbsp;&nbsp;&nbsp;&nbsp;&nbsp;&nbsp;&nbsp;&nbsp;&nbsp;&nbsp;&nbsp;&nbsp;&nbsp;4</p><p style=""font-size:14px"">Not at all familiar&nbsp;&nbsp;&nbsp;&nbsp;A little familiar&nbsp;&nbsp;&nbsp;Moderately familiar&nbsp;&nbsp;&nbsp;Extremely familiar</p><p>(press the corresponding number on your keyboard)</p>","","52","","","FAM-RESPONSE","","","","","","","","sounds/A/FAM/P001.mp3","partword","","","","","","","","","","","","","","","","","","","",""
"html-keyboard-response","253","1387468","0.0-7.0-1.0-0.11","1","0","rcm9hmcl85vhjqr","","null","","","","null","","","","","","","","","","","","","","","","","","","","","","","","","","","","","","","",""
"audio-keyboard-response","254","1388411","0.0-7.0-1.0-1.11","1","0","rcm9hmcl85vhjqr","","null","","sounds/A/FAM/W002.mp3","","null","","","","","","","","","","","","","","","","","","","","","","","","","","","","","","","",""
"html-keyboard-response","255","1389259","0.0-7.0-1.0-2.11","1","0","rcm9hmcl85vhjqr","","340.59999990463257","","<p>How familiar did this sound to you?</p><p>1&nbsp;&nbsp;&nbsp;&nbsp;&nbsp;&nbsp;&nbsp;&nbsp;&nbsp;&nbsp;&nbsp;&nbsp;&nbsp;&nbsp;&nbsp;&nbsp;&nbsp;&nbsp;&nbsp;2&nbsp;&nbsp;&nbsp;&nbsp;&nbsp;&nbsp;&nbsp;&nbsp;&nbsp;&nbsp;&nbsp;&nbsp;&nbsp;&nbsp;&nbsp;&nbsp;&nbsp;&nbsp;&nbsp;3&nbsp;&nbsp;&nbsp;&nbsp;&nbsp;&nbsp;&nbsp;&nbsp;&nbsp;&nbsp;&nbsp;&nbsp;&nbsp;&nbsp;&nbsp;&nbsp;&nbsp;&nbsp;&nbsp;4</p><p style=""font-size:14px"">Not at all familiar&nbsp;&nbsp;&nbsp;&nbsp;A little familiar&nbsp;&nbsp;&nbsp;Moderately familiar&nbsp;&nbsp;&nbsp;Extremely familiar</p><p>(press the corresponding number on your keyboard)</p>","","52","","","FAM-RESPONSE","","","","","","","","sounds/A/FAM/W002.mp3","word","","","","","","","","","","","","","","","","","","","",""
"html-button-response","256","1407600","0.0-8.0-0.0","1","0","rcm9hmcl85vhjqr","","17338.700000047684","","<p>You will now listen to longer sound sequences.</p><p>Each sound sequence will last about 16 seconds.</p><p>On each trial, you will be given a <u>TARGET SOUND</u>. Your task is to listen very carefully for this sound.</p><p>Every time you hear the <u>TARGET SOUND</u>, you will press the <b>SPACEBAR</b> as quickly and accurately as you can.</p>","0","","","","","","","","","","","","","","","","","","","","","","","","","","","","","","","","",""
"html-button-response","257","1420948","0.0-8.0-1.0","1","0","rcm9hmcl85vhjqr","","13091.299999952316","","<p>It is very important that you make your responses as quickly and accurately as possible.</p><p>To help you make your responses, you will be able to listen to the <u>TARGET SOUND</u> at the beginning of each trial.</p><p>There will be 36 total trials.</p><p><b>Note: This is meant to be a difficult task. We simply want you to try your best.</p>","0","","","","","","","","","","","","","","","","","","","","","","","","","","","","","","","","",""
"html-button-response","258","1423665","0.0-8.0-2.0-0.0","1","0","rcm9hmcl85vhjqr","","2457.9000000953674","","<p>Trial 1 of 36</p>","0","","","","","","","","","","","","","","TI","sounds/syllables/ti_SWS.wav","3000,8400,11100,12900","2","","","","","","","","","","","","","","","",""
"html-keyboard-response","259","1427141","0.0-8.0-2.0-1.0","1","0","rcm9hmcl85vhjqr","","3474.9000000953674","","","","80","","","","","","","","","","","","","TI","","3000,8400,11100,12900","2","","","","","","","","","","","","","","","",""
"audio-keyboard-response","260","1427491","0.0-8.0-2.0-2.0-0.0","1","0","rcm9hmcl85vhjqr","","null","","sounds/syllables/ti_SWS.wav","","null","","","","","","","","","","","","","","","","","","","","","","","","","","","","","","","",""
"html-keyboard-response","261","1431201","0.0-8.0-2.0-2.0-1.0","1","0","rcm9hmcl85vhjqr","","3708.899999856949","","<p>To replay the <u>TARGET SOUND</u>, press P.</p> When you are ready to begin, press SPACEBAR.","","80","","","","","","","","","","","","","","","","","","","","","","","","","","","","","","","",""
"audio-keyboard-response","262","1432008","0.0-8.0-2.0-2.1-0.1","1","0","rcm9hmcl85vhjqr","","null","","sounds/syllables/ti_SWS.wav","","null","","","","","","","","","","","","","","","","","","","","","","","","","","","","","","","",""
"html-keyboard-response","263","1433278","0.0-8.0-2.0-2.1-1.1","1","0","rcm9hmcl85vhjqr","","1268.4000000953674","","<p>To replay the <u>TARGET SOUND</u>, press P.</p> When you are ready to begin, press SPACEBAR.","","32","","","","","","","","","","","","","","","","","","","","","","","","","","","","","","","",""
"audio-keyboard-response","264","1448227","0.0-8.0-2.0-3.0","1","0","rcm9hmcl85vhjqr","","3403","","sounds/A/TD/TI_02_TD.mp3","","32","","","TD_SUMMARY","","","","","","","","","","TI","","3000,8400,11100,12900","2","3000","8400","11100","12900","944.2999999523163","366.39999985694885","null","538.0999999046326","3405_3944.2999999523163_5402.199999809265_6518.899999856949_7491.699999809265_8766.399999856949_9878.5_11059.799999952316_12675.5_13438.099999904633","2","","","","","",""
"html-button-response","265","1458148","0.0-8.0-2.0-0.1","1","0","rcm9hmcl85vhjqr","","9917.200000047684","","<p>Trial 2 of 36</p>","0","","","","","","","","","","","","","","PU","sounds/syllables/pu_SWS.wav","2100,4800,7500,10200","2","","","","","","","","","","","","","","","",""
"html-keyboard-response","266","1462337","0.0-8.0-2.0-1.1","1","0","rcm9hmcl85vhjqr","","4187.299999952316","","","","80","","","","","","","","","","","","","PU","","2100,4800,7500,10200","2","","","","","","","","","","","","","","","",""
"audio-keyboard-response","267","1462643","0.0-8.0-2.0-2.2-0.2","1","0","rcm9hmcl85vhjqr","","null","","sounds/syllables/pu_SWS.wav","","null","","","","","","","","","","","","","","","","","","","","","","","","","","","","","","","",""
"html-keyboard-response","268","1465663","0.0-8.0-2.0-2.2-1.2","1","0","rcm9hmcl85vhjqr","","3020.5","","<p>To replay the <u>TARGET SOUND</u>, press P.</p> When you are ready to begin, press SPACEBAR.","","80","","","","","","","","","","","","","","","","","","","","","","","","","","","","","","","",""
"audio-keyboard-response","269","1466467","0.0-8.0-2.0-2.3-0.3","1","0","rcm9hmcl85vhjqr","","null","","sounds/syllables/pu_SWS.wav","","null","","","","","","","","","","","","","","","","","","","","","","","","","","","","","","","",""
"html-keyboard-response","270","1467003","0.0-8.0-2.0-2.3-1.3","1","0","rcm9hmcl85vhjqr","","535.7999999523163","","<p>To replay the <u>TARGET SOUND</u>, press P.</p> When you are ready to begin, press SPACEBAR.","","32","","","","","","","","","","","","","","","","","","","","","","","","","","","","","","","",""
"audio-keyboard-response","271","1481955","0.0-8.0-2.0-3.1","1","0","rcm9hmcl85vhjqr","","2293","","sounds/A/TD/PU_10_TD.mp3","","32","","","TD_SUMMARY","","","","","","","","","","PU","","2100,4800,7500,10200","2","2100","4800","7500","10200","655.2999999523163","null","null","260.40000009536743","__________2294.4000000953674_2755.2999999523163_4931.099999904633_7634.099999904633_10460.400000095367","2","","","","","",""
"html-button-response","272","1484266","0.0-8.0-2.0-0.2","1","0","rcm9hmcl85vhjqr","","2307.899999856949","","<p>Trial 3 of 36</p>","0","","","","","","","","","","","","","","KO","sounds/syllables/ko_SWS.wav","3300,5100,8700,13200","3","","","","","","","","","","","","","","","",""
"html-keyboard-response","273","1488749","0.0-8.0-2.0-1.2","1","0","rcm9hmcl85vhjqr","","4482.099999904633","","","","80","","","","","","","","","","","","","KO","","3300,5100,8700,13200","3","","","","","","","","","","","","","","","",""
"audio-keyboard-response","274","1489053","0.0-8.0-2.0-2.4-0.4","1","0","rcm9hmcl85vhjqr","","null","","sounds/syllables/ko_SWS.wav","","null","","","","","","","","","","","","","","","","","","","","","","","","","","","","","","","",""
"html-keyboard-response","275","1489915","0.0-8.0-2.0-2.4-1.4","1","0","rcm9hmcl85vhjqr","","860.8999998569489","","<p>To replay the <u>TARGET SOUND</u>, press P.</p> When you are ready to begin, press SPACEBAR.","","80","","","","","","","","","","","","","","","","","","","","","","","","","","","","","","","",""
"audio-keyboard-response","276","1490723","0.0-8.0-2.0-2.5-0.5","1","0","rcm9hmcl85vhjqr","","null","","sounds/syllables/ko_SWS.wav","","null","","","","","","","","","","","","","","","","","","","","","","","","","","","","","","","",""
"html-keyboard-response","277","1491174","0.0-8.0-2.0-2.5-1.5","1","0","rcm9hmcl85vhjqr","","450.09999990463257","","<p>To replay the <u>TARGET SOUND</u>, press P.</p> When you are ready to begin, press SPACEBAR.","","32","","","","","","","","","","","","","","","","","","","","","","","","","","","","","","","",""
"audio-keyboard-response","278","1506126","0.0-8.0-2.0-3.2","1","0","rcm9hmcl85vhjqr","","3803","","sounds/A/TD/KO_09_TD.mp3","","32","","","TD_SUMMARY","","","","","","","","","","KO","","3300,5100,8700,13200","3","3300","5100","8700","13200","504.2999999523163","null","869.5","null","_______________3804.2999999523163_5146_6676.700000047684_7881.799999952316_9569.5_12503.700000047684","2","","","","","",""
"html-button-response","279","1510662","0.0-8.0-2.0-0.3","1","0","rcm9hmcl85vhjqr","","4533.399999856949","","<p>Trial 4 of 36</p>","0","","","","","","","","","","","","","","ME","sounds/syllables/me_SWS.wav","1500,4200,6000,8700","3","","","","","","","","","","","","","","","",""
"html-keyboard-response","280","1513823","0.0-8.0-2.0-1.3","1","0","rcm9hmcl85vhjqr","","3158.7999999523163","","","","80","","","","","","","","","","","","","ME","","1500,4200,6000,8700","3","","","","","","","","","","","","","","","",""
"audio-keyboard-response","281","1514125","0.0-8.0-2.0-2.6-0.6","1","0","rcm9hmcl85vhjqr","","null","","sounds/syllables/me_SWS.wav","","null","","","","","","","","","","","","","","","","","","","","","","","","","","","","","","","",""
"html-keyboard-response","282","1514824","0.0-8.0-2.0-2.6-1.6","1","0","rcm9hmcl85vhjqr","","697.8000001907349","","<p>To replay the <u>TARGET SOUND</u>, press P.</p> When you are ready to begin, press SPACEBAR.","","80","","","","","","","","","","","","","","","","","","","","","","","","","","","","","","","",""
"audio-keyboard-response","283","1515629","0.0-8.0-2.0-2.7-0.7","1","0","rcm9hmcl85vhjqr","","null","","sounds/syllables/me_SWS.wav","","null","","","","","","","","","","","","","","","","","","","","","","","","","","","","","","","",""
"html-keyboard-response","284","1516137","0.0-8.0-2.0-2.7-1.7","1","0","rcm9hmcl85vhjqr","","506.2000000476837","","<p>To replay the <u>TARGET SOUND</u>, press P.</p> When you are ready to begin, press SPACEBAR.","","32","","","","","","","","","","","","","","","","","","","","","","","","","","","","","","","",""
"audio-keyboard-response","285","1531085","0.0-8.0-2.0-3.3","1","0","rcm9hmcl85vhjqr","","1675","","sounds/A/TD/ME_05_TD.mp3","","32","","","TD_SUMMARY","","","","","","","","","","ME","","1500,4200,6000,8700","3","1500","4200","6000","8700","937.1000001430511","928.4000000953674","null","788.2000000476837","_____________________1678.6000001430511_2437.100000143051_3650.9000000953674_5128.400000095367_7269.400000095367_7945.200000047684_9488.200000047684_11038.900000095367_14419.900000095367","2","","","","","",""
"html-button-response","286","1532616","0.0-8.0-2.0-0.4","1","0","rcm9hmcl85vhjqr","","1527.5999999046326","","<p>Trial 5 of 36</p>","0","","","","","","","","","","","","","","RE","sounds/syllables/re_SWS.wav","900,5400,9900,12600","1","","","","","","","","","","","","","","","",""
"html-keyboard-response","287","1533341","0.0-8.0-2.0-1.4","1","0","rcm9hmcl85vhjqr","","723.2000000476837","","","","80","","","","","","","","","","","","","RE","","900,5400,9900,12600","1","","","","","","","","","","","","","","","",""
"audio-keyboard-response","288","1533645","0.0-8.0-2.0-2.8-0.8","1","0","rcm9hmcl85vhjqr","","null","","sounds/syllables/re_SWS.wav","","null","","","","","","","","","","","","","","","","","","","","","","","","","","","","","","","",""
"html-keyboard-response","289","1534335","0.0-8.0-2.0-2.8-1.8","1","0","rcm9hmcl85vhjqr","","689","","<p>To replay the <u>TARGET SOUND</u>, press P.</p> When you are ready to begin, press SPACEBAR.","","80","","","","","","","","","","","","","","","","","","","","","","","","","","","","","","","",""
"audio-keyboard-response","290","1535139","0.0-8.0-2.0-2.9-0.9","1","0","rcm9hmcl85vhjqr","","null","","sounds/syllables/re_SWS.wav","","null","","","","","","","","","","","","","","","","","","","","","","","","","","","","","","","",""
"html-keyboard-response","291","1535940","0.0-8.0-2.0-2.9-1.9","1","0","rcm9hmcl85vhjqr","","800","","<p>To replay the <u>TARGET SOUND</u>, press P.</p> When you are ready to begin, press SPACEBAR.","","80","","","","","","","","","","","","","","","","","","","","","","","","","","","","","","","",""
"audio-keyboard-response","292","1536744","0.0-8.0-2.0-2.10-0.10","1","0","rcm9hmcl85vhjqr","","null","","sounds/syllables/re_SWS.wav","","null","","","","","","","","","","","","","","","","","","","","","","","","","","","","","","","",""
"html-keyboard-response","293","1537153","0.0-8.0-2.0-2.10-1.10","1","0","rcm9hmcl85vhjqr","","407.7999999523163","","<p>To replay the <u>TARGET SOUND</u>, press P.</p> When you are ready to begin, press SPACEBAR.","","32","","","","","","","","","","","","","","","","","","","","","","","","","","","","","","","",""
"audio-keyboard-response","294","1552104","0.0-8.0-2.0-3.4","1","0","rcm9hmcl85vhjqr","","1749","","sounds/A/TD/RE_03_TD.mp3","","32","","","TD_SUMMARY","","","","","","","","","","RE","","900,5400,9900,12600","1","900","5400","9900","12600","854.5","null","485.7000000476837","1153.7999999523163","______________________________1754.5_2185.600000143051_3712.7999999523163_6631.299999952316_10385.700000047684_11327.5_13753.799999952316","3","","","","","",""
"html-button-response","295","1575228","0.0-8.0-2.0-0.5","1","0","rcm9hmcl85vhjqr","","23121.700000047684","","<p>Trial 6 of 36</p>","0","","","","","","","","","","","","","","TA","sounds/syllables/ta_SWS.wav","5400,7200,9000,12600","1","","","","","","","","","","","","","","","",""
"html-keyboard-response","296","1587386","0.0-8.0-2.0-1.5","1","0","rcm9hmcl85vhjqr","","12156.600000143051","","","","80","","","","","","","","","","","","","TA","","5400,7200,9000,12600","1","","","","","","","","","","","","","","","",""
"audio-keyboard-response","297","1587731","0.0-8.0-2.0-2.11-0.11","1","0","rcm9hmcl85vhjqr","","null","","sounds/syllables/ta_SWS.wav","","null","","","","","","","","","","","","","","","","","","","","","","","","","","","","","","","",""
"html-keyboard-response","298","1588726","0.0-8.0-2.0-2.11-1.11","1","0","rcm9hmcl85vhjqr","","994.0999999046326","","<p>To replay the <u>TARGET SOUND</u>, press P.</p> When you are ready to begin, press SPACEBAR.","","80","","","","","","","","","","","","","","","","","","","","","","","","","","","","","","","",""
"audio-keyboard-response","299","1589534","0.0-8.0-2.0-2.12-0.12","1","0","rcm9hmcl85vhjqr","","null","","sounds/syllables/ta_SWS.wav","","null","","","","","","","","","","","","","","","","","","","","","","","","","","","","","","","",""
"html-keyboard-response","300","1590355","0.0-8.0-2.0-2.12-1.12","1","0","rcm9hmcl85vhjqr","","820","","<p>To replay the <u>TARGET SOUND</u>, press P.</p> When you are ready to begin, press SPACEBAR.","","32","","","","","","","","","","","","","","","","","","","","","","","","","","","","","","","",""
"audio-keyboard-response","301","1605305","0.0-8.0-2.0-3.5","1","0","rcm9hmcl85vhjqr","","859","","sounds/A/TD/TA_09_TD.mp3","","32","","","TD_SUMMARY","","","","","","","","","","TA","","5400,7200,9000,12600","1","5400","7200","9000","12600","542.2999999523163","404.2999999523163","289.19999980926514","null","_____________________________________862.5_2658.2999999523163_3427.199999809265_5391.5_5942.299999952316_7009.699999809265_7604.299999952316_9289.199999809265_10936.299999952316_11389.399999856949","2","","","","","",""
"html-button-response","302","1614566","0.0-8.0-2.0-0.6","1","0","rcm9hmcl85vhjqr","","9258.099999904633","","<p>Trial 7 of 36</p>","0","","","","","","","","","","","","","","RU","sounds/syllables/ru_SWS.wav","2700,6300,9000,11700","1","","","","","","","","","","","","","","","",""
"html-keyboard-response","303","1616483","0.0-8.0-2.0-1.6","1","0","rcm9hmcl85vhjqr","","1915.6000001430511","","","","80","","","","","","","","","","","","","RU","","2700,6300,9000,11700","1","","","","","","","","","","","","","","","",""
"audio-keyboard-response","304","1616787","0.0-8.0-2.0-2.13-0.13","1","0","rcm9hmcl85vhjqr","","null","","sounds/syllables/ru_SWS.wav","","null","","","","","","","","","","","","","","","","","","","","","","","","","","","","","","","",""
"html-keyboard-response","305","1617610","0.0-8.0-2.0-2.13-1.13","1","0","rcm9hmcl85vhjqr","","822.9000000953674","","<p>To replay the <u>TARGET SOUND</u>, press P.</p> When you are ready to begin, press SPACEBAR.","","80","","","","","","","","","","","","","","","","","","","","","","","","","","","","","","","",""
"audio-keyboard-response","306","1618414","0.0-8.0-2.0-2.14-0.14","1","0","rcm9hmcl85vhjqr","","null","","sounds/syllables/ru_SWS.wav","","null","","","","","","","","","","","","","","","","","","","","","","","","","","","","","","","",""
"html-keyboard-response","307","1618918","0.0-8.0-2.0-2.14-1.14","1","0","rcm9hmcl85vhjqr","","503.09999990463257","","<p>To replay the <u>TARGET SOUND</u>, press P.</p> When you are ready to begin, press SPACEBAR.","","32","","","","","","","","","","","","","","","","","","","","","","","","","","","","","","","",""
"audio-keyboard-response","308","1633870","0.0-8.0-2.0-3.6","1","0","rcm9hmcl85vhjqr","","3248","","sounds/A/TD/RU_01_TD.mp3","","32","","","TD_SUMMARY","","","","","","","","","","RU","","2700,6300,9000,11700","1","2700","6300","9000","11700","551.0999999046326","432.5","541.2999999523163","406.19999980926514","_______________________________________________3251.0999999046326_6732.5_9541.299999952316_12106.199999809265_14302.299999952316","2","","","","","",""
"html-button-response","309","1645067","0.0-8.0-2.0-0.7","1","0","rcm9hmcl85vhjqr","","11193.299999952316","","<p>Trial 8 of 36</p>","0","","","","","","","","","","","","","","NI","sounds/syllables/ni_SWS.wav","3300,6900,10500,13200","3","","","","","","","","","","","","","","","",""
"html-keyboard-response","310","1646752","0.0-8.0-2.0-1.7","1","0","rcm9hmcl85vhjqr","","1683.3999998569489","","","","80","","","","","","","","","","","","","NI","","3300,6900,10500,13200","3","","","","","","","","","","","","","","","",""
"audio-keyboard-response","311","1647054","0.0-8.0-2.0-2.15-0.15","1","0","rcm9hmcl85vhjqr","","null","","sounds/syllables/ni_SWS.wav","","null","","","","","","","","","","","","","","","","","","","","","","","","","","","","","","","",""
"html-keyboard-response","312","1647827","0.0-8.0-2.0-2.15-1.15","1","0","rcm9hmcl85vhjqr","","772.7999999523163","","<p>To replay the <u>TARGET SOUND</u>, press P.</p> When you are ready to begin, press SPACEBAR.","","80","","","","","","","","","","","","","","","","","","","","","","","","","","","","","","","",""
"audio-keyboard-response","313","1648632","0.0-8.0-2.0-2.16-0.16","1","0","rcm9hmcl85vhjqr","","null","","sounds/syllables/ni_SWS.wav","","null","","","","","","","","","","","","","","","","","","","","","","","","","","","","","","","",""
"html-keyboard-response","314","1650303","0.0-8.0-2.0-2.16-1.16","1","0","rcm9hmcl85vhjqr","","1669.2999999523163","","<p>To replay the <u>TARGET SOUND</u>, press P.</p> When you are ready to begin, press SPACEBAR.","","80","","","","","","","","","","","","","","","","","","","","","","","","","","","","","","","",""
"audio-keyboard-response","315","1651107","0.0-8.0-2.0-2.17-0.17","1","0","rcm9hmcl85vhjqr","","null","","sounds/syllables/ni_SWS.wav","","null","","","","","","","","","","","","","","","","","","","","","","","","","","","","","","","",""
"html-keyboard-response","316","1658156","0.0-8.0-2.0-2.17-1.17","1","0","rcm9hmcl85vhjqr","","7047.699999809265","","<p>To replay the <u>TARGET SOUND</u>, press P.</p> When you are ready to begin, press SPACEBAR.","","80","","","","","","","","","","","","","","","","","","","","","","","","","","","","","","","",""
"audio-keyboard-response","317","1658957","0.0-8.0-2.0-2.18-0.18","1","0","rcm9hmcl85vhjqr","","null","","sounds/syllables/ni_SWS.wav","","null","","","","","","","","","","","","","","","","","","","","","","","","","","","","","","","",""
"html-keyboard-response","318","1659409","0.0-8.0-2.0-2.18-1.18","1","0","rcm9hmcl85vhjqr","","450.10000014305115","","<p>To replay the <u>TARGET SOUND</u>, press P.</p> When you are ready to begin, press SPACEBAR.","","32","","","","","","","","","","","","","","","","","","","","","","","","","","","","","","","",""
"audio-keyboard-response","319","1674361","0.0-8.0-2.0-3.7","1","0","rcm9hmcl85vhjqr","","2320","","sounds/A/TD/NI_07_TD.mp3","","32","","","TD_SUMMARY","","","","","","","","","","NI","","3300,6900,10500,13200","3","3300","6900","10500","13200","229.5","395","328.2999999523163","1013.2999999523163","____________________________________________________2320.4000000953674_3529.5_4720.200000047684_6111.299999952316_7295_9537.599999904633_10828.299999952316_11967.099999904633_13496.900000095367_14213.299999952316","4","","","","","",""
"html-button-response","320","1675425","0.0-8.0-2.0-0.8","1","0","rcm9hmcl85vhjqr","","1057.4000000953674","","<p>Trial 9 of 36</p>","0","","","","","","","","","","","","","","FU","sounds/syllables/fu_SWS.wav","3900,5700,7500,12000","2","","","","","","","","","","","","","","","",""
"html-keyboard-response","321","1709810","0.0-8.0-2.0-1.8","1","0","rcm9hmcl85vhjqr","","34383.40000009537","","","","80","","","","","","","","","","","","","FU","","3900,5700,7500,12000","2","","","","","","","","","","","","","","","",""
"audio-keyboard-response","322","1710160","0.0-8.0-2.0-2.19-0.19","1","0","rcm9hmcl85vhjqr","","null","","sounds/syllables/fu_SWS.wav","","null","","","","","","","","","","","","","","","","","","","","","","","","","","","","","","","",""
"html-keyboard-response","323","1710982","0.0-8.0-2.0-2.19-1.19","1","0","rcm9hmcl85vhjqr","","821.7000000476837","","<p>To replay the <u>TARGET SOUND</u>, press P.</p> When you are ready to begin, press SPACEBAR.","","80","","","","","","","","","","","","","","","","","","","","","","","","","","","","","","","",""
"audio-keyboard-response","324","1711787","0.0-8.0-2.0-2.20-0.20","1","0","rcm9hmcl85vhjqr","","null","","sounds/syllables/fu_SWS.wav","","null","","","","","","","","","","","","","","","","","","","","","","","","","","","","","","","",""
"html-keyboard-response","325","1712452","0.0-8.0-2.0-2.20-1.20","1","0","rcm9hmcl85vhjqr","","663.7000000476837","","<p>To replay the <u>TARGET SOUND</u>, press P.</p> When you are ready to begin, press SPACEBAR.","","80","","","","","","","","","","","","","","","","","","","","","","","","","","","","","","","",""
"audio-keyboard-response","326","1713253","0.0-8.0-2.0-2.21-0.21","1","0","rcm9hmcl85vhjqr","","null","","sounds/syllables/fu_SWS.wav","","null","","","","","","","","","","","","","","","","","","","","","","","","","","","","","","","",""
"html-keyboard-response","327","1714333","0.0-8.0-2.0-2.21-1.21","1","0","rcm9hmcl85vhjqr","","1078.6000001430511","","<p>To replay the <u>TARGET SOUND</u>, press P.</p> When you are ready to begin, press SPACEBAR.","","32","","","","","","","","","","","","","","","","","","","","","","","","","","","","","","","",""
"audio-keyboard-response","328","1729286","0.0-8.0-2.0-3.8","1","0","rcm9hmcl85vhjqr","","4309","","sounds/A/TD/FU_05_TD.mp3","","32","","","TD_SUMMARY","","","","","","","","","","FU","","3900,5700,7500,12000","2","3900","5700","7500","12000","412.5","null","872.4000000953674","null","______________________________________________________________4312.5_5125.400000095367_8372.400000095367_11510.700000047684_14012.100000143051","3","","","","","",""
"html-button-response","329","1730144","0.0-8.0-2.0-0.9","1","0","rcm9hmcl85vhjqr","","854.7000000476837","","<p>Trial 10 of 36</p>","0","","","","","","","","","","","","","","TI","sounds/syllables/ti_SWS.wav","3000,4800,8400,11100","2","","","","","","","","","","","","","","","",""
"html-keyboard-response","330","1732784","0.0-8.0-2.0-1.9","1","0","rcm9hmcl85vhjqr","","2638.2999999523163","","","","80","","","","","","","","","","","","","TI","","3000,4800,8400,11100","2","","","","","","","","","","","","","","","",""
"audio-keyboard-response","331","1733088","0.0-8.0-2.0-2.22-0.22","1","0","rcm9hmcl85vhjqr","","null","","sounds/syllables/ti_SWS.wav","","null","","","","","","","","","","","","","","","","","","","","","","","","","","","","","","","",""
"html-keyboard-response","332","1734515","0.0-8.0-2.0-2.22-1.22","1","0","rcm9hmcl85vhjqr","","1425.7999999523163","","<p>To replay the <u>TARGET SOUND</u>, press P.</p> When you are ready to begin, press SPACEBAR.","","80","","","","","","","","","","","","","","","","","","","","","","","","","","","","","","","",""
"audio-keyboard-response","333","1735317","0.0-8.0-2.0-2.23-0.23","1","0","rcm9hmcl85vhjqr","","null","","sounds/syllables/ti_SWS.wav","","null","","","","","","","","","","","","","","","","","","","","","","","","","","","","","","","",""
"html-keyboard-response","334","1736528","0.0-8.0-2.0-2.23-1.23","1","0","rcm9hmcl85vhjqr","","1209.3999998569489","","<p>To replay the <u>TARGET SOUND</u>, press P.</p> When you are ready to begin, press SPACEBAR.","","32","","","","","","","","","","","","","","","","","","","","","","","","","","","","","","","",""
"audio-keyboard-response","335","1751483","0.0-8.0-2.0-3.9","1","0","rcm9hmcl85vhjqr","","955","","sounds/A/TD/TI_08_TD.mp3","","32","","","TD_SUMMARY","","","","","","","","","","TI","","3000,4800,8400,11100","2","3000","4800","8400","11100","405.5","530.3999998569489","640.5999999046326","492.39999985694885","___________________________________________________________________956.5999999046326_3405.5_5330.399999856949_6513.700000047684_8330.399999856949_9040.599999904633_10256.700000047684_11592.399999856949_13580.5","2","","","","","",""
"html-button-response","336","1753103","0.0-8.0-2.0-0.10","1","0","rcm9hmcl85vhjqr","","1616.4000000953674","","<p>Trial 11 of 36</p>","0","","","","","","","","","","","","","","KO","sounds/syllables/ko_SWS.wav","5100,7800,10500,13200","3","","","","","","","","","","","","","","","",""
