"trial_type","trial_index","time_elapsed","internal_node_id","counterbalance","lang_instruct","ParticipantID","view_history","rt","url","stimulus","button_pressed","key_press","correctRESP","correct","designation","location","correctanswer","responses","sentence","keywords","typed_resp","keyword1_acc","keyword2_acc","keyword3_acc","keyword4_acc","keyword5_acc","total_acc","prop_acc","timeouts","pause_rt01","pause_rt02","train_file","numKeyPress","sound","fam_type","SYLLABLE","EXEMPLAR","TD_LOCS","TD_TYPE","TDLOC_01","TDLOC_02","TDLOC_03","TDLOC_04","TD_RT_01","TD_RT_02","TD_RT_03","TD_RT_04","TD_SUBJ_RTs","number_of_plays","slider_start","response","question_order","syllable","syllable_type"
"pavlovia","0","7","0.0-0.0","1","1","tl4mcw5b78391x9","","","","","","","","","","","","","","","","","","","","","","","","","","","","","","","","","","","","","","","","","","","","","","","",""
"instructions","1","24455","0.0-1.0","1","1","tl4mcw5b78391x9","[{""page_index"":0,""viewing_time"":8197.90000000596},{""page_index"":1,""viewing_time"":16245.299999982119}]","24446.79999998212","","","","","","","","","","","","","","","","","","","","","","","","","","","","","","","","","","","","","","","","","","","","","",""
"external-html","2","29742","0.0-2.0","1","1","tl4mcw5b78391x9","","5078","consent/consent.html","","","","","","","","","","","","","","","","","","","","","","","","","","","","","","","","","","","","","","","","","","","","",""
"html-button-response","3","111612","0.0-3.0-0.0-0.0","1","1","tl4mcw5b78391x9","","81869.09999999404","","<p>Welcome to the study. You will first complete a short volume calibration and headphone check.</p><p>Please make sure you are in a quiet listening environment, that you are wearing headphones, and that your computer's volume is turned on.<p></p>","0","","","","","","","","","","","","","","","","","","","","","","","","","","","","","","","","","","","","","","","","","","",""
"html-button-response","4","115101","0.0-3.0-0.0-1.0","1","1","tl4mcw5b78391x9","","3224.199999988079","","<p>The volume calibration will be first.</p><p>You will hear a thirty-second noise. Please adjust your computer's volume so that this noise is being presented at a comfortable level.<p></p>","0","","","","","","","","","","","","","","","","","","","","","","","","","","","","","","","","","","","","","","","","","","",""
"audio-button-response","5","120676","0.0-3.0-0.0-2.0","1","1","tl4mcw5b78391x9","","4680","","audCalib/volumetest.mp3","0","","","","","","","","","","","","","","","","","","","","","","","","","","","","","","","","","","","","","","","","","","",""
"html-button-response","6","143661","0.0-3.0-1.0-0.0","1","1","tl4mcw5b78391x9","","22982.600000023842","","<p>You will now complete a short headphone check.</p><p>On each trial, you will hear three tones. One of these tones will be quieter than the others. Your task is to identify whether the quiet tone occured first, second, or third.</p><p>There are six trials in total.<p></p>","0","","","","","","","","","","","","","","","","","","","","","","","","","","","","","","","","","","","","","","","","","","",""
"html-keyboard-response","7","144423","0.0-3.0-1.0-1.0-0.0","1","1","tl4mcw5b78391x9","","null","","<div style=""font-size:60px;"">+</div>","","null","","","","","","","","","","","","","","","","","","","","","","","","","","","","","","","","","","","","","","","","","",""
"audio-button-response","8","153856","0.0-3.0-1.0-1.0-1.0","1","1","tl4mcw5b78391x9","","9432","","audCalib/t1_1.mp3","0","","0","1","headphone-test","","","","","","","","","","","","","","","","","","","","","","","","","","","","","","","","","","","","","","",""
"html-keyboard-response","9","154624","0.0-3.0-1.0-1.0-0.1","1","1","tl4mcw5b78391x9","","null","","<div style=""font-size:60px;"">+</div>","","null","","","","","","","","","","","","","","","","","","","","","","","","","","","","","","","","","","","","","","","","","",""
"audio-button-response","10","159276","0.0-3.0-1.0-1.0-1.1","1","1","tl4mcw5b78391x9","","4651","","audCalib/t2_2.mp3","1","","1","1","headphone-test","","","","","","","","","","","","","","","","","","","","","","","","","","","","","","","","","","","","","","",""
"html-keyboard-response","11","160043","0.0-3.0-1.0-1.0-0.2","1","1","tl4mcw5b78391x9","","null","","<div style=""font-size:60px;"">+</div>","","null","","","","","","","","","","","","","","","","","","","","","","","","","","","","","","","","","","","","","","","","","",""
"audio-button-response","12","164495","0.0-3.0-1.0-1.0-1.2","1","1","tl4mcw5b78391x9","","4451","","audCalib/t3_1.mp3","2","","2","1","headphone-test","","","","","","","","","","","","","","","","","","","","","","","","","","","","","","","","","","","","","","",""
"html-keyboard-response","13","165260","0.0-3.0-1.0-1.0-0.3","1","1","tl4mcw5b78391x9","","null","","<div style=""font-size:60px;"">+</div>","","null","","","","","","","","","","","","","","","","","","","","","","","","","","","","","","","","","","","","","","","","","",""
"audio-button-response","14","169489","0.0-3.0-1.0-1.0-1.3","1","1","tl4mcw5b78391x9","","4229","","audCalib/t1_2.mp3","0","","0","1","headphone-test","","","","","","","","","","","","","","","","","","","","","","","","","","","","","","","","","","","","","","",""
"html-keyboard-response","15","170267","0.0-3.0-1.0-1.0-0.4","1","1","tl4mcw5b78391x9","","null","","<div style=""font-size:60px;"">+</div>","","null","","","","","","","","","","","","","","","","","","","","","","","","","","","","","","","","","","","","","","","","","",""
"audio-button-response","16","175108","0.0-3.0-1.0-1.0-1.4","1","1","tl4mcw5b78391x9","","4840","","audCalib/t3_2.mp3","2","","2","1","headphone-test","","","","","","","","","","","","","","","","","","","","","","","","","","","","","","","","","","","","","","",""
"html-keyboard-response","17","175867","0.0-3.0-1.0-1.0-0.5","1","1","tl4mcw5b78391x9","","null","","<div style=""font-size:60px;"">+</div>","","null","","","","","","","","","","","","","","","","","","","","","","","","","","","","","","","","","","","","","","","","","",""
"audio-button-response","18","182166","0.0-3.0-1.0-1.0-1.5","1","1","tl4mcw5b78391x9","","6291","","audCalib/t2_1.mp3","1","","1","1","headphone-test","","","","","","","","","","","","","","","","","","","","","","","","","","","","","","","","","","","","","","",""
"html-button-response","19","184116","0.0-3.0-2.0","1","1","tl4mcw5b78391x9","","1693.4000000059605","","<p>The volume calibration and headphone check are now complete.</p>","0","","","","","","","","","","","","","","","","","","","","","","","","","","","","","","","","","","","","","","","","","","",""
"instructions","20","199370","0.0-4.0-0.0","1","1","tl4mcw5b78391x9","[{""page_index"":0,""viewing_time"":1770.300000011921},{""page_index"":1,""viewing_time"":11615.199999988079},{""page_index"":2,""viewing_time"":1866.800000011921}]","15252.699999988079","","","","","","","","","","","","","","","","","","","","","","","","","","","","","","","","","","","","","","","","","","","","","",""
"audio-keyboard-response","21","199676","0.0-4.0-1.0-0.0","1","1","tl4mcw5b78391x9","","null","","sounds/induction/left/fu_SWS.wav","","null","","","","","","","","","","","","","","","","","","","","","","","","","","","","","","","","","","","","","","","","","",""
"html-button-response","22","202823","0.0-4.0-1.0-1.0","1","1","tl4mcw5b78391x9","","3145.0999999940395","","What sound did you hear?","0","","","0","INDUCTION-JUDGMENT","left","1","","","","","","","","","","","","","","","","","","","","","","","","","","","","","","","","","","","","",""
"html-keyboard-response","23","203832","0.0-4.0-1.0-2.0","1","1","tl4mcw5b78391x9","","null","","<p style=""color:red;""><b>Incorrect!</b></p>","","null","","","","","","","","","","","","","","","","","","","","","","","","","","","","","","","","","","","","","","","","","",""
"audio-keyboard-response","24","204646","0.0-4.0-1.0-0.1","1","1","tl4mcw5b78391x9","","null","","sounds/induction/left/ru_SWS.wav","","null","","","","","","","","","","","","","","","","","","","","","","","","","","","","","","","","","","","","","","","","","",""
"html-button-response","25","206050","0.0-4.0-1.0-1.1","1","1","tl4mcw5b78391x9","","1402.0999999940395","","What sound did you hear?","0","","","1","INDUCTION-JUDGMENT","left","0","","","","","","","","","","","","","","","","","","","","","","","","","","","","","","","","","","","","",""
"html-keyboard-response","26","207062","0.0-4.0-1.0-2.1","1","1","tl4mcw5b78391x9","","null","","<p style=""color:green;""><b>Correct!</b></p>","","null","","","","","","","","","","","","","","","","","","","","","","","","","","","","","","","","","","","","","","","","","",""
"audio-keyboard-response","27","207857","0.0-4.0-1.0-0.2","1","1","tl4mcw5b78391x9","","null","","sounds/induction/right/ko_SWS.wav","","null","","","","","","","","","","","","","","","","","","","","","","","","","","","","","","","","","","","","","","","","","",""
"html-button-response","28","210458","0.0-4.0-1.0-1.2","1","1","tl4mcw5b78391x9","","2599.5999999940395","","What sound did you hear?","1","","","0","INDUCTION-JUDGMENT","right","0","","","","","","","","","","","","","","","","","","","","","","","","","","","","","","","","","","","","",""
"html-keyboard-response","29","211466","0.0-4.0-1.0-2.2","1","1","tl4mcw5b78391x9","","null","","<p style=""color:red;""><b>Incorrect!</b></p>","","null","","","","","","","","","","","","","","","","","","","","","","","","","","","","","","","","","","","","","","","","","",""
"audio-keyboard-response","30","212277","0.0-4.0-1.0-0.3","1","1","tl4mcw5b78391x9","","null","","sounds/induction/right/su_SWS.wav","","null","","","","","","","","","","","","","","","","","","","","","","","","","","","","","","","","","","","","","","","","","",""
"html-button-response","31","215238","0.0-4.0-1.0-1.3","1","1","tl4mcw5b78391x9","","2959.699999988079","","What sound did you hear?","1","","","1","INDUCTION-JUDGMENT","right","1","","","","","","","","","","","","","","","","","","","","","","","","","","","","","","","","","","","","",""
"html-keyboard-response","32","216246","0.0-4.0-1.0-2.3","1","1","tl4mcw5b78391x9","","null","","<p style=""color:green;""><b>Correct!</b></p>","","null","","","","","","","","","","","","","","","","","","","","","","","","","","","","","","","","","","","","","","","","","",""
"audio-keyboard-response","33","217046","0.0-4.0-1.0-0.4","1","1","tl4mcw5b78391x9","","null","","sounds/induction/left/ta_SWS.wav","","null","","","","","","","","","","","","","","","","","","","","","","","","","","","","","","","","","","","","","","","","","",""
"html-button-response","34","218822","0.0-4.0-1.0-1.4","1","1","tl4mcw5b78391x9","","1774.2000000178814","","What sound did you hear?","0","","","1","INDUCTION-JUDGMENT","left","0","","","","","","","","","","","","","","","","","","","","","","","","","","","","","","","","","","","","",""
"html-keyboard-response","35","219833","0.0-4.0-1.0-2.4","1","1","tl4mcw5b78391x9","","null","","<p style=""color:green;""><b>Correct!</b></p>","","null","","","","","","","","","","","","","","","","","","","","","","","","","","","","","","","","","","","","","","","","","",""
"audio-keyboard-response","36","220646","0.0-4.0-1.0-0.5","1","1","tl4mcw5b78391x9","","null","","sounds/induction/right/fe_SWS.wav","","null","","","","","","","","","","","","","","","","","","","","","","","","","","","","","","","","","","","","","","","","","",""
"html-button-response","37","222088","0.0-4.0-1.0-1.5","1","1","tl4mcw5b78391x9","","1440.2999999821186","","What sound did you hear?","0","","","1","INDUCTION-JUDGMENT","right","0","","","","","","","","","","","","","","","","","","","","","","","","","","","","","","","","","","","","",""
"html-keyboard-response","38","223090","0.0-4.0-1.0-2.5","1","1","tl4mcw5b78391x9","","null","","<p style=""color:green;""><b>Correct!</b></p>","","null","","","","","","","","","","","","","","","","","","","","","","","","","","","","","","","","","","","","","","","","","",""
"audio-keyboard-response","39","223896","0.0-4.0-1.0-0.6","1","1","tl4mcw5b78391x9","","null","","sounds/induction/right/su_SWS.wav","","null","","","","","","","","","","","","","","","","","","","","","","","","","","","","","","","","","","","","","","","","","",""
"html-button-response","40","226903","0.0-4.0-1.0-1.6","1","1","tl4mcw5b78391x9","","3007.5","","What sound did you hear?","1","","","1","INDUCTION-JUDGMENT","right","1","","","","","","","","","","","","","","","","","","","","","","","","","","","","","","","","","","","","",""
"html-keyboard-response","41","227913","0.0-4.0-1.0-2.6","1","1","tl4mcw5b78391x9","","null","","<p style=""color:green;""><b>Correct!</b></p>","","null","","","","","","","","","","","","","","","","","","","","","","","","","","","","","","","","","","","","","","","","","",""
"audio-keyboard-response","42","228724","0.0-4.0-1.0-0.7","1","1","tl4mcw5b78391x9","","null","","sounds/induction/left/fe_SWS.wav","","null","","","","","","","","","","","","","","","","","","","","","","","","","","","","","","","","","","","","","","","","","",""
"html-button-response","43","230428","0.0-4.0-1.0-1.7","1","1","tl4mcw5b78391x9","","1703.199999988079","","What sound did you hear?","0","","","0","INDUCTION-JUDGMENT","left","1","","","","","","","","","","","","","","","","","","","","","","","","","","","","","","","","","","","","",""
"html-keyboard-response","44","231432","0.0-4.0-1.0-2.7","1","1","tl4mcw5b78391x9","","null","","<p style=""color:red;""><b>Incorrect!</b></p>","","null","","","","","","","","","","","","","","","","","","","","","","","","","","","","","","","","","","","","","","","","","",""
"audio-keyboard-response","45","232244","0.0-4.0-1.0-0.8","1","1","tl4mcw5b78391x9","","null","","sounds/induction/left/su_SWS.wav","","null","","","","","","","","","","","","","","","","","","","","","","","","","","","","","","","","","","","","","","","","","",""
"html-button-response","46","234205","0.0-4.0-1.0-1.8","1","1","tl4mcw5b78391x9","","1959.7999999821186","","What sound did you hear?","1","","","0","INDUCTION-JUDGMENT","left","0","","","","","","","","","","","","","","","","","","","","","","","","","","","","","","","","","","","","",""
"html-keyboard-response","47","235209","0.0-4.0-1.0-2.8","1","1","tl4mcw5b78391x9","","null","","<p style=""color:red;""><b>Incorrect!</b></p>","","null","","","","","","","","","","","","","","","","","","","","","","","","","","","","","","","","","","","","","","","","","",""
"audio-keyboard-response","48","236004","0.0-4.0-1.0-0.9","1","1","tl4mcw5b78391x9","","null","","sounds/induction/right/fe_SWS.wav","","null","","","","","","","","","","","","","","","","","","","","","","","","","","","","","","","","","","","","","","","","","",""
"html-button-response","49","238076","0.0-4.0-1.0-1.9","1","1","tl4mcw5b78391x9","","2070.5999999940395","","What sound did you hear?","0","","","1","INDUCTION-JUDGMENT","right","0","","","","","","","","","","","","","","","","","","","","","","","","","","","","","","","","","","","","",""
"html-keyboard-response","50","239083","0.0-4.0-1.0-2.9","1","1","tl4mcw5b78391x9","","null","","<p style=""color:green;""><b>Correct!</b></p>","","null","","","","","","","","","","","","","","","","","","","","","","","","","","","","","","","","","","","","","","","","","",""
"audio-keyboard-response","51","239884","0.0-4.0-1.0-0.10","1","1","tl4mcw5b78391x9","","null","","sounds/induction/left/ko_SWS.wav","","null","","","","","","","","","","","","","","","","","","","","","","","","","","","","","","","","","","","","","","","","","",""
"html-button-response","52","242765","0.0-4.0-1.0-1.10","1","1","tl4mcw5b78391x9","","2880.2000000178814","","What sound did you hear?","1","","","1","INDUCTION-JUDGMENT","left","1","","","","","","","","","","","","","","","","","","","","","","","","","","","","","","","","","","","","",""
"html-keyboard-response","53","243783","0.0-4.0-1.0-2.10","1","1","tl4mcw5b78391x9","","null","","<p style=""color:green;""><b>Correct!</b></p>","","null","","","","","","","","","","","","","","","","","","","","","","","","","","","","","","","","","","","","","","","","","",""
"audio-keyboard-response","54","244594","0.0-4.0-1.0-0.11","1","1","tl4mcw5b78391x9","","null","","sounds/induction/right/ge_SWS.wav","","null","","","","","","","","","","","","","","","","","","","","","","","","","","","","","","","","","","","","","","","","","",""
"html-button-response","55","246385","0.0-4.0-1.0-1.11","1","1","tl4mcw5b78391x9","","1789.9000000059605","","What sound did you hear?","0","","","1","INDUCTION-JUDGMENT","right","0","","","","","","","","","","","","","","","","","","","","","","","","","","","","","","","","","","","","",""
"html-keyboard-response","56","247393","0.0-4.0-1.0-2.11","1","1","tl4mcw5b78391x9","","null","","<p style=""color:green;""><b>Correct!</b></p>","","null","","","","","","","","","","","","","","","","","","","","","","","","","","","","","","","","","","","","","","","","","",""
"audio-keyboard-response","57","248205","0.0-4.0-1.0-0.12","1","1","tl4mcw5b78391x9","","null","","sounds/induction/right/ko_SWS.wav","","null","","","","","","","","","","","","","","","","","","","","","","","","","","","","","","","","","","","","","","","","","",""
"html-button-response","58","249562","0.0-4.0-1.0-1.12","1","1","tl4mcw5b78391x9","","1356.9000000059605","","What sound did you hear?","0","","","1","INDUCTION-JUDGMENT","right","0","","","","","","","","","","","","","","","","","","","","","","","","","","","","","","","","","","","","",""
"html-keyboard-response","59","250572","0.0-4.0-1.0-2.12","1","1","tl4mcw5b78391x9","","null","","<p style=""color:green;""><b>Correct!</b></p>","","null","","","","","","","","","","","","","","","","","","","","","","","","","","","","","","","","","","","","","","","","","",""
"audio-keyboard-response","60","251394","0.0-4.0-1.0-0.13","1","1","tl4mcw5b78391x9","","null","","sounds/induction/right/pu_SWS.wav","","null","","","","","","","","","","","","","","","","","","","","","","","","","","","","","","","","","","","","","","","","","",""
"html-button-response","61","253965","0.0-4.0-1.0-1.13","1","1","tl4mcw5b78391x9","","2569.600000023842","","What sound did you hear?","1","","","1","INDUCTION-JUDGMENT","right","1","","","","","","","","","","","","","","","","","","","","","","","","","","","","","","","","","","","","",""
"html-keyboard-response","62","254972","0.0-4.0-1.0-2.13","1","1","tl4mcw5b78391x9","","null","","<p style=""color:green;""><b>Correct!</b></p>","","null","","","","","","","","","","","","","","","","","","","","","","","","","","","","","","","","","","","","","","","","","",""
"audio-keyboard-response","63","255794","0.0-4.0-1.0-0.14","1","1","tl4mcw5b78391x9","","null","","sounds/induction/left/pu_SWS.wav","","null","","","","","","","","","","","","","","","","","","","","","","","","","","","","","","","","","","","","","","","","","",""
"html-button-response","64","257133","0.0-4.0-1.0-1.14","1","1","tl4mcw5b78391x9","","1337.9000000059605","","What sound did you hear?","0","","","1","INDUCTION-JUDGMENT","left","0","","","","","","","","","","","","","","","","","","","","","","","","","","","","","","","","","","","","",""
"html-keyboard-response","65","258143","0.0-4.0-1.0-2.14","1","1","tl4mcw5b78391x9","","null","","<p style=""color:green;""><b>Correct!</b></p>","","null","","","","","","","","","","","","","","","","","","","","","","","","","","","","","","","","","","","","","","","","","",""
"audio-keyboard-response","66","258954","0.0-4.0-1.0-0.15","1","1","tl4mcw5b78391x9","","null","","sounds/induction/left/me_SWS.wav","","null","","","","","","","","","","","","","","","","","","","","","","","","","","","","","","","","","","","","","","","","","",""
"html-button-response","67","260408","0.0-4.0-1.0-1.15","1","1","tl4mcw5b78391x9","","1452.5","","What sound did you hear?","1","","","1","INDUCTION-JUDGMENT","left","1","","","","","","","","","","","","","","","","","","","","","","","","","","","","","","","","","","","","",""
"html-keyboard-response","68","261412","0.0-4.0-1.0-2.15","1","1","tl4mcw5b78391x9","","null","","<p style=""color:green;""><b>Correct!</b></p>","","null","","","","","","","","","","","","","","","","","","","","","","","","","","","","","","","","","","","","","","","","","",""
"audio-keyboard-response","69","262214","0.0-4.0-1.0-0.16","1","1","tl4mcw5b78391x9","","null","","sounds/induction/right/pu_SWS.wav","","null","","","","","","","","","","","","","","","","","","","","","","","","","","","","","","","","","","","","","","","","","",""
"html-button-response","70","263931","0.0-4.0-1.0-1.16","1","1","tl4mcw5b78391x9","","1713.199999988079","","What sound did you hear?","1","","","1","INDUCTION-JUDGMENT","right","1","","","","","","","","","","","","","","","","","","","","","","","","","","","","","","","","","","","","",""
"html-keyboard-response","71","264933","0.0-4.0-1.0-2.16","1","1","tl4mcw5b78391x9","","null","","<p style=""color:green;""><b>Correct!</b></p>","","null","","","","","","","","","","","","","","","","","","","","","","","","","","","","","","","","","","","","","","","","","",""
"audio-keyboard-response","72","265734","0.0-4.0-1.0-0.17","1","1","tl4mcw5b78391x9","","null","","sounds/induction/right/ru_SWS.wav","","null","","","","","","","","","","","","","","","","","","","","","","","","","","","","","","","","","","","","","","","","","",""
"html-button-response","73","267872","0.0-4.0-1.0-1.17","1","1","tl4mcw5b78391x9","","2136.699999988079","","What sound did you hear?","1","","","1","INDUCTION-JUDGMENT","right","1","","","","","","","","","","","","","","","","","","","","","","","","","","","","","","","","","","","","",""
"html-keyboard-response","74","268880","0.0-4.0-1.0-2.17","1","1","tl4mcw5b78391x9","","null","","<p style=""color:green;""><b>Correct!</b></p>","","null","","","","","","","","","","","","","","","","","","","","","","","","","","","","","","","","","","","","","","","","","",""
"audio-keyboard-response","75","269684","0.0-4.0-1.0-0.18","1","1","tl4mcw5b78391x9","","null","","sounds/induction/left/re_SWS.wav","","null","","","","","","","","","","","","","","","","","","","","","","","","","","","","","","","","","","","","","","","","","",""
"html-button-response","76","270849","0.0-4.0-1.0-1.18","1","1","tl4mcw5b78391x9","","1163.5999999940395","","What sound did you hear?","0","","","1","INDUCTION-JUDGMENT","left","0","","","","","","","","","","","","","","","","","","","","","","","","","","","","","","","","","","","","",""
"html-keyboard-response","77","271863","0.0-4.0-1.0-2.18","1","1","tl4mcw5b78391x9","","null","","<p style=""color:green;""><b>Correct!</b></p>","","null","","","","","","","","","","","","","","","","","","","","","","","","","","","","","","","","","","","","","","","","","",""
"audio-keyboard-response","78","272674","0.0-4.0-1.0-0.19","1","1","tl4mcw5b78391x9","","null","","sounds/induction/left/ni_SWS.wav","","null","","","","","","","","","","","","","","","","","","","","","","","","","","","","","","","","","","","","","","","","","",""
"html-button-response","79","274226","0.0-4.0-1.0-1.19","1","1","tl4mcw5b78391x9","","1550.300000011921","","What sound did you hear?","1","","","1","INDUCTION-JUDGMENT","left","1","","","","","","","","","","","","","","","","","","","","","","","","","","","","","","","","","","","","",""
"html-keyboard-response","80","275228","0.0-4.0-1.0-2.19","1","1","tl4mcw5b78391x9","","null","","<p style=""color:green;""><b>Correct!</b></p>","","null","","","","","","","","","","","","","","","","","","","","","","","","","","","","","","","","","","","","","","","","","",""
"audio-keyboard-response","81","276034","0.0-4.0-1.0-0.20","1","1","tl4mcw5b78391x9","","null","","sounds/induction/right/ni_SWS.wav","","null","","","","","","","","","","","","","","","","","","","","","","","","","","","","","","","","","","","","","","","","","",""
"html-button-response","82","277282","0.0-4.0-1.0-1.20","1","1","tl4mcw5b78391x9","","1247.4000000059605","","What sound did you hear?","0","","","1","INDUCTION-JUDGMENT","right","0","","","","","","","","","","","","","","","","","","","","","","","","","","","","","","","","","","","","",""
"html-keyboard-response","83","278292","0.0-4.0-1.0-2.20","1","1","tl4mcw5b78391x9","","null","","<p style=""color:green;""><b>Correct!</b></p>","","null","","","","","","","","","","","","","","","","","","","","","","","","","","","","","","","","","","","","","","","","","",""
"audio-keyboard-response","84","279094","0.0-4.0-1.0-0.21","1","1","tl4mcw5b78391x9","","null","","sounds/induction/left/me_SWS.wav","","null","","","","","","","","","","","","","","","","","","","","","","","","","","","","","","","","","","","","","","","","","",""
"html-button-response","85","280817","0.0-4.0-1.0-1.21","1","1","tl4mcw5b78391x9","","1721.699999988079","","What sound did you hear?","1","","","1","INDUCTION-JUDGMENT","left","1","","","","","","","","","","","","","","","","","","","","","","","","","","","","","","","","","","","","",""
"html-keyboard-response","86","281821","0.0-4.0-1.0-2.21","1","1","tl4mcw5b78391x9","","null","","<p style=""color:green;""><b>Correct!</b></p>","","null","","","","","","","","","","","","","","","","","","","","","","","","","","","","","","","","","","","","","","","","","",""
"audio-keyboard-response","87","282614","0.0-4.0-1.0-0.22","1","1","tl4mcw5b78391x9","","null","","sounds/induction/left/ge_SWS.wav","","null","","","","","","","","","","","","","","","","","","","","","","","","","","","","","","","","","","","","","","","","","",""
"html-button-response","88","284765","0.0-4.0-1.0-1.22","1","1","tl4mcw5b78391x9","","2150.199999988079","","What sound did you hear?","1","","","1","INDUCTION-JUDGMENT","left","1","","","","","","","","","","","","","","","","","","","","","","","","","","","","","","","","","","","","",""
"html-keyboard-response","89","285775","0.0-4.0-1.0-2.22","1","1","tl4mcw5b78391x9","","null","","<p style=""color:green;""><b>Correct!</b></p>","","null","","","","","","","","","","","","","","","","","","","","","","","","","","","","","","","","","","","","","","","","","",""
"audio-keyboard-response","90","286594","0.0-4.0-1.0-0.23","1","1","tl4mcw5b78391x9","","null","","sounds/induction/right/me_SWS.wav","","null","","","","","","","","","","","","","","","","","","","","","","","","","","","","","","","","","","","","","","","","","",""
"html-button-response","91","288276","0.0-4.0-1.0-1.23","1","1","tl4mcw5b78391x9","","1680.199999988079","","What sound did you hear?","1","","","0","INDUCTION-JUDGMENT","right","0","","","","","","","","","","","","","","","","","","","","","","","","","","","","","","","","","","","","",""
"html-keyboard-response","92","289278","0.0-4.0-1.0-2.23","1","1","tl4mcw5b78391x9","","null","","<p style=""color:red;""><b>Incorrect!</b></p>","","null","","","","","","","","","","","","","","","","","","","","","","","","","","","","","","","","","","","","","","","","","",""
"audio-keyboard-response","93","290084","0.0-4.0-1.0-0.24","1","1","tl4mcw5b78391x9","","null","","sounds/induction/left/re_SWS.wav","","null","","","","","","","","","","","","","","","","","","","","","","","","","","","","","","","","","","","","","","","","","",""
"html-button-response","94","291373","0.0-4.0-1.0-1.24","1","1","tl4mcw5b78391x9","","1288","","What sound did you hear?","0","","","1","INDUCTION-JUDGMENT","left","0","","","","","","","","","","","","","","","","","","","","","","","","","","","","","","","","","","","","",""
"html-keyboard-response","95","292377","0.0-4.0-1.0-2.24","1","1","tl4mcw5b78391x9","","null","","<p style=""color:green;""><b>Correct!</b></p>","","null","","","","","","","","","","","","","","","","","","","","","","","","","","","","","","","","","","","","","","","","","",""
"audio-keyboard-response","96","293194","0.0-4.0-1.0-0.25","1","1","tl4mcw5b78391x9","","null","","sounds/induction/right/ta_SWS.wav","","null","","","","","","","","","","","","","","","","","","","","","","","","","","","","","","","","","","","","","","","","","",""
"html-button-response","97","295506","0.0-4.0-1.0-1.25","1","1","tl4mcw5b78391x9","","2310.0999999940395","","What sound did you hear?","0","","","0","INDUCTION-JUDGMENT","right","1","","","","","","","","","","","","","","","","","","","","","","","","","","","","","","","","","","","","",""
"html-keyboard-response","98","296519","0.0-4.0-1.0-2.25","1","1","tl4mcw5b78391x9","","null","","<p style=""color:red;""><b>Incorrect!</b></p>","","null","","","","","","","","","","","","","","","","","","","","","","","","","","","","","","","","","","","","","","","","","",""
"audio-keyboard-response","99","297324","0.0-4.0-1.0-0.26","1","1","tl4mcw5b78391x9","","null","","sounds/induction/left/ge_SWS.wav","","null","","","","","","","","","","","","","","","","","","","","","","","","","","","","","","","","","","","","","","","","","",""
"html-button-response","100","299355","0.0-4.0-1.0-1.26","1","1","tl4mcw5b78391x9","","2029.7999999821186","","What sound did you hear?","1","","","1","INDUCTION-JUDGMENT","left","1","","","","","","","","","","","","","","","","","","","","","","","","","","","","","","","","","","","","",""
"html-keyboard-response","101","300371","0.0-4.0-1.0-2.26","1","1","tl4mcw5b78391x9","","null","","<p style=""color:green;""><b>Correct!</b></p>","","null","","","","","","","","","","","","","","","","","","","","","","","","","","","","","","","","","","","","","","","","","",""
"audio-keyboard-response","102","301175","0.0-4.0-1.0-0.27","1","1","tl4mcw5b78391x9","","null","","sounds/induction/left/ko_SWS.wav","","null","","","","","","","","","","","","","","","","","","","","","","","","","","","","","","","","","","","","","","","","","",""
"html-button-response","103","302931","0.0-4.0-1.0-1.27","1","1","tl4mcw5b78391x9","","1755.3999999761581","","What sound did you hear?","1","","","1","INDUCTION-JUDGMENT","left","1","","","","","","","","","","","","","","","","","","","","","","","","","","","","","","","","","","","","",""
"html-keyboard-response","104","303941","0.0-4.0-1.0-2.27","1","1","tl4mcw5b78391x9","","null","","<p style=""color:green;""><b>Correct!</b></p>","","null","","","","","","","","","","","","","","","","","","","","","","","","","","","","","","","","","","","","","","","","","",""
"audio-keyboard-response","105","304734","0.0-4.0-1.0-0.28","1","1","tl4mcw5b78391x9","","null","","sounds/induction/right/fu_SWS.wav","","null","","","","","","","","","","","","","","","","","","","","","","","","","","","","","","","","","","","","","","","","","",""
"html-button-response","106","306098","0.0-4.0-1.0-1.28","1","1","tl4mcw5b78391x9","","1362.7999999821186","","What sound did you hear?","0","","","1","INDUCTION-JUDGMENT","right","0","","","","","","","","","","","","","","","","","","","","","","","","","","","","","","","","","","","","",""
"html-keyboard-response","107","307103","0.0-4.0-1.0-2.28","1","1","tl4mcw5b78391x9","","null","","<p style=""color:green;""><b>Correct!</b></p>","","null","","","","","","","","","","","","","","","","","","","","","","","","","","","","","","","","","","","","","","","","","",""
"audio-keyboard-response","108","307914","0.0-4.0-1.0-0.29","1","1","tl4mcw5b78391x9","","null","","sounds/induction/right/ta_SWS.wav","","null","","","","","","","","","","","","","","","","","","","","","","","","","","","","","","","","","","","","","","","","","",""
"html-button-response","109","310541","0.0-4.0-1.0-1.29","1","1","tl4mcw5b78391x9","","2625.800000011921","","What sound did you hear?","0","","","0","INDUCTION-JUDGMENT","right","1","","","","","","","","","","","","","","","","","","","","","","","","","","","","","","","","","","","","",""
"html-keyboard-response","110","311543","0.0-4.0-1.0-2.29","1","1","tl4mcw5b78391x9","","null","","<p style=""color:red;""><b>Incorrect!</b></p>","","null","","","","","","","","","","","","","","","","","","","","","","","","","","","","","","","","","","","","","","","","","",""
"audio-keyboard-response","111","312354","0.0-4.0-1.0-0.30","1","1","tl4mcw5b78391x9","","null","","sounds/induction/left/ti_SWS.wav","","null","","","","","","","","","","","","","","","","","","","","","","","","","","","","","","","","","","","","","","","","","",""
"html-button-response","112","313926","0.0-4.0-1.0-1.30","1","1","tl4mcw5b78391x9","","1569.9000000059605","","What sound did you hear?","0","","","1","INDUCTION-JUDGMENT","left","0","","","","","","","","","","","","","","","","","","","","","","","","","","","","","","","","","","","","",""
"html-keyboard-response","113","314939","0.0-4.0-1.0-2.30","1","1","tl4mcw5b78391x9","","null","","<p style=""color:green;""><b>Correct!</b></p>","","null","","","","","","","","","","","","","","","","","","","","","","","","","","","","","","","","","","","","","","","","","",""
"audio-keyboard-response","114","315764","0.0-4.0-1.0-0.31","1","1","tl4mcw5b78391x9","","null","","sounds/induction/left/ru_SWS.wav","","null","","","","","","","","","","","","","","","","","","","","","","","","","","","","","","","","","","","","","","","","","",""
"html-button-response","115","316703","0.0-4.0-1.0-1.31","1","1","tl4mcw5b78391x9","","937.5999999940395","","What sound did you hear?","0","","","1","INDUCTION-JUDGMENT","left","0","","","","","","","","","","","","","","","","","","","","","","","","","","","","","","","","","","","","",""
"html-keyboard-response","116","317707","0.0-4.0-1.0-2.31","1","1","tl4mcw5b78391x9","","null","","<p style=""color:green;""><b>Correct!</b></p>","","null","","","","","","","","","","","","","","","","","","","","","","","","","","","","","","","","","","","","","","","","","",""
"audio-keyboard-response","117","318515","0.0-4.0-1.0-0.32","1","1","tl4mcw5b78391x9","","null","","sounds/induction/left/fu_SWS.wav","","null","","","","","","","","","","","","","","","","","","","","","","","","","","","","","","","","","","","","","","","","","",""
"html-button-response","118","320696","0.0-4.0-1.0-1.32","1","1","tl4mcw5b78391x9","","2180.0999999940395","","What sound did you hear?","1","","","1","INDUCTION-JUDGMENT","left","1","","","","","","","","","","","","","","","","","","","","","","","","","","","","","","","","","","","","",""
"html-keyboard-response","119","321703","0.0-4.0-1.0-2.32","1","1","tl4mcw5b78391x9","","null","","<p style=""color:green;""><b>Correct!</b></p>","","null","","","","","","","","","","","","","","","","","","","","","","","","","","","","","","","","","","","","","","","","","",""
"audio-keyboard-response","120","322514","0.0-4.0-1.0-0.33","1","1","tl4mcw5b78391x9","","null","","sounds/induction/right/ni_SWS.wav","","null","","","","","","","","","","","","","","","","","","","","","","","","","","","","","","","","","","","","","","","","","",""
"html-button-response","121","323906","0.0-4.0-1.0-1.33","1","1","tl4mcw5b78391x9","","1390.7000000178814","","What sound did you hear?","0","","","1","INDUCTION-JUDGMENT","right","0","","","","","","","","","","","","","","","","","","","","","","","","","","","","","","","","","","","","",""
"html-keyboard-response","122","324913","0.0-4.0-1.0-2.33","1","1","tl4mcw5b78391x9","","null","","<p style=""color:green;""><b>Correct!</b></p>","","null","","","","","","","","","","","","","","","","","","","","","","","","","","","","","","","","","","","","","","","","","",""
"audio-keyboard-response","123","325725","0.0-4.0-1.0-0.34","1","1","tl4mcw5b78391x9","","null","","sounds/induction/right/re_SWS.wav","","null","","","","","","","","","","","","","","","","","","","","","","","","","","","","","","","","","","","","","","","","","",""
"html-button-response","124","326989","0.0-4.0-1.0-1.34","1","1","tl4mcw5b78391x9","","1263.0999999940395","","What sound did you hear?","1","","","1","INDUCTION-JUDGMENT","right","1","","","","","","","","","","","","","","","","","","","","","","","","","","","","","","","","","","","","",""
"html-keyboard-response","125","328003","0.0-4.0-1.0-2.34","1","1","tl4mcw5b78391x9","","null","","<p style=""color:green;""><b>Correct!</b></p>","","null","","","","","","","","","","","","","","","","","","","","","","","","","","","","","","","","","","","","","","","","","",""
"audio-keyboard-response","126","328804","0.0-4.0-1.0-0.35","1","1","tl4mcw5b78391x9","","null","","sounds/induction/left/ti_SWS.wav","","null","","","","","","","","","","","","","","","","","","","","","","","","","","","","","","","","","","","","","","","","","",""
"html-button-response","127","330606","0.0-4.0-1.0-1.35","1","1","tl4mcw5b78391x9","","1800.4000000059605","","What sound did you hear?","0","","","1","INDUCTION-JUDGMENT","left","0","","","","","","","","","","","","","","","","","","","","","","","","","","","","","","","","","","","","",""
"html-keyboard-response","128","331613","0.0-4.0-1.0-2.35","1","1","tl4mcw5b78391x9","","null","","<p style=""color:green;""><b>Correct!</b></p>","","null","","","","","","","","","","","","","","","","","","","","","","","","","","","","","","","","","","","","","","","","","",""
"audio-keyboard-response","129","332435","0.0-4.0-1.0-0.36","1","1","tl4mcw5b78391x9","","null","","sounds/induction/left/su_SWS.wav","","null","","","","","","","","","","","","","","","","","","","","","","","","","","","","","","","","","","","","","","","","","",""
"html-button-response","130","334164","0.0-4.0-1.0-1.36","1","1","tl4mcw5b78391x9","","1728.0999999940395","","What sound did you hear?","1","","","0","INDUCTION-JUDGMENT","left","0","","","","","","","","","","","","","","","","","","","","","","","","","","","","","","","","","","","","",""
"html-keyboard-response","131","335173","0.0-4.0-1.0-2.36","1","1","tl4mcw5b78391x9","","null","","<p style=""color:red;""><b>Incorrect!</b></p>","","null","","","","","","","","","","","","","","","","","","","","","","","","","","","","","","","","","","","","","","","","","",""
"audio-keyboard-response","132","335974","0.0-4.0-1.0-0.37","1","1","tl4mcw5b78391x9","","null","","sounds/induction/right/ge_SWS.wav","","null","","","","","","","","","","","","","","","","","","","","","","","","","","","","","","","","","","","","","","","","","",""
"html-button-response","133","337156","0.0-4.0-1.0-1.37","1","1","tl4mcw5b78391x9","","1180.8999999761581","","What sound did you hear?","0","","","1","INDUCTION-JUDGMENT","right","0","","","","","","","","","","","","","","","","","","","","","","","","","","","","","","","","","","","","",""
"html-keyboard-response","134","338171","0.0-4.0-1.0-2.37","1","1","tl4mcw5b78391x9","","null","","<p style=""color:green;""><b>Correct!</b></p>","","null","","","","","","","","","","","","","","","","","","","","","","","","","","","","","","","","","","","","","","","","","",""
"audio-keyboard-response","135","338974","0.0-4.0-1.0-0.38","1","1","tl4mcw5b78391x9","","null","","sounds/induction/left/fe_SWS.wav","","null","","","","","","","","","","","","","","","","","","","","","","","","","","","","","","","","","","","","","","","","","",""
"html-button-response","136","341066","0.0-4.0-1.0-1.38","1","1","tl4mcw5b78391x9","","2090.5","","What sound did you hear?","0","","","0","INDUCTION-JUDGMENT","left","1","","","","","","","","","","","","","","","","","","","","","","","","","","","","","","","","","","","","",""
"html-keyboard-response","137","342073","0.0-4.0-1.0-2.38","1","1","tl4mcw5b78391x9","","null","","<p style=""color:red;""><b>Incorrect!</b></p>","","null","","","","","","","","","","","","","","","","","","","","","","","","","","","","","","","","","","","","","","","","","",""
"audio-keyboard-response","138","342884","0.0-4.0-1.0-0.39","1","1","tl4mcw5b78391x9","","null","","sounds/induction/right/ti_SWS.wav","","null","","","","","","","","","","","","","","","","","","","","","","","","","","","","","","","","","","","","","","","","","",""
"html-button-response","139","344516","0.0-4.0-1.0-1.39","1","1","tl4mcw5b78391x9","","1629.7999999821186","","What sound did you hear?","1","","","1","INDUCTION-JUDGMENT","right","1","","","","","","","","","","","","","","","","","","","","","","","","","","","","","","","","","","","","",""
"html-keyboard-response","140","345524","0.0-4.0-1.0-2.39","1","1","tl4mcw5b78391x9","","null","","<p style=""color:green;""><b>Correct!</b></p>","","null","","","","","","","","","","","","","","","","","","","","","","","","","","","","","","","","","","","","","","","","","",""
"audio-keyboard-response","141","346336","0.0-4.0-1.0-0.40","1","1","tl4mcw5b78391x9","","null","","sounds/induction/right/fu_SWS.wav","","null","","","","","","","","","","","","","","","","","","","","","","","","","","","","","","","","","","","","","","","","","",""
"html-button-response","142","347883","0.0-4.0-1.0-1.40","1","1","tl4mcw5b78391x9","","1546.4000000059605","","What sound did you hear?","0","","","1","INDUCTION-JUDGMENT","right","0","","","","","","","","","","","","","","","","","","","","","","","","","","","","","","","","","","","","",""
"html-keyboard-response","143","348894","0.0-4.0-1.0-2.40","1","1","tl4mcw5b78391x9","","null","","<p style=""color:green;""><b>Correct!</b></p>","","null","","","","","","","","","","","","","","","","","","","","","","","","","","","","","","","","","","","","","","","","","",""
"audio-keyboard-response","144","349716","0.0-4.0-1.0-0.41","1","1","tl4mcw5b78391x9","","null","","sounds/induction/right/ru_SWS.wav","","null","","","","","","","","","","","","","","","","","","","","","","","","","","","","","","","","","","","","","","","","","",""
"html-button-response","145","351058","0.0-4.0-1.0-1.41","1","1","tl4mcw5b78391x9","","1341.0999999940395","","What sound did you hear?","1","","","1","INDUCTION-JUDGMENT","right","1","","","","","","","","","","","","","","","","","","","","","","","","","","","","","","","","","","","","",""
"html-keyboard-response","146","352065","0.0-4.0-1.0-2.41","1","1","tl4mcw5b78391x9","","null","","<p style=""color:green;""><b>Correct!</b></p>","","null","","","","","","","","","","","","","","","","","","","","","","","","","","","","","","","","","","","","","","","","","",""
"audio-keyboard-response","147","352876","0.0-4.0-1.0-0.42","1","1","tl4mcw5b78391x9","","null","","sounds/induction/right/re_SWS.wav","","null","","","","","","","","","","","","","","","","","","","","","","","","","","","","","","","","","","","","","","","","","",""
"html-button-response","148","354397","0.0-4.0-1.0-1.42","1","1","tl4mcw5b78391x9","","1519.5999999940395","","What sound did you hear?","1","","","1","INDUCTION-JUDGMENT","right","1","","","","","","","","","","","","","","","","","","","","","","","","","","","","","","","","","","","","",""
"html-keyboard-response","149","355405","0.0-4.0-1.0-2.42","1","1","tl4mcw5b78391x9","","null","","<p style=""color:green;""><b>Correct!</b></p>","","null","","","","","","","","","","","","","","","","","","","","","","","","","","","","","","","","","","","","","","","","","",""
"audio-keyboard-response","150","356206","0.0-4.0-1.0-0.43","1","1","tl4mcw5b78391x9","","null","","sounds/induction/left/ni_SWS.wav","","null","","","","","","","","","","","","","","","","","","","","","","","","","","","","","","","","","","","","","","","","","",""
"html-button-response","151","357591","0.0-4.0-1.0-1.43","1","1","tl4mcw5b78391x9","","1384.2999999821186","","What sound did you hear?","1","","","1","INDUCTION-JUDGMENT","left","1","","","","","","","","","","","","","","","","","","","","","","","","","","","","","","","","","","","","",""
"html-keyboard-response","152","358605","0.0-4.0-1.0-2.43","1","1","tl4mcw5b78391x9","","null","","<p style=""color:green;""><b>Correct!</b></p>","","null","","","","","","","","","","","","","","","","","","","","","","","","","","","","","","","","","","","","","","","","","",""
"audio-keyboard-response","153","359406","0.0-4.0-1.0-0.44","1","1","tl4mcw5b78391x9","","null","","sounds/induction/left/pu_SWS.wav","","null","","","","","","","","","","","","","","","","","","","","","","","","","","","","","","","","","","","","","","","","","",""
"html-button-response","154","360807","0.0-4.0-1.0-1.44","1","1","tl4mcw5b78391x9","","1400","","What sound did you hear?","1","","","0","INDUCTION-JUDGMENT","left","0","","","","","","","","","","","","","","","","","","","","","","","","","","","","","","","","","","","","",""
"html-keyboard-response","155","361824","0.0-4.0-1.0-2.44","1","1","tl4mcw5b78391x9","","null","","<p style=""color:red;""><b>Incorrect!</b></p>","","null","","","","","","","","","","","","","","","","","","","","","","","","","","","","","","","","","","","","","","","","","",""
"audio-keyboard-response","156","362646","0.0-4.0-1.0-0.45","1","1","tl4mcw5b78391x9","","null","","sounds/induction/left/ta_SWS.wav","","null","","","","","","","","","","","","","","","","","","","","","","","","","","","","","","","","","","","","","","","","","",""
"html-button-response","157","364095","0.0-4.0-1.0-1.45","1","1","tl4mcw5b78391x9","","1446.6000000238419","","What sound did you hear?","0","","","1","INDUCTION-JUDGMENT","left","0","","","","","","","","","","","","","","","","","","","","","","","","","","","","","","","","","","","","",""
"html-keyboard-response","158","365100","0.0-4.0-1.0-2.45","1","1","tl4mcw5b78391x9","","null","","<p style=""color:green;""><b>Correct!</b></p>","","null","","","","","","","","","","","","","","","","","","","","","","","","","","","","","","","","","","","","","","","","","",""
"audio-keyboard-response","159","365896","0.0-4.0-1.0-0.46","1","1","tl4mcw5b78391x9","","null","","sounds/induction/right/ti_SWS.wav","","null","","","","","","","","","","","","","","","","","","","","","","","","","","","","","","","","","","","","","","","","","",""
"html-button-response","160","367766","0.0-4.0-1.0-1.46","1","1","tl4mcw5b78391x9","","1869","","What sound did you hear?","1","","","1","INDUCTION-JUDGMENT","right","1","","","","","","","","","","","","","","","","","","","","","","","","","","","","","","","","","","","","",""
"html-keyboard-response","161","368780","0.0-4.0-1.0-2.46","1","1","tl4mcw5b78391x9","","null","","<p style=""color:green;""><b>Correct!</b></p>","","null","","","","","","","","","","","","","","","","","","","","","","","","","","","","","","","","","","","","","","","","","",""
"audio-keyboard-response","162","369596","0.0-4.0-1.0-0.47","1","1","tl4mcw5b78391x9","","null","","sounds/induction/right/me_SWS.wav","","null","","","","","","","","","","","","","","","","","","","","","","","","","","","","","","","","","","","","","","","","","",""
"html-button-response","163","370854","0.0-4.0-1.0-1.47","1","1","tl4mcw5b78391x9","","1256.2000000178814","","What sound did you hear?","1","","","0","INDUCTION-JUDGMENT","right","0","","","","","","","","","","","","","","","","","","","","","","","","","","","","","","","","","","","","",""
"html-keyboard-response","164","371864","0.0-4.0-1.0-2.47","1","1","tl4mcw5b78391x9","","null","","<p style=""color:red;""><b>Incorrect!</b></p>","","null","","","","","","","","","","","","","","","","","","","","","","","","","","","","","","","","","","","","","","","","","",""
"html-button-response","165","383531","0.0-5.0-0.0","1","1","tl4mcw5b78391x9","","11155.40000000596","","<p>Thank you for your answers.</p><p>You will now listen to similar sounds. The main difference is that the sounds will be longer and will make up complete sentences.</p><p>Please listen carefully to each sentence. After each sentence, you will be asked to type back what you heard to the best of your ability. After you provide your response, you will be given feedback about the correct answer.</p><p>There are 10 sentences in total.","0","","","","","","","","","","","","","","","","","","","","","","","","","","","","","","","","","","","","","","","","","","",""
"audio-keyboard-response","166","386556","0.0-5.0-1.0-0.0","1","1","tl4mcw5b78391x9","","null","","sounds/sentences/right/14_10_cfSWS.wav","","null","","","","","","","","","","","","","","","","","","","","","","","","","","","","","","","","","","","","","","","","","",""
"sentence-resp","167","419921","0.0-5.0-1.0-1.0","1","1","tl4mcw5b78391x9","","33363","","","","","","","SWS-SENT-RESPONSE","","","{""Q0"":""""}","Port is a strong wine with a smoky taste.","port,strong,wine,smoky,taste","","0","0","0","0","0","0","0","","","","","","","","","","","","","","","","","","","","","","","","","",""
"html-keyboard-response","168","421177","0.0-5.0-1.0-2.0","1","1","tl4mcw5b78391x9","","null","","","","null","","","","","","","","","","","","","","","","","","","","","","","","","","","","","","","","","","","","","","","","","",""
"audio-keyboard-response","169","423782","0.0-5.0-1.0-3.0","1","1","tl4mcw5b78391x9","","null","","sounds/sentences/right/14_10_cfSWS.wav","","null","","","","","","","","","","","","","","","","","","","","","","","","","","","","","","","","","","","","","","","","","",""
"html-keyboard-response","170","424786","0.0-5.0-1.0-4.0","1","1","tl4mcw5b78391x9","","null","","","","null","","","","","","","","","","","","","","","","","","","","","","","","","","","","","","","","","","","","","","","","","",""
"html-button-response","171","429523","0.0-5.0-1.0-5.0","1","1","tl4mcw5b78391x9","","4221.300000011921","","<p>Press the button below when you are ready to continue.</p>","0","","","","","","","","","","","","","","","","","","","","","","","","","","","","","","","","","","","","","","","","","","",""
"audio-keyboard-response","172","432112","0.0-5.0-1.0-0.1","1","1","tl4mcw5b78391x9","","null","","sounds/sentences/left/14_03_cfSWS.wav","","null","","","","","","","","","","","","","","","","","","","","","","","","","","","","","","","","","","","","","","","","","",""
"sentence-resp","173","447709","0.0-5.0-1.0-1.1","1","1","tl4mcw5b78391x9","","15594","","","","","","","SWS-SENT-RESPONSE","","","{""Q0"":""I want to go out please""}","Pluck the bright rose without leaves.","pluck,bright,rose,without,leaves","I WANT TO GO OUT PLEASE","0","0","0","0","0","0","0","","","","","","","","","","","","","","","","","","","","","","","","","",""
"html-keyboard-response","174","448971","0.0-5.0-1.0-2.1","1","1","tl4mcw5b78391x9","","null","","","","null","","","","","","","","","","","","","","","","","","","","","","","","","","","","","","","","","","","","","","","","","",""
"audio-keyboard-response","175","451062","0.0-5.0-1.0-3.1","1","1","tl4mcw5b78391x9","","null","","sounds/sentences/left/14_03_cfSWS.wav","","null","","","","","","","","","","","","","","","","","","","","","","","","","","","","","","","","","","","","","","","","","",""
"html-keyboard-response","176","452066","0.0-5.0-1.0-4.1","1","1","tl4mcw5b78391x9","","null","","","","null","","","","","","","","","","","","","","","","","","","","","","","","","","","","","","","","","","","","","","","","","",""
"html-button-response","177","455423","0.0-5.0-1.0-5.1","1","1","tl4mcw5b78391x9","","2851.7999999821186","","<p>Press the button below when you are ready to continue.</p>","0","","","","","","","","","","","","","","","","","","","","","","","","","","","","","","","","","","","","","","","","","","",""
"audio-keyboard-response","178","457992","0.0-5.0-1.0-0.2","1","1","tl4mcw5b78391x9","","null","","sounds/sentences/left/14_04_cfSWS.wav","","null","","","","","","","","","","","","","","","","","","","","","","","","","","","","","","","","","","","","","","","","","",""
"sentence-resp","179","477374","0.0-5.0-1.0-1.2","1","1","tl4mcw5b78391x9","","19379","","","","","","","SWS-SENT-RESPONSE","","","{""Q0"":""i can not compute""}","Two plus seven is less than ten.","two,plus,seven,less,ten","I CAN NOT COMPUTE","0","0","0","0","0","0","0","","","","","","","","","","","","","","","","","","","","","","","","","",""
"html-keyboard-response","180","478645","0.0-5.0-1.0-2.2","1","1","tl4mcw5b78391x9","","null","","","","null","","","","","","","","","","","","","","","","","","","","","","","","","","","","","","","","","","","","","","","","","",""
"audio-keyboard-response","181","480697","0.0-5.0-1.0-3.2","1","1","tl4mcw5b78391x9","","null","","sounds/sentences/left/14_04_cfSWS.wav","","null","","","","","","","","","","","","","","","","","","","","","","","","","","","","","","","","","","","","","","","","","",""
"html-keyboard-response","182","481717","0.0-5.0-1.0-4.2","1","1","tl4mcw5b78391x9","","null","","","","null","","","","","","","","","","","","","","","","","","","","","","","","","","","","","","","","","","","","","","","","","",""
"html-button-response","183","489764","0.0-5.0-1.0-5.2","1","1","tl4mcw5b78391x9","","7537","","<p>Press the button below when you are ready to continue.</p>","0","","","","","","","","","","","","","","","","","","","","","","","","","","","","","","","","","","","","","","","","","","",""
"audio-keyboard-response","184","492668","0.0-5.0-1.0-0.3","1","1","tl4mcw5b78391x9","","null","","sounds/sentences/right/14_07_cfSWS.wav","","null","","","","","","","","","","","","","","","","","","","","","","","","","","","","","","","","","","","","","","","","","",""
"sentence-resp","185","500479","0.0-5.0-1.0-1.3","1","1","tl4mcw5b78391x9","","7809","","","","","","","SWS-SENT-RESPONSE","","","{""Q0"":""i saw you eating cherries""}","Write a fond note to the friend you cherish.","write,fond,note,friend,cherish","I SAW YOU EATING CHERRIES","0","0","0","0","0","0","0","","","","","","","","","","","","","","","","","","","","","","","","","",""
"html-keyboard-response","186","501751","0.0-5.0-1.0-2.3","1","1","tl4mcw5b78391x9","","null","","","","null","","","","","","","","","","","","","","","","","","","","","","","","","","","","","","","","","","","","","","","","","",""
"audio-keyboard-response","187","504138","0.0-5.0-1.0-3.3","1","1","tl4mcw5b78391x9","","null","","sounds/sentences/right/14_07_cfSWS.wav","","null","","","","","","","","","","","","","","","","","","","","","","","","","","","","","","","","","","","","","","","","","",""
"html-keyboard-response","188","505156","0.0-5.0-1.0-4.3","1","1","tl4mcw5b78391x9","","null","","","","null","","","","","","","","","","","","","","","","","","","","","","","","","","","","","","","","","","","","","","","","","",""
"html-button-response","189","526624","0.0-5.0-1.0-5.3","1","1","tl4mcw5b78391x9","","20963.30000001192","","<p>Press the button below when you are ready to continue.</p>","0","","","","","","","","","","","","","","","","","","","","","","","","","","","","","","","","","","","","","","","","","","",""
"audio-keyboard-response","190","529757","0.0-5.0-1.0-0.4","1","1","tl4mcw5b78391x9","","null","","sounds/sentences/left/14_01_cfSWS.wav","","null","","","","","","","","","","","","","","","","","","","","","","","","","","","","","","","","","","","","","","","","","",""
"sentence-resp","191","540038","0.0-5.0-1.0-1.4","1","1","tl4mcw5b78391x9","","10279","","","","","","","SWS-SENT-RESPONSE","","","{""Q0"":""A friend...""}","A cramp is no small danger on a swim.","cramp,no,small,danger,swim","A FRIEND","0","0","0","0","0","0","0","","","","","","","","","","","","","","","","","","","","","","","","","",""
"html-keyboard-response","192","541300","0.0-5.0-1.0-2.4","1","1","tl4mcw5b78391x9","","null","","","","null","","","","","","","","","","","","","","","","","","","","","","","","","","","","","","","","","","","","","","","","","",""
"audio-keyboard-response","193","543912","0.0-5.0-1.0-3.4","1","1","tl4mcw5b78391x9","","null","","sounds/sentences/left/14_01_cfSWS.wav","","null","","","","","","","","","","","","","","","","","","","","","","","","","","","","","","","","","","","","","","","","","",""
"html-keyboard-response","194","544931","0.0-5.0-1.0-4.4","1","1","tl4mcw5b78391x9","","null","","","","null","","","","","","","","","","","","","","","","","","","","","","","","","","","","","","","","","","","","","","","","","",""
"html-button-response","195","554724","0.0-5.0-1.0-5.4","1","1","tl4mcw5b78391x9","","9289.90000000596","","<p>Press the button below when you are ready to continue.</p>","0","","","","","","","","","","","","","","","","","","","","","","","","","","","","","","","","","","","","","","","","","","",""
"audio-keyboard-response","196","557482","0.0-5.0-1.0-0.5","1","1","tl4mcw5b78391x9","","null","","sounds/sentences/right/14_08_cfSWS.wav","","null","","","","","","","","","","","","","","","","","","","","","","","","","","","","","","","","","","","","","","","","","",""
"sentence-resp","197","568228","0.0-5.0-1.0-1.5","1","1","tl4mcw5b78391x9","","10744","","","","","","","SWS-SENT-RESPONSE","","","{""Q0"":""I feel motion in my legs""}","Clothes and lodging are free to new men.","clothes,lodging,free,new,men","I FEEL MOTION IN MY LEGS","0","0","0","0","0","0","0","","","","","","","","","","","","","","","","","","","","","","","","","",""
"html-keyboard-response","198","569490","0.0-5.0-1.0-2.5","1","1","tl4mcw5b78391x9","","null","","","","null","","","","","","","","","","","","","","","","","","","","","","","","","","","","","","","","","","","","","","","","","",""
"audio-keyboard-response","199","571742","0.0-5.0-1.0-3.5","1","1","tl4mcw5b78391x9","","null","","sounds/sentences/right/14_08_cfSWS.wav","","null","","","","","","","","","","","","","","","","","","","","","","","","","","","","","","","","","","","","","","","","","",""
"html-keyboard-response","200","572749","0.0-5.0-1.0-4.5","1","1","tl4mcw5b78391x9","","null","","","","null","","","","","","","","","","","","","","","","","","","","","","","","","","","","","","","","","","","","","","","","","",""
"html-button-response","201","591041","0.0-5.0-1.0-5.5","1","1","tl4mcw5b78391x9","","17774.69999998808","","<p>Press the button below when you are ready to continue.</p>","0","","","","","","","","","","","","","","","","","","","","","","","","","","","","","","","","","","","","","","","","","","",""
"audio-keyboard-response","202","593871","0.0-5.0-1.0-0.6","1","1","tl4mcw5b78391x9","","null","","sounds/sentences/left/14_02_cfSWS.wav","","null","","","","","","","","","","","","","","","","","","","","","","","","","","","","","","","","","","","","","","","","","",""
"sentence-resp","203","602157","0.0-5.0-1.0-1.6","1","1","tl4mcw5b78391x9","","8283","","","","","","","SWS-SENT-RESPONSE","","","{""Q0"":""said the same thing thirty times""}","He said the same phrase thirty times.","said,same,phrase,thirty,times","SAID THE SAME THING THIRTY TIMES","1","1","0","1","1","4","0.8","","","","","","","","","","","","","","","","","","","","","","","","","",""
"html-keyboard-response","204","603430","0.0-5.0-1.0-2.6","1","1","tl4mcw5b78391x9","","null","","","","null","","","","","","","","","","","","","","","","","","","","","","","","","","","","","","","","","","","","","","","","","",""
"audio-keyboard-response","205","605742","0.0-5.0-1.0-3.6","1","1","tl4mcw5b78391x9","","null","","sounds/sentences/left/14_02_cfSWS.wav","","null","","","","","","","","","","","","","","","","","","","","","","","","","","","","","","","","","","","","","","","","","",""
"html-keyboard-response","206","606760","0.0-5.0-1.0-4.6","1","1","tl4mcw5b78391x9","","null","","","","null","","","","","","","","","","","","","","","","","","","","","","","","","","","","","","","","","","","","","","","","","",""
"html-button-response","207","610593","0.0-5.0-1.0-5.6","1","1","tl4mcw5b78391x9","","3320.300000011921","","<p>Press the button below when you are ready to continue.</p>","0","","","","","","","","","","","","","","","","","","","","","","","","","","","","","","","","","","","","","","","","","","",""
"audio-keyboard-response","208","613342","0.0-5.0-1.0-0.7","1","1","tl4mcw5b78391x9","","null","","sounds/sentences/right/14_06_cfSWS.wav","","null","","","","","","","","","","","","","","","","","","","","","","","","","","","","","","","","","","","","","","","","","",""
"sentence-resp","209","629069","0.0-5.0-1.0-1.7","1","1","tl4mcw5b78391x9","","15725","","","","","","","SWS-SENT-RESPONSE","","","{""Q0"":""there are problems said the wise chief""}","Bring your problems to the wise chief.","bring,your,problems,wise,chief","THERE ARE PROBLEMS SAID THE WISE CHIEF","0","0","1","1","1","3","0.6","","","","","","","","","","","","","","","","","","","","","","","","","",""
"html-keyboard-response","210","630338","0.0-5.0-1.0-2.7","1","1","tl4mcw5b78391x9","","null","","","","null","","","","","","","","","","","","","","","","","","","","","","","","","","","","","","","","","","","","","","","","","",""
"audio-keyboard-response","211","632582","0.0-5.0-1.0-3.7","1","1","tl4mcw5b78391x9","","null","","sounds/sentences/right/14_06_cfSWS.wav","","null","","","","","","","","","","","","","","","","","","","","","","","","","","","","","","","","","","","","","","","","","",""
"html-keyboard-response","212","633590","0.0-5.0-1.0-4.7","1","1","tl4mcw5b78391x9","","null","","","","null","","","","","","","","","","","","","","","","","","","","","","","","","","","","","","","","","","","","","","","","","",""
"html-button-response","213","639694","0.0-5.0-1.0-5.7","1","1","tl4mcw5b78391x9","","5587","","<p>Press the button below when you are ready to continue.</p>","0","","","","","","","","","","","","","","","","","","","","","","","","","","","","","","","","","","","","","","","","","","",""
"audio-keyboard-response","214","642432","0.0-5.0-1.0-0.8","1","1","tl4mcw5b78391x9","","null","","sounds/sentences/right/14_09_cfSWS.wav","","null","","","","","","","","","","","","","","","","","","","","","","","","","","","","","","","","","","","","","","","","","",""
"sentence-resp","215","651703","0.0-5.0-1.0-1.8","1","1","tl4mcw5b78391x9","","9268","","","","","","","SWS-SENT-RESPONSE","","","{""Q0"":""we have some fun adventures""}","We frown when events take a bad turn.","frown,events,take,bad,turn","WE HAVE SOME FUN ADVENTURES","0","0","0","0","0","0","0","","","","","","","","","","","","","","","","","","","","","","","","","",""
"html-keyboard-response","216","652971","0.0-5.0-1.0-2.8","1","1","tl4mcw5b78391x9","","null","","","","null","","","","","","","","","","","","","","","","","","","","","","","","","","","","","","","","","","","","","","","","","",""
"audio-keyboard-response","217","655203","0.0-5.0-1.0-3.8","1","1","tl4mcw5b78391x9","","null","","sounds/sentences/right/14_09_cfSWS.wav","","null","","","","","","","","","","","","","","","","","","","","","","","","","","","","","","","","","","","","","","","","","",""
"html-keyboard-response","218","656217","0.0-5.0-1.0-4.8","1","1","tl4mcw5b78391x9","","null","","","","null","","","","","","","","","","","","","","","","","","","","","","","","","","","","","","","","","","","","","","","","","",""
"html-button-response","219","658644","0.0-5.0-1.0-5.8","1","1","tl4mcw5b78391x9","","1922.5","","<p>Press the button below when you are ready to continue.</p>","0","","","","","","","","","","","","","","","","","","","","","","","","","","","","","","","","","","","","","","","","","","",""
"audio-keyboard-response","220","661633","0.0-5.0-1.0-0.9","1","1","tl4mcw5b78391x9","","null","","sounds/sentences/left/14_05_cfSWS.wav","","null","","","","","","","","","","","","","","","","","","","","","","","","","","","","","","","","","","","","","","","","","",""
"sentence-resp","221","675892","0.0-5.0-1.0-1.9","1","1","tl4mcw5b78391x9","","14257","","","","","","","SWS-SENT-RESPONSE","","","{""Q0"":""the clothes in the aisle are see through""}","The glow deepened in the eyes of the sweet girl.","glow,deepened,eyes,sweet,girl","THE CLOTHES IN THE AISLE ARE SEE THROUGH","0","0","0","0","0","0","0","","","","","","","","","","","","","","","","","","","","","","","","","",""
"html-keyboard-response","222","677161","0.0-5.0-1.0-2.9","1","1","tl4mcw5b78391x9","","null","","","","null","","","","","","","","","","","","","","","","","","","","","","","","","","","","","","","","","","","","","","","","","",""
"audio-keyboard-response","223","679653","0.0-5.0-1.0-3.9","1","1","tl4mcw5b78391x9","","null","","sounds/sentences/left/14_05_cfSWS.wav","","null","","","","","","","","","","","","","","","","","","","","","","","","","","","","","","","","","","","","","","","","","",""
"html-keyboard-response","224","680661","0.0-5.0-1.0-4.9","1","1","tl4mcw5b78391x9","","null","","","","null","","","","","","","","","","","","","","","","","","","","","","","","","","","","","","","","","","","","","","","","","",""
"html-button-response","225","686415","0.0-5.0-1.0-5.9","1","1","tl4mcw5b78391x9","","5236.800000011921","","<p>Press the button below when you are ready to continue.</p>","0","","","","","","","","","","","","","","","","","","","","","","","","","","","","","","","","","","","","","","","","","","",""
"html-keyboard-response","226","715669","0.0-6.0-0.0","1","1","tl4mcw5b78391x9","","28755.600000023842","","<p>In this part of the study, you will hear sounds similar to those you just heard.</p><p>Please focus on these sounds, as you may be asked questions about them later.</p><p>Occasionally, the sounds will pause for up to two seconds. When this happens, please press SPACEBAR as quickly as you can.</br>This helps ensure that you are paying attention to the sounds.</p><p>This part of the study will take about 12 minutes to complete, and you will be given the opportunity to take a couple of short breaks every few minutes.</p><p><strong>Press SPACEBAR to begin</strong></p>","","32","","","","","","","","","","","","","","","","","","","","","","","","","","","","","","","","","","","","","","","","","",""
"html-keyboard-response","227","716681","0.0-6.0-1.0-0.0","1","1","tl4mcw5b78391x9","","null","","<p style=""font-size: 40px;"">+</p>","","null","","","","","","","","","","","","","","","","","","","","","","","","","","","","","","","","","","","","","","","","","",""
"html-keyboard-response","228","901702","0.0-6.0-1.0-1.0","1","1","tl4mcw5b78391x9","","null","","","","null","","","SL-TRAIN","","","","","","","","","","","","","","0","1411.5999999940395","1959.4000000059605","sounds/A/TRAIN/SEQ__03.mp3","4","","","","","","","","","","","","","","","","","","","","",""
"html-button-response","229","904477","0.0-6.0-1.0-2.0","1","1","tl4mcw5b78391x9","","2772.699999988079","","<p>You may take a short break if you wish.</p>","0","","","","","","","","","","","","","","","","","","","","","","","","","","","","","","","","","","","","","","","","","","",""
"html-keyboard-response","230","905494","0.0-6.0-1.0-3.0","1","1","tl4mcw5b78391x9","","null","","<p style=""font-size: 40px;"">+</p>","","null","","","","","","","","","","","","","","","","","","","","","","","","","","","","","","","","","","","","","","","","","",""
"html-keyboard-response","231","1090514","0.0-6.0-1.0-4.0","1","1","tl4mcw5b78391x9","","null","","","","null","","","SL-TRAIN","","","","","","","","","","","","","","0","1508.1000000238419","1538.7000000178814","sounds/A/TRAIN/SEQ__06.mp3","4","","","","","","","","","","","","","","","","","","","","",""
"html-button-response","232","1102341","0.0-6.0-1.0-5.0","1","1","tl4mcw5b78391x9","","11825.100000023842","","<p>You may take a short break if you wish.</p>","0","","","","","","","","","","","","","","","","","","","","","","","","","","","","","","","","","","","","","","","","","","",""
"html-keyboard-response","233","1103349","0.0-6.0-1.0-6.0","1","1","tl4mcw5b78391x9","","null","","<p style=""font-size: 40px;"">+</p>","","null","","","","","","","","","","","","","","","","","","","","","","","","","","","","","","","","","","","","","","","","","",""
"html-keyboard-response","234","1288356","0.0-6.0-1.0-7.0","1","1","tl4mcw5b78391x9","","null","","","","null","","","SL-TRAIN","","","","","","","","","","","","","","0","1854","1393.2999999821186","sounds/A/TRAIN/SEQ__09.mp3","6","","","","","","","","","","","","","","","","","","","","",""
"html-button-response","235","1290291","0.0-6.0-1.0-8.0","1","1","tl4mcw5b78391x9","","1933.2000000178814","","<p>You may take a short break if you wish.</p>","0","","","","","","","","","","","","","","","","","","","","","","","","","","","","","","","","","","","","","","","","","","",""
"html-keyboard-response","236","1291299","0.0-6.0-1.0-9.0","1","1","tl4mcw5b78391x9","","null","","<p style=""font-size: 40px;"">+</p>","","null","","","","","","","","","","","","","","","","","","","","","","","","","","","","","","","","","","","","","","","","","",""
"html-keyboard-response","237","1476307","0.0-6.0-1.0-10.0","1","1","tl4mcw5b78391x9","","null","","","","null","","","SL-TRAIN","","","","","","","","","","","","","","0","1321.699999988079","1218.199999988079","sounds/A/TRAIN/SEQ__07.mp3","8","","","","","","","","","","","","","","","","","","","","",""
"html-button-response","238","1485314","0.0-6.0-1.0-11.0","1","1","tl4mcw5b78391x9","","9005.699999988079","","<p>You may take a short break if you wish.</p>","0","","","","","","","","","","","","","","","","","","","","","","","","","","","","","","","","","","","","","","","","","","",""
"html-button-response","239","1502156","0.0-7.0-0.0","1","1","tl4mcw5b78391x9","","16839.59999999404","","<p>Welcome to the second part of the study. This is a <u>familiarity task</u>.</p><p>You will now hear short sounds and will be asked to rate how familiar they sound to you <b>based on what you heard in the previous part of the study</b>.</p><p>You will rate 12 sounds in total.</p>","0","","","","","","","","","","","","","","","","","","","","","","","","","","","","","","","","","","","","","","","","","","",""
"html-keyboard-response","240","1503163","0.0-7.0-1.0-0.0","1","1","tl4mcw5b78391x9","","null","","","","null","","","","","","","","","","","","","","","","","","","","","","","","","","","","","","","","","","","","","","","","","",""
"audio-keyboard-response","241","1505149","0.0-7.0-1.0-1.0","1","1","tl4mcw5b78391x9","","null","","sounds/A/FAM/N004.mp3","","null","","","","","","","","","","","","","","","","","","","","","","","","","","","","","","","","","","","","","","","","","",""
"html-keyboard-response","242","1513575","0.0-7.0-1.0-2.0","1","1","tl4mcw5b78391x9","","7919.299999982119","","<p>How familiar did this sound to you?</p><p>1&nbsp;&nbsp;&nbsp;&nbsp;&nbsp;&nbsp;&nbsp;&nbsp;&nbsp;&nbsp;&nbsp;&nbsp;&nbsp;&nbsp;&nbsp;&nbsp;&nbsp;&nbsp;&nbsp;2&nbsp;&nbsp;&nbsp;&nbsp;&nbsp;&nbsp;&nbsp;&nbsp;&nbsp;&nbsp;&nbsp;&nbsp;&nbsp;&nbsp;&nbsp;&nbsp;&nbsp;&nbsp;&nbsp;3&nbsp;&nbsp;&nbsp;&nbsp;&nbsp;&nbsp;&nbsp;&nbsp;&nbsp;&nbsp;&nbsp;&nbsp;&nbsp;&nbsp;&nbsp;&nbsp;&nbsp;&nbsp;&nbsp;4</p><p style=""font-size:14px"">Not at all familiar&nbsp;&nbsp;&nbsp;&nbsp;A little familiar&nbsp;&nbsp;&nbsp;Moderately familiar&nbsp;&nbsp;&nbsp;Extremely familiar</p><p>(press the corresponding number on your keyboard)</p>","","51","","","FAM-RESPONSE","","","","","","","","","","","","","","","","","","","sounds/A/FAM/N004.mp3","nonword","","","","","","","","","","","","","","","","","","",""
"html-keyboard-response","243","1515587","0.0-7.0-1.0-0.1","1","1","tl4mcw5b78391x9","","null","","","","null","","","","","","","","","","","","","","","","","","","","","","","","","","","","","","","","","","","","","","","","","",""
"audio-keyboard-response","244","1516539","0.0-7.0-1.0-1.1","1","1","tl4mcw5b78391x9","","null","","sounds/A/FAM/W004.mp3","","null","","","","","","","","","","","","","","","","","","","","","","","","","","","","","","","","","","","","","","","","","",""
"html-keyboard-response","245","1519662","0.0-7.0-1.0-2.1","1","1","tl4mcw5b78391x9","","2618.9000000059605","","<p>How familiar did this sound to you?</p><p>1&nbsp;&nbsp;&nbsp;&nbsp;&nbsp;&nbsp;&nbsp;&nbsp;&nbsp;&nbsp;&nbsp;&nbsp;&nbsp;&nbsp;&nbsp;&nbsp;&nbsp;&nbsp;&nbsp;2&nbsp;&nbsp;&nbsp;&nbsp;&nbsp;&nbsp;&nbsp;&nbsp;&nbsp;&nbsp;&nbsp;&nbsp;&nbsp;&nbsp;&nbsp;&nbsp;&nbsp;&nbsp;&nbsp;3&nbsp;&nbsp;&nbsp;&nbsp;&nbsp;&nbsp;&nbsp;&nbsp;&nbsp;&nbsp;&nbsp;&nbsp;&nbsp;&nbsp;&nbsp;&nbsp;&nbsp;&nbsp;&nbsp;4</p><p style=""font-size:14px"">Not at all familiar&nbsp;&nbsp;&nbsp;&nbsp;A little familiar&nbsp;&nbsp;&nbsp;Moderately familiar&nbsp;&nbsp;&nbsp;Extremely familiar</p><p>(press the corresponding number on your keyboard)</p>","","52","","","FAM-RESPONSE","","","","","","","","","","","","","","","","","","","sounds/A/FAM/W004.mp3","word","","","","","","","","","","","","","","","","","","",""
"html-keyboard-response","246","1521683","0.0-7.0-1.0-0.2","1","1","tl4mcw5b78391x9","","null","","","","null","","","","","","","","","","","","","","","","","","","","","","","","","","","","","","","","","","","","","","","","","",""
"audio-keyboard-response","247","1522629","0.0-7.0-1.0-1.2","1","1","tl4mcw5b78391x9","","null","","sounds/A/FAM/W003.mp3","","null","","","","","","","","","","","","","","","","","","","","","","","","","","","","","","","","","","","","","","","","","",""
"html-keyboard-response","248","1527381","0.0-7.0-1.0-2.2","1","1","tl4mcw5b78391x9","","4233.9000000059605","","<p>How familiar did this sound to you?</p><p>1&nbsp;&nbsp;&nbsp;&nbsp;&nbsp;&nbsp;&nbsp;&nbsp;&nbsp;&nbsp;&nbsp;&nbsp;&nbsp;&nbsp;&nbsp;&nbsp;&nbsp;&nbsp;&nbsp;2&nbsp;&nbsp;&nbsp;&nbsp;&nbsp;&nbsp;&nbsp;&nbsp;&nbsp;&nbsp;&nbsp;&nbsp;&nbsp;&nbsp;&nbsp;&nbsp;&nbsp;&nbsp;&nbsp;3&nbsp;&nbsp;&nbsp;&nbsp;&nbsp;&nbsp;&nbsp;&nbsp;&nbsp;&nbsp;&nbsp;&nbsp;&nbsp;&nbsp;&nbsp;&nbsp;&nbsp;&nbsp;&nbsp;4</p><p style=""font-size:14px"">Not at all familiar&nbsp;&nbsp;&nbsp;&nbsp;A little familiar&nbsp;&nbsp;&nbsp;Moderately familiar&nbsp;&nbsp;&nbsp;Extremely familiar</p><p>(press the corresponding number on your keyboard)</p>","","52","","","FAM-RESPONSE","","","","","","","","","","","","","","","","","","","sounds/A/FAM/W003.mp3","word","","","","","","","","","","","","","","","","","","",""
"html-keyboard-response","249","1529405","0.0-7.0-1.0-0.3","1","1","tl4mcw5b78391x9","","null","","","","null","","","","","","","","","","","","","","","","","","","","","","","","","","","","","","","","","","","","","","","","","",""
"audio-keyboard-response","250","1530349","0.0-7.0-1.0-1.3","1","1","tl4mcw5b78391x9","","null","","sounds/A/FAM/W002.mp3","","null","","","","","","","","","","","","","","","","","","","","","","","","","","","","","","","","","","","","","","","","","",""
"html-keyboard-response","251","1531935","0.0-7.0-1.0-2.3","1","1","tl4mcw5b78391x9","","1076.7999999821186","","<p>How familiar did this sound to you?</p><p>1&nbsp;&nbsp;&nbsp;&nbsp;&nbsp;&nbsp;&nbsp;&nbsp;&nbsp;&nbsp;&nbsp;&nbsp;&nbsp;&nbsp;&nbsp;&nbsp;&nbsp;&nbsp;&nbsp;2&nbsp;&nbsp;&nbsp;&nbsp;&nbsp;&nbsp;&nbsp;&nbsp;&nbsp;&nbsp;&nbsp;&nbsp;&nbsp;&nbsp;&nbsp;&nbsp;&nbsp;&nbsp;&nbsp;3&nbsp;&nbsp;&nbsp;&nbsp;&nbsp;&nbsp;&nbsp;&nbsp;&nbsp;&nbsp;&nbsp;&nbsp;&nbsp;&nbsp;&nbsp;&nbsp;&nbsp;&nbsp;&nbsp;4</p><p style=""font-size:14px"">Not at all familiar&nbsp;&nbsp;&nbsp;&nbsp;A little familiar&nbsp;&nbsp;&nbsp;Moderately familiar&nbsp;&nbsp;&nbsp;Extremely familiar</p><p>(press the corresponding number on your keyboard)</p>","","52","","","FAM-RESPONSE","","","","","","","","","","","","","","","","","","","sounds/A/FAM/W002.mp3","word","","","","","","","","","","","","","","","","","","",""
"html-keyboard-response","252","1533966","0.0-7.0-1.0-0.4","1","1","tl4mcw5b78391x9","","null","","","","null","","","","","","","","","","","","","","","","","","","","","","","","","","","","","","","","","","","","","","","","","",""
"audio-keyboard-response","253","1534909","0.0-7.0-1.0-1.4","1","1","tl4mcw5b78391x9","","null","","sounds/A/FAM/W001.mp3","","null","","","","","","","","","","","","","","","","","","","","","","","","","","","","","","","","","","","","","","","","","",""
"html-keyboard-response","254","1535721","0.0-7.0-1.0-2.4","1","1","tl4mcw5b78391x9","","307.89999997615814","","<p>How familiar did this sound to you?</p><p>1&nbsp;&nbsp;&nbsp;&nbsp;&nbsp;&nbsp;&nbsp;&nbsp;&nbsp;&nbsp;&nbsp;&nbsp;&nbsp;&nbsp;&nbsp;&nbsp;&nbsp;&nbsp;&nbsp;2&nbsp;&nbsp;&nbsp;&nbsp;&nbsp;&nbsp;&nbsp;&nbsp;&nbsp;&nbsp;&nbsp;&nbsp;&nbsp;&nbsp;&nbsp;&nbsp;&nbsp;&nbsp;&nbsp;3&nbsp;&nbsp;&nbsp;&nbsp;&nbsp;&nbsp;&nbsp;&nbsp;&nbsp;&nbsp;&nbsp;&nbsp;&nbsp;&nbsp;&nbsp;&nbsp;&nbsp;&nbsp;&nbsp;4</p><p style=""font-size:14px"">Not at all familiar&nbsp;&nbsp;&nbsp;&nbsp;A little familiar&nbsp;&nbsp;&nbsp;Moderately familiar&nbsp;&nbsp;&nbsp;Extremely familiar</p><p>(press the corresponding number on your keyboard)</p>","","52","","","FAM-RESPONSE","","","","","","","","","","","","","","","","","","","sounds/A/FAM/W001.mp3","word","","","","","","","","","","","","","","","","","","",""
"html-keyboard-response","255","1537739","0.0-7.0-1.0-0.5","1","1","tl4mcw5b78391x9","","null","","","","null","","","","","","","","","","","","","","","","","","","","","","","","","","","","","","","","","","","","","","","","","",""
"audio-keyboard-response","256","1538680","0.0-7.0-1.0-1.5","1","1","tl4mcw5b78391x9","","null","","sounds/A/FAM/N002.mp3","","null","","","","","","","","","","","","","","","","","","","","","","","","","","","","","","","","","","","","","","","","","",""
"html-keyboard-response","257","1543626","0.0-7.0-1.0-2.5","1","1","tl4mcw5b78391x9","","4437.799999982119","","<p>How familiar did this sound to you?</p><p>1&nbsp;&nbsp;&nbsp;&nbsp;&nbsp;&nbsp;&nbsp;&nbsp;&nbsp;&nbsp;&nbsp;&nbsp;&nbsp;&nbsp;&nbsp;&nbsp;&nbsp;&nbsp;&nbsp;2&nbsp;&nbsp;&nbsp;&nbsp;&nbsp;&nbsp;&nbsp;&nbsp;&nbsp;&nbsp;&nbsp;&nbsp;&nbsp;&nbsp;&nbsp;&nbsp;&nbsp;&nbsp;&nbsp;3&nbsp;&nbsp;&nbsp;&nbsp;&nbsp;&nbsp;&nbsp;&nbsp;&nbsp;&nbsp;&nbsp;&nbsp;&nbsp;&nbsp;&nbsp;&nbsp;&nbsp;&nbsp;&nbsp;4</p><p style=""font-size:14px"">Not at all familiar&nbsp;&nbsp;&nbsp;&nbsp;A little familiar&nbsp;&nbsp;&nbsp;Moderately familiar&nbsp;&nbsp;&nbsp;Extremely familiar</p><p>(press the corresponding number on your keyboard)</p>","","50","","","FAM-RESPONSE","","","","","","","","","","","","","","","","","","","sounds/A/FAM/N002.mp3","nonword","","","","","","","","","","","","","","","","","","",""
"html-keyboard-response","258","1545651","0.0-7.0-1.0-0.6","1","1","tl4mcw5b78391x9","","null","","","","null","","","","","","","","","","","","","","","","","","","","","","","","","","","","","","","","","","","","","","","","","",""
"audio-keyboard-response","259","1546589","0.0-7.0-1.0-1.6","1","1","tl4mcw5b78391x9","","null","","sounds/A/FAM/P004.mp3","","null","","","","","","","","","","","","","","","","","","","","","","","","","","","","","","","","","","","","","","","","","",""
"html-keyboard-response","260","1548868","0.0-7.0-1.0-2.6","1","1","tl4mcw5b78391x9","","1770.5","","<p>How familiar did this sound to you?</p><p>1&nbsp;&nbsp;&nbsp;&nbsp;&nbsp;&nbsp;&nbsp;&nbsp;&nbsp;&nbsp;&nbsp;&nbsp;&nbsp;&nbsp;&nbsp;&nbsp;&nbsp;&nbsp;&nbsp;2&nbsp;&nbsp;&nbsp;&nbsp;&nbsp;&nbsp;&nbsp;&nbsp;&nbsp;&nbsp;&nbsp;&nbsp;&nbsp;&nbsp;&nbsp;&nbsp;&nbsp;&nbsp;&nbsp;3&nbsp;&nbsp;&nbsp;&nbsp;&nbsp;&nbsp;&nbsp;&nbsp;&nbsp;&nbsp;&nbsp;&nbsp;&nbsp;&nbsp;&nbsp;&nbsp;&nbsp;&nbsp;&nbsp;4</p><p style=""font-size:14px"">Not at all familiar&nbsp;&nbsp;&nbsp;&nbsp;A little familiar&nbsp;&nbsp;&nbsp;Moderately familiar&nbsp;&nbsp;&nbsp;Extremely familiar</p><p>(press the corresponding number on your keyboard)</p>","","51","","","FAM-RESPONSE","","","","","","","","","","","","","","","","","","","sounds/A/FAM/P004.mp3","partword","","","","","","","","","","","","","","","","","","",""
"html-keyboard-response","261","1550883","0.0-7.0-1.0-0.7","1","1","tl4mcw5b78391x9","","null","","","","null","","","","","","","","","","","","","","","","","","","","","","","","","","","","","","","","","","","","","","","","","",""
"audio-keyboard-response","262","1551829","0.0-7.0-1.0-1.7","1","1","tl4mcw5b78391x9","","null","","sounds/A/FAM/P002.mp3","","null","","","","","","","","","","","","","","","","","","","","","","","","","","","","","","","","","","","","","","","","","",""
"html-keyboard-response","263","1553614","0.0-7.0-1.0-2.7","1","1","tl4mcw5b78391x9","","1276.4000000059605","","<p>How familiar did this sound to you?</p><p>1&nbsp;&nbsp;&nbsp;&nbsp;&nbsp;&nbsp;&nbsp;&nbsp;&nbsp;&nbsp;&nbsp;&nbsp;&nbsp;&nbsp;&nbsp;&nbsp;&nbsp;&nbsp;&nbsp;2&nbsp;&nbsp;&nbsp;&nbsp;&nbsp;&nbsp;&nbsp;&nbsp;&nbsp;&nbsp;&nbsp;&nbsp;&nbsp;&nbsp;&nbsp;&nbsp;&nbsp;&nbsp;&nbsp;3&nbsp;&nbsp;&nbsp;&nbsp;&nbsp;&nbsp;&nbsp;&nbsp;&nbsp;&nbsp;&nbsp;&nbsp;&nbsp;&nbsp;&nbsp;&nbsp;&nbsp;&nbsp;&nbsp;4</p><p style=""font-size:14px"">Not at all familiar&nbsp;&nbsp;&nbsp;&nbsp;A little familiar&nbsp;&nbsp;&nbsp;Moderately familiar&nbsp;&nbsp;&nbsp;Extremely familiar</p><p>(press the corresponding number on your keyboard)</p>","","52","","","FAM-RESPONSE","","","","","","","","","","","","","","","","","","","sounds/A/FAM/P002.mp3","partword","","","","","","","","","","","","","","","","","","",""
"html-keyboard-response","264","1555637","0.0-7.0-1.0-0.8","1","1","tl4mcw5b78391x9","","null","","","","null","","","","","","","","","","","","","","","","","","","","","","","","","","","","","","","","","","","","","","","","","",""
"audio-keyboard-response","265","1556588","0.0-7.0-1.0-1.8","1","1","tl4mcw5b78391x9","","null","","sounds/A/FAM/P003.mp3","","null","","","","","","","","","","","","","","","","","","","","","","","","","","","","","","","","","","","","","","","","","",""
"html-keyboard-response","266","1559529","0.0-7.0-1.0-2.8","1","1","tl4mcw5b78391x9","","2425.699999988079","","<p>How familiar did this sound to you?</p><p>1&nbsp;&nbsp;&nbsp;&nbsp;&nbsp;&nbsp;&nbsp;&nbsp;&nbsp;&nbsp;&nbsp;&nbsp;&nbsp;&nbsp;&nbsp;&nbsp;&nbsp;&nbsp;&nbsp;2&nbsp;&nbsp;&nbsp;&nbsp;&nbsp;&nbsp;&nbsp;&nbsp;&nbsp;&nbsp;&nbsp;&nbsp;&nbsp;&nbsp;&nbsp;&nbsp;&nbsp;&nbsp;&nbsp;3&nbsp;&nbsp;&nbsp;&nbsp;&nbsp;&nbsp;&nbsp;&nbsp;&nbsp;&nbsp;&nbsp;&nbsp;&nbsp;&nbsp;&nbsp;&nbsp;&nbsp;&nbsp;&nbsp;4</p><p style=""font-size:14px"">Not at all familiar&nbsp;&nbsp;&nbsp;&nbsp;A little familiar&nbsp;&nbsp;&nbsp;Moderately familiar&nbsp;&nbsp;&nbsp;Extremely familiar</p><p>(press the corresponding number on your keyboard)</p>","","50","","","FAM-RESPONSE","","","","","","","","","","","","","","","","","","","sounds/A/FAM/P003.mp3","partword","","","","","","","","","","","","","","","","","","",""
"html-keyboard-response","267","1561539","0.0-7.0-1.0-0.9","1","1","tl4mcw5b78391x9","","null","","","","null","","","","","","","","","","","","","","","","","","","","","","","","","","","","","","","","","","","","","","","","","",""
"audio-keyboard-response","268","1562481","0.0-7.0-1.0-1.9","1","1","tl4mcw5b78391x9","","null","","sounds/A/FAM/P001.mp3","","null","","","","","","","","","","","","","","","","","","","","","","","","","","","","","","","","","","","","","","","","","",""
"html-keyboard-response","269","1568356","0.0-7.0-1.0-2.9","1","1","tl4mcw5b78391x9","","5366.699999988079","","<p>How familiar did this sound to you?</p><p>1&nbsp;&nbsp;&nbsp;&nbsp;&nbsp;&nbsp;&nbsp;&nbsp;&nbsp;&nbsp;&nbsp;&nbsp;&nbsp;&nbsp;&nbsp;&nbsp;&nbsp;&nbsp;&nbsp;2&nbsp;&nbsp;&nbsp;&nbsp;&nbsp;&nbsp;&nbsp;&nbsp;&nbsp;&nbsp;&nbsp;&nbsp;&nbsp;&nbsp;&nbsp;&nbsp;&nbsp;&nbsp;&nbsp;3&nbsp;&nbsp;&nbsp;&nbsp;&nbsp;&nbsp;&nbsp;&nbsp;&nbsp;&nbsp;&nbsp;&nbsp;&nbsp;&nbsp;&nbsp;&nbsp;&nbsp;&nbsp;&nbsp;4</p><p style=""font-size:14px"">Not at all familiar&nbsp;&nbsp;&nbsp;&nbsp;A little familiar&nbsp;&nbsp;&nbsp;Moderately familiar&nbsp;&nbsp;&nbsp;Extremely familiar</p><p>(press the corresponding number on your keyboard)</p>","","52","","","FAM-RESPONSE","","","","","","","","","","","","","","","","","","","sounds/A/FAM/P001.mp3","partword","","","","","","","","","","","","","","","","","","",""
"html-keyboard-response","270","1570364","0.0-7.0-1.0-0.10","1","1","tl4mcw5b78391x9","","null","","","","null","","","","","","","","","","","","","","","","","","","","","","","","","","","","","","","","","","","","","","","","","",""
"audio-keyboard-response","271","1571310","0.0-7.0-1.0-1.10","1","1","tl4mcw5b78391x9","","null","","sounds/A/FAM/N003.mp3","","null","","","","","","","","","","","","","","","","","","","","","","","","","","","","","","","","","","","","","","","","","",""
"html-keyboard-response","272","1573024","0.0-7.0-1.0-2.10","1","1","tl4mcw5b78391x9","","1201.5999999940395","","<p>How familiar did this sound to you?</p><p>1&nbsp;&nbsp;&nbsp;&nbsp;&nbsp;&nbsp;&nbsp;&nbsp;&nbsp;&nbsp;&nbsp;&nbsp;&nbsp;&nbsp;&nbsp;&nbsp;&nbsp;&nbsp;&nbsp;2&nbsp;&nbsp;&nbsp;&nbsp;&nbsp;&nbsp;&nbsp;&nbsp;&nbsp;&nbsp;&nbsp;&nbsp;&nbsp;&nbsp;&nbsp;&nbsp;&nbsp;&nbsp;&nbsp;3&nbsp;&nbsp;&nbsp;&nbsp;&nbsp;&nbsp;&nbsp;&nbsp;&nbsp;&nbsp;&nbsp;&nbsp;&nbsp;&nbsp;&nbsp;&nbsp;&nbsp;&nbsp;&nbsp;4</p><p style=""font-size:14px"">Not at all familiar&nbsp;&nbsp;&nbsp;&nbsp;A little familiar&nbsp;&nbsp;&nbsp;Moderately familiar&nbsp;&nbsp;&nbsp;Extremely familiar</p><p>(press the corresponding number on your keyboard)</p>","","51","","","FAM-RESPONSE","","","","","","","","","","","","","","","","","","","sounds/A/FAM/N003.mp3","nonword","","","","","","","","","","","","","","","","","","",""
"html-keyboard-response","273","1575044","0.0-7.0-1.0-0.11","1","1","tl4mcw5b78391x9","","null","","","","null","","","","","","","","","","","","","","","","","","","","","","","","","","","","","","","","","","","","","","","","","",""
"audio-keyboard-response","274","1575990","0.0-7.0-1.0-1.11","1","1","tl4mcw5b78391x9","","null","","sounds/A/FAM/N001.mp3","","null","","","","","","","","","","","","","","","","","","","","","","","","","","","","","","","","","","","","","","","","","",""
"html-keyboard-response","275","1577544","0.0-7.0-1.0-2.11","1","1","tl4mcw5b78391x9","","1046.0999999940395","","<p>How familiar did this sound to you?</p><p>1&nbsp;&nbsp;&nbsp;&nbsp;&nbsp;&nbsp;&nbsp;&nbsp;&nbsp;&nbsp;&nbsp;&nbsp;&nbsp;&nbsp;&nbsp;&nbsp;&nbsp;&nbsp;&nbsp;2&nbsp;&nbsp;&nbsp;&nbsp;&nbsp;&nbsp;&nbsp;&nbsp;&nbsp;&nbsp;&nbsp;&nbsp;&nbsp;&nbsp;&nbsp;&nbsp;&nbsp;&nbsp;&nbsp;3&nbsp;&nbsp;&nbsp;&nbsp;&nbsp;&nbsp;&nbsp;&nbsp;&nbsp;&nbsp;&nbsp;&nbsp;&nbsp;&nbsp;&nbsp;&nbsp;&nbsp;&nbsp;&nbsp;4</p><p style=""font-size:14px"">Not at all familiar&nbsp;&nbsp;&nbsp;&nbsp;A little familiar&nbsp;&nbsp;&nbsp;Moderately familiar&nbsp;&nbsp;&nbsp;Extremely familiar</p><p>(press the corresponding number on your keyboard)</p>","","51","","","FAM-RESPONSE","","","","","","","","","","","","","","","","","","","sounds/A/FAM/N001.mp3","nonword","","","","","","","","","","","","","","","","","","",""
"html-button-response","276","1604170","0.0-8.0-0.0","1","1","tl4mcw5b78391x9","","25620.80000001192","","<p>You will now listen to longer sound sequences.</p><p>Each sound sequence will last about 16 seconds.</p><p>On each trial, you will be given a <u>TARGET SOUND</u>. Your task is to listen very carefully for this sound.</p><p>Every time you hear the <u>TARGET SOUND</u>, you will press the <b>SPACEBAR</b> as quickly and accurately as you can.</p>","0","","","","","","","","","","","","","","","","","","","","","","","","","","","","","","","","","","","","","","","","","","",""
"html-button-response","277","1643496","0.0-8.0-1.0","1","1","tl4mcw5b78391x9","","39072.80000001192","","<p>It is very important that you make your responses as quickly and accurately as possible.</p><p>To help you make your responses, you will be able to listen to the <u>TARGET SOUND</u> at the beginning of each trial.</p><p>There will be 36 total trials.</p><p><b>Note: This is meant to be a difficult task. We simply want you to try your best.</p>","0","","","","","","","","","","","","","","","","","","","","","","","","","","","","","","","","","","","","","","","","","","",""
"html-button-response","278","1672349","0.0-8.0-2.0-0.0","1","1","tl4mcw5b78391x9","","28598.59999999404","","<p>Trial 1 of 36</p>","0","","","","","","","","","","","","","","","","","","","","","","","","","TA","sounds/syllables/ta_SWS.wav","5400,7200,9000,12600","1","","","","","","","","","","","","","","",""
"html-keyboard-response","279","1675272","0.0-8.0-2.0-1.0","1","1","tl4mcw5b78391x9","","2920.699999988079","","","","80","","","","","","","","","","","","","","","","","","","","","","","","TA","","5400,7200,9000,12600","1","","","","","","","","","","","","","","",""
"audio-keyboard-response","280","1676516","0.0-8.0-2.0-2.0-0.0","1","1","tl4mcw5b78391x9","","null","","sounds/syllables/ta_SWS.wav","","null","","","","","","","","","","","","","","","","","","","","","","","","","","","","","","","","","","","","","","","","","",""
"html-keyboard-response","281","1678321","0.0-8.0-2.0-2.0-1.0","1","1","tl4mcw5b78391x9","","1804","","<p>To replay the <u>TARGET SOUND</u>, press P.</p> When you are ready to begin, press SPACEBAR.","","80","","","","","","","","","","","","","","","","","","","","","","","","","","","","","","","","","","","","","","","","","",""
"audio-keyboard-response","282","1679126","0.0-8.0-2.0-2.1-0.1","1","1","tl4mcw5b78391x9","","null","","sounds/syllables/ta_SWS.wav","","null","","","","","","","","","","","","","","","","","","","","","","","","","","","","","","","","","","","","","","","","","",""
"html-keyboard-response","283","1682162","0.0-8.0-2.0-2.1-1.1","1","1","tl4mcw5b78391x9","","3034.9000000059605","","<p>To replay the <u>TARGET SOUND</u>, press P.</p> When you are ready to begin, press SPACEBAR.","","80","","","","","","","","","","","","","","","","","","","","","","","","","","","","","","","","","","","","","","","","","",""
"audio-keyboard-response","284","1682986","0.0-8.0-2.0-2.2-0.2","1","1","tl4mcw5b78391x9","","null","","sounds/syllables/ta_SWS.wav","","null","","","","","","","","","","","","","","","","","","","","","","","","","","","","","","","","","","","","","","","","","",""
"html-keyboard-response","285","1690638","0.0-8.0-2.0-2.2-1.2","1","1","tl4mcw5b78391x9","","7651.699999988079","","<p>To replay the <u>TARGET SOUND</u>, press P.</p> When you are ready to begin, press SPACEBAR.","","80","","","","","","","","","","","","","","","","","","","","","","","","","","","","","","","","","","","","","","","","","",""
"audio-keyboard-response","286","1691466","0.0-8.0-2.0-2.3-0.3","1","1","tl4mcw5b78391x9","","null","","sounds/syllables/ta_SWS.wav","","null","","","","","","","","","","","","","","","","","","","","","","","","","","","","","","","","","","","","","","","","","",""
"html-keyboard-response","287","1692951","0.0-8.0-2.0-2.3-1.3","1","1","tl4mcw5b78391x9","","1483.7999999821186","","<p>To replay the <u>TARGET SOUND</u>, press P.</p> When you are ready to begin, press SPACEBAR.","","32","","","","","","","","","","","","","","","","","","","","","","","","","","","","","","","","","","","","","","","","","",""
"audio-keyboard-response","288","1707909","0.0-8.0-2.0-3.0","1","1","tl4mcw5b78391x9","","771","","sounds/A/TD/TA_09_TD.mp3","","32","","","TD_SUMMARY","","","","","","","","","","","","","","","","","","","","","TA","","5400,7200,9000,12600","1","5400","7200","9000","12600","533.0999999940395","633.5999999940395","435.2999999821186","403.5","763.9000000059605_2776_3539.5999999940395_5464.0999999940395_5933.0999999940395_7147.4000000059605_7833.5999999940395_9435.299999982119_11088.199999988079_11643.699999988079_13003.5","4","","","","",""
"html-button-response","289","1715121","0.0-8.0-2.0-0.1","1","1","tl4mcw5b78391x9","","7208.699999988079","","<p>Trial 2 of 36</p>","0","","","","","","","","","","","","","","","","","","","","","","","","","FU","sounds/syllables/fu_SWS.wav","3000,8400,10200,12900","2","","","","","","","","","","","","","","",""
"html-keyboard-response","290","1715981","0.0-8.0-2.0-1.1","1","1","tl4mcw5b78391x9","","857","","","","80","","","","","","","","","","","","","","","","","","","","","","","","FU","","3000,8400,10200,12900","2","","","","","","","","","","","","","","",""
"audio-keyboard-response","291","1716279","0.0-8.0-2.0-2.4-0.4","1","1","tl4mcw5b78391x9","","null","","sounds/syllables/fu_SWS.wav","","null","","","","","","","","","","","","","","","","","","","","","","","","","","","","","","","","","","","","","","","","","",""
"html-keyboard-response","292","1717240","0.0-8.0-2.0-2.4-1.4","1","1","tl4mcw5b78391x9","","960.1999999880791","","<p>To replay the <u>TARGET SOUND</u>, press P.</p> When you are ready to begin, press SPACEBAR.","","80","","","","","","","","","","","","","","","","","","","","","","","","","","","","","","","","","","","","","","","","","",""
"audio-keyboard-response","293","1718039","0.0-8.0-2.0-2.5-0.5","1","1","tl4mcw5b78391x9","","null","","sounds/syllables/fu_SWS.wav","","null","","","","","","","","","","","","","","","","","","","","","","","","","","","","","","","","","","","","","","","","","",""
"html-keyboard-response","294","1718548","0.0-8.0-2.0-2.5-1.5","1","1","tl4mcw5b78391x9","","508.2999999821186","","<p>To replay the <u>TARGET SOUND</u>, press P.</p> When you are ready to begin, press SPACEBAR.","","80","","","","","","","","","","","","","","","","","","","","","","","","","","","","","","","","","","","","","","","","","",""
"audio-keyboard-response","295","1719359","0.0-8.0-2.0-2.6-0.6","1","1","tl4mcw5b78391x9","","null","","sounds/syllables/fu_SWS.wav","","null","","","","","","","","","","","","","","","","","","","","","","","","","","","","","","","","","","","","","","","","","",""
"html-keyboard-response","296","1720591","0.0-8.0-2.0-2.6-1.6","1","1","tl4mcw5b78391x9","","1231.2000000178814","","<p>To replay the <u>TARGET SOUND</u>, press P.</p> When you are ready to begin, press SPACEBAR.","","80","","","","","","","","","","","","","","","","","","","","","","","","","","","","","","","","","","","","","","","","","",""
"audio-keyboard-response","297","1721399","0.0-8.0-2.0-2.7-0.7","1","1","tl4mcw5b78391x9","","null","","sounds/syllables/fu_SWS.wav","","null","","","","","","","","","","","","","","","","","","","","","","","","","","","","","","","","","","","","","","","","","",""
"html-keyboard-response","298","1722118","0.0-8.0-2.0-2.7-1.7","1","1","tl4mcw5b78391x9","","718.0999999940395","","<p>To replay the <u>TARGET SOUND</u>, press P.</p> When you are ready to begin, press SPACEBAR.","","80","","","","","","","","","","","","","","","","","","","","","","","","","","","","","","","","","","","","","","","","","",""
"audio-keyboard-response","299","1722919","0.0-8.0-2.0-2.8-0.8","1","1","tl4mcw5b78391x9","","null","","sounds/syllables/fu_SWS.wav","","null","","","","","","","","","","","","","","","","","","","","","","","","","","","","","","","","","","","","","","","","","",""
"html-keyboard-response","300","1723916","0.0-8.0-2.0-2.8-1.8","1","1","tl4mcw5b78391x9","","996.1999999880791","","<p>To replay the <u>TARGET SOUND</u>, press P.</p> When you are ready to begin, press SPACEBAR.","","32","","","","","","","","","","","","","","","","","","","","","","","","","","","","","","","","","","","","","","","","","",""
"audio-keyboard-response","301","1738859","0.0-8.0-2.0-3.1","1","1","tl4mcw5b78391x9","","1488","","sounds/A/TD/FU_09_TD.mp3","","32","","","TD_SUMMARY","","","","","","","","","","","","","","","","","","","","","FU","","3000,8400,10200,12900","2","3000","8400","10200","12900","717","1187.4000000059605","null","624.1999999880791","___________1483.4000000059605_3717_5167.5999999940395_6192.4000000059605_8960.59999999404_9587.40000000596_10217.299999982119_13524.199999988079","5","","","","",""
"html-button-response","302","1754152","0.0-8.0-2.0-0.2","1","1","tl4mcw5b78391x9","","15290.200000017881","","<p>Trial 3 of 36</p>","0","","","","","","","","","","","","","","","","","","","","","","","","","FU","sounds/syllables/fu_SWS.wav","1200,3900,6600,11100","2","","","","","","","","","","","","","","",""
"html-keyboard-response","303","1755741","0.0-8.0-2.0-1.2","1","1","tl4mcw5b78391x9","","1586.5999999940395","","","","80","","","","","","","","","","","","","","","","","","","","","","","","FU","","1200,3900,6600,11100","2","","","","","","","","","","","","","","",""
"audio-keyboard-response","304","1756039","0.0-8.0-2.0-2.9-0.9","1","1","tl4mcw5b78391x9","","null","","sounds/syllables/fu_SWS.wav","","null","","","","","","","","","","","","","","","","","","","","","","","","","","","","","","","","","","","","","","","","","",""
"html-keyboard-response","305","1756386","0.0-8.0-2.0-2.9-1.9","1","1","tl4mcw5b78391x9","","346.5","","<p>To replay the <u>TARGET SOUND</u>, press P.</p> When you are ready to begin, press SPACEBAR.","","80","","","","","","","","","","","","","","","","","","","","","","","","","","","","","","","","","","","","","","","","","",""
"audio-keyboard-response","306","1757199","0.0-8.0-2.0-2.10-0.10","1","1","tl4mcw5b78391x9","","null","","sounds/syllables/fu_SWS.wav","","null","","","","","","","","","","","","","","","","","","","","","","","","","","","","","","","","","","","","","","","","","",""
"html-keyboard-response","307","1757777","0.0-8.0-2.0-2.10-1.10","1","1","tl4mcw5b78391x9","","576.9000000059605","","<p>To replay the <u>TARGET SOUND</u>, press P.</p> When you are ready to begin, press SPACEBAR.","","80","","","","","","","","","","","","","","","","","","","","","","","","","","","","","","","","","","","","","","","","","",""
"audio-keyboard-response","308","1758589","0.0-8.0-2.0-2.11-0.11","1","1","tl4mcw5b78391x9","","null","","sounds/syllables/fu_SWS.wav","","null","","","","","","","","","","","","","","","","","","","","","","","","","","","","","","","","","","","","","","","","","",""
"html-keyboard-response","309","1760963","0.0-8.0-2.0-2.11-1.11","1","1","tl4mcw5b78391x9","","2372.7999999821186","","<p>To replay the <u>TARGET SOUND</u>, press P.</p> When you are ready to begin, press SPACEBAR.","","32","","","","","","","","","","","","","","","","","","","","","","","","","","","","","","","","","","","","","","","","","",""
"audio-keyboard-response","310","1775907","0.0-8.0-2.0-3.2","1","1","tl4mcw5b78391x9","","1752","","sounds/A/TD/FU_06_TD.mp3","","32","","","TD_SUMMARY","","","","","","","","","","","","","","","","","","","","","FU","","1200,3900,6600,11100","2","1200","3900","6600","11100","1092.7999999821186","653.7999999821186","475.09999999403954","1102","___________________1743.5_2292.7999999821186_2643.7999999821186_4299.399999976158_4553.799999982119_7075.0999999940395_8681.09999999404_8869.899999976158_9594.299999982119_11541.399999976158_12202_12719.199999988079_14058.299999982119_14209.899999976158","3","","","","",""
"html-button-response","311","1776881","0.0-8.0-2.0-0.3","1","1","tl4mcw5b78391x9","","970.8000000119209","","<p>Trial 4 of 36</p>","0","","","","","","","","","","","","","","","","","","","","","","","","","TI","sounds/syllables/ti_SWS.wav","3000,6600,9300,11100","2","","","","","","","","","","","","","","",""
"html-keyboard-response","312","1777972","0.0-8.0-2.0-1.3","1","1","tl4mcw5b78391x9","","1089.9000000059605","","","","80","","","","","","","","","","","","","","","","","","","","","","","","TI","","3000,6600,9300,11100","2","","","","","","","","","","","","","","",""
"audio-keyboard-response","313","1778277","0.0-8.0-2.0-2.12-0.12","1","1","tl4mcw5b78391x9","","null","","sounds/syllables/ti_SWS.wav","","null","","","","","","","","","","","","","","","","","","","","","","","","","","","","","","","","","","","","","","","","","",""
