"trial_type","trial_index","time_elapsed","internal_node_id","counterbalance","lang_instruct","ParticipantID","view_history","rt","url","stimulus","button_pressed","key_press","correctRESP","correct","designation","location","correctanswer","responses","sentence","keywords","typed_resp","keyword1_acc","keyword2_acc","keyword3_acc","keyword4_acc","keyword5_acc","total_acc","prop_acc","timeouts","pause_rt01","pause_rt02","train_file","numKeyPress","sound","fam_type","SYLLABLE","EXEMPLAR","TD_LOCS","TD_TYPE","TDLOC_01","TDLOC_02","TDLOC_03","TDLOC_04","TD_RT_01","TD_RT_02","TD_RT_03","TD_RT_04","TD_SUBJ_RTs","number_of_plays","slider_start","response","question_order","syllable","syllable_type"
"pavlovia","0","5","0.0-0.0","2","1","k6d13ehd61xg8sv","","","","","","","","","","","","","","","","","","","","","","","","","","","","","","","","","","","","","","","","","","","","","","","",""
"instructions","1","360188","0.0-1.0","2","1","k6d13ehd61xg8sv","[{""page_index"":0,""viewing_time"":3136.099999964237},{""page_index"":1,""viewing_time"":357029.8000000119}]","360172.2999999523","","","","","","","","","","","","","","","","","","","","","","","","","","","","","","","","","","","","","","","","","","","","","",""
"external-html","2","2344876","0.0-2.0","2","1","k6d13ehd61xg8sv","","187042.80000001192","consent/consent.html","","","","","","","","","","","","","","","","","","","","","","","","","","","","","","","","","","","","","","","","","","","","",""
"html-button-response","3","2346656","0.0-3.0-0.0-0.0","2","1","k6d13ehd61xg8sv","","1777.7999999523163","","<p>Welcome to the study. You will first complete a short volume calibration and headphone check.</p><p>Please make sure you are in a quiet listening environment, that you are wearing headphones, and that your computer's volume is turned on.<p></p>","0","","","","","","","","","","","","","","","","","","","","","","","","","","","","","","","","","","","","","","","","","","",""
"html-button-response","4","2347952","0.0-3.0-0.0-1.0","2","1","k6d13ehd61xg8sv","","1044.3999999761581","","<p>The volume calibration will be first.</p><p>You will hear a thirty-second noise. Please adjust your computer's volume so that this noise is being presented at a comfortable level.<p></p>","0","","","","","","","","","","","","","","","","","","","","","","","","","","","","","","","","","","","","","","","","","","",""
"audio-button-response","5","2350809","0.0-3.0-0.0-2.0","2","1","k6d13ehd61xg8sv","","2480","","audCalib/volumetest.mp3","0","","","","","","","","","","","","","","","","","","","","","","","","","","","","","","","","","","","","","","","","","","",""
"html-button-response","6","2425634","0.0-3.0-1.0-0.0","2","1","k6d13ehd61xg8sv","","74821.80000001192","","<p>You will now complete a short headphone check.</p><p>On each trial, you will hear three tones. One of these tones will be quieter than the others. Your task is to identify whether the quiet tone occured first, second, or third.</p><p>There are six trials in total.<p></p>","0","","","","","","","","","","","","","","","","","","","","","","","","","","","","","","","","","","","","","","","","","","",""
"html-keyboard-response","7","2426388","0.0-3.0-1.0-1.0-0.0","2","1","k6d13ehd61xg8sv","","null","","<div style=""font-size:60px;"">+</div>","","null","","","","","","","","","","","","","","","","","","","","","","","","","","","","","","","","","","","","","","","","","",""
"audio-button-response","8","2433604","0.0-3.0-1.0-1.0-1.0","2","1","k6d13ehd61xg8sv","","6789","","audCalib/t1_1.mp3","0","","0","1","headphone-test","","","","","","","","","","","","","","","","","","","","","","","","","","","","","","","","","","","","","","",""
"html-keyboard-response","9","2434359","0.0-3.0-1.0-1.0-0.1","2","1","k6d13ehd61xg8sv","","null","","<div style=""font-size:60px;"">+</div>","","null","","","","","","","","","","","","","","","","","","","","","","","","","","","","","","","","","","","","","","","","","",""
"audio-button-response","10","2438655","0.0-3.0-1.0-1.0-1.1","2","1","k6d13ehd61xg8sv","","4293","","audCalib/t2_1.mp3","1","","1","1","headphone-test","","","","","","","","","","","","","","","","","","","","","","","","","","","","","","","","","","","","","","",""
"html-keyboard-response","11","2439413","0.0-3.0-1.0-1.0-0.2","2","1","k6d13ehd61xg8sv","","null","","<div style=""font-size:60px;"">+</div>","","null","","","","","","","","","","","","","","","","","","","","","","","","","","","","","","","","","","","","","","","","","",""
"audio-button-response","12","2445479","0.0-3.0-1.0-1.0-1.2","2","1","k6d13ehd61xg8sv","","6064","","audCalib/t2_2.mp3","0","","1","0","headphone-test","","","","","","","","","","","","","","","","","","","","","","","","","","","","","","","","","","","","","","",""
"html-keyboard-response","13","2446235","0.0-3.0-1.0-1.0-0.3","2","1","k6d13ehd61xg8sv","","null","","<div style=""font-size:60px;"">+</div>","","null","","","","","","","","","","","","","","","","","","","","","","","","","","","","","","","","","","","","","","","","","",""
"audio-button-response","14","2454228","0.0-3.0-1.0-1.0-1.3","2","1","k6d13ehd61xg8sv","","7995","","audCalib/t3_2.mp3","0","","2","0","headphone-test","","","","","","","","","","","","","","","","","","","","","","","","","","","","","","","","","","","","","","",""
"html-keyboard-response","15","2454983","0.0-3.0-1.0-1.0-0.4","2","1","k6d13ehd61xg8sv","","null","","<div style=""font-size:60px;"">+</div>","","null","","","","","","","","","","","","","","","","","","","","","","","","","","","","","","","","","","","","","","","","","",""
"audio-button-response","16","2459461","0.0-3.0-1.0-1.0-1.4","2","1","k6d13ehd61xg8sv","","4475","","audCalib/t1_2.mp3","0","","0","1","headphone-test","","","","","","","","","","","","","","","","","","","","","","","","","","","","","","","","","","","","","","",""
"html-keyboard-response","17","2460217","0.0-3.0-1.0-1.0-0.5","2","1","k6d13ehd61xg8sv","","null","","<div style=""font-size:60px;"">+</div>","","null","","","","","","","","","","","","","","","","","","","","","","","","","","","","","","","","","","","","","","","","","",""
"audio-button-response","18","2464654","0.0-3.0-1.0-1.0-1.5","2","1","k6d13ehd61xg8sv","","4437","","audCalib/t3_1.mp3","2","","2","1","headphone-test","","","","","","","","","","","","","","","","","","","","","","","","","","","","","","","","","","","","","","",""
"html-button-response","19","2466487","0.0-3.0-2.0","2","1","k6d13ehd61xg8sv","","1577.7000000476837","","<p>The volume calibration and headphone check are now complete.</p>","0","","","","","","","","","","","","","","","","","","","","","","","","","","","","","","","","","","","","","","","","","","",""
"instructions","20","2474161","0.0-4.0-0.0","2","1","k6d13ehd61xg8sv","[{""page_index"":0,""viewing_time"":1020.6000000238419},{""page_index"":1,""viewing_time"":3664.899999976158},{""page_index"":2,""viewing_time"":2987.400000035763}]","7673.300000011921","","","","","","","","","","","","","","","","","","","","","","","","","","","","","","","","","","","","","","","","","","","","","",""
"audio-keyboard-response","21","2474462","0.0-4.0-1.0-0.0","2","1","k6d13ehd61xg8sv","","null","","sounds/induction/left/fe_SWS.wav","","null","","","","","","","","","","","","","","","","","","","","","","","","","","","","","","","","","","","","","","","","","",""
"html-button-response","22","2476608","0.0-4.0-1.0-1.0","2","1","k6d13ehd61xg8sv","","2144.199999988079","","What sound did you hear?","0","","","0","INDUCTION-JUDGMENT","left","1","","","","","","","","","","","","","","","","","","","","","","","","","","","","","","","","","","","","",""
"html-keyboard-response","23","2477610","0.0-4.0-1.0-2.0","2","1","k6d13ehd61xg8sv","","null","","<p style=""color:red;""><b>Incorrect!</b></p>","","null","","","","","","","","","","","","","","","","","","","","","","","","","","","","","","","","","","","","","","","","","",""
"audio-keyboard-response","24","2478415","0.0-4.0-1.0-0.1","2","1","k6d13ehd61xg8sv","","null","","sounds/induction/right/me_SWS.wav","","null","","","","","","","","","","","","","","","","","","","","","","","","","","","","","","","","","","","","","","","","","",""
"html-button-response","25","2512599","0.0-4.0-1.0-1.1","2","1","k6d13ehd61xg8sv","","34180.700000047684","","What sound did you hear?","0","","","1","INDUCTION-JUDGMENT","right","0","","","","","","","","","","","","","","","","","","","","","","","","","","","","","","","","","","","","",""
"html-keyboard-response","26","2513606","0.0-4.0-1.0-2.1","2","1","k6d13ehd61xg8sv","","null","","<p style=""color:green;""><b>Correct!</b></p>","","null","","","","","","","","","","","","","","","","","","","","","","","","","","","","","","","","","","","","","","","","","",""
"audio-keyboard-response","27","2514623","0.0-4.0-1.0-0.2","2","1","k6d13ehd61xg8sv","","null","","sounds/induction/right/ge_SWS.wav","","null","","","","","","","","","","","","","","","","","","","","","","","","","","","","","","","","","","","","","","","","","",""
"html-button-response","28","2516287","0.0-4.0-1.0-1.2","2","1","k6d13ehd61xg8sv","","1663.300000011921","","What sound did you hear?","0","","","1","INDUCTION-JUDGMENT","right","0","","","","","","","","","","","","","","","","","","","","","","","","","","","","","","","","","","","","",""
"html-keyboard-response","29","2517292","0.0-4.0-1.0-2.2","2","1","k6d13ehd61xg8sv","","null","","<p style=""color:green;""><b>Correct!</b></p>","","null","","","","","","","","","","","","","","","","","","","","","","","","","","","","","","","","","","","","","","","","","",""
"audio-keyboard-response","30","2518100","0.0-4.0-1.0-0.3","2","1","k6d13ehd61xg8sv","","null","","sounds/induction/left/pu_SWS.wav","","null","","","","","","","","","","","","","","","","","","","","","","","","","","","","","","","","","","","","","","","","","",""
"html-button-response","31","2519326","0.0-4.0-1.0-1.3","2","1","k6d13ehd61xg8sv","","1225.0999999642372","","What sound did you hear?","0","","","1","INDUCTION-JUDGMENT","left","0","","","","","","","","","","","","","","","","","","","","","","","","","","","","","","","","","","","","",""
"html-keyboard-response","32","2520329","0.0-4.0-1.0-2.3","2","1","k6d13ehd61xg8sv","","null","","<p style=""color:green;""><b>Correct!</b></p>","","null","","","","","","","","","","","","","","","","","","","","","","","","","","","","","","","","","","","","","","","","","",""
"audio-keyboard-response","33","2521136","0.0-4.0-1.0-0.4","2","1","k6d13ehd61xg8sv","","null","","sounds/induction/right/pu_SWS.wav","","null","","","","","","","","","","","","","","","","","","","","","","","","","","","","","","","","","","","","","","","","","",""
"html-button-response","34","2522379","0.0-4.0-1.0-1.4","2","1","k6d13ehd61xg8sv","","1241.7000000476837","","What sound did you hear?","1","","","1","INDUCTION-JUDGMENT","right","1","","","","","","","","","","","","","","","","","","","","","","","","","","","","","","","","","","","","",""
"html-keyboard-response","35","2523380","0.0-4.0-1.0-2.4","2","1","k6d13ehd61xg8sv","","null","","<p style=""color:green;""><b>Correct!</b></p>","","null","","","","","","","","","","","","","","","","","","","","","","","","","","","","","","","","","","","","","","","","","",""
"audio-keyboard-response","36","2524185","0.0-4.0-1.0-0.5","2","1","k6d13ehd61xg8sv","","null","","sounds/induction/right/ta_SWS.wav","","null","","","","","","","","","","","","","","","","","","","","","","","","","","","","","","","","","","","","","","","","","",""
"html-button-response","37","2525355","0.0-4.0-1.0-1.5","2","1","k6d13ehd61xg8sv","","1166.7999999523163","","What sound did you hear?","1","","","1","INDUCTION-JUDGMENT","right","1","","","","","","","","","","","","","","","","","","","","","","","","","","","","","","","","","","","","",""
"html-keyboard-response","38","2526357","0.0-4.0-1.0-2.5","2","1","k6d13ehd61xg8sv","","null","","<p style=""color:green;""><b>Correct!</b></p>","","null","","","","","","","","","","","","","","","","","","","","","","","","","","","","","","","","","","","","","","","","","",""
"audio-keyboard-response","39","2527162","0.0-4.0-1.0-0.6","2","1","k6d13ehd61xg8sv","","null","","sounds/induction/left/fe_SWS.wav","","null","","","","","","","","","","","","","","","","","","","","","","","","","","","","","","","","","","","","","","","","","",""
"html-button-response","40","2528562","0.0-4.0-1.0-1.6","2","1","k6d13ehd61xg8sv","","1398.9000000357628","","What sound did you hear?","1","","","1","INDUCTION-JUDGMENT","left","1","","","","","","","","","","","","","","","","","","","","","","","","","","","","","","","","","","","","",""
"html-keyboard-response","41","2529566","0.0-4.0-1.0-2.6","2","1","k6d13ehd61xg8sv","","null","","<p style=""color:green;""><b>Correct!</b></p>","","null","","","","","","","","","","","","","","","","","","","","","","","","","","","","","","","","","","","","","","","","","",""
"audio-keyboard-response","42","2530372","0.0-4.0-1.0-0.7","2","1","k6d13ehd61xg8sv","","null","","sounds/induction/left/ta_SWS.wav","","null","","","","","","","","","","","","","","","","","","","","","","","","","","","","","","","","","","","","","","","","","",""
"html-button-response","43","2531794","0.0-4.0-1.0-1.7","2","1","k6d13ehd61xg8sv","","1420.2999999523163","","What sound did you hear?","0","","","1","INDUCTION-JUDGMENT","left","0","","","","","","","","","","","","","","","","","","","","","","","","","","","","","","","","","","","","",""
"html-keyboard-response","44","2532798","0.0-4.0-1.0-2.7","2","1","k6d13ehd61xg8sv","","null","","<p style=""color:green;""><b>Correct!</b></p>","","null","","","","","","","","","","","","","","","","","","","","","","","","","","","","","","","","","","","","","","","","","",""
"audio-keyboard-response","45","2533606","0.0-4.0-1.0-0.8","2","1","k6d13ehd61xg8sv","","null","","sounds/induction/right/fu_SWS.wav","","null","","","","","","","","","","","","","","","","","","","","","","","","","","","","","","","","","","","","","","","","","",""
"html-button-response","46","2535074","0.0-4.0-1.0-1.8","2","1","k6d13ehd61xg8sv","","1467.0999999642372","","What sound did you hear?","0","","","1","INDUCTION-JUDGMENT","right","0","","","","","","","","","","","","","","","","","","","","","","","","","","","","","","","","","","","","",""
"html-keyboard-response","47","2536076","0.0-4.0-1.0-2.8","2","1","k6d13ehd61xg8sv","","null","","<p style=""color:green;""><b>Correct!</b></p>","","null","","","","","","","","","","","","","","","","","","","","","","","","","","","","","","","","","","","","","","","","","",""
"audio-keyboard-response","48","2536884","0.0-4.0-1.0-0.9","2","1","k6d13ehd61xg8sv","","null","","sounds/induction/left/pu_SWS.wav","","null","","","","","","","","","","","","","","","","","","","","","","","","","","","","","","","","","","","","","","","","","",""
"html-button-response","49","2538038","0.0-4.0-1.0-1.9","2","1","k6d13ehd61xg8sv","","1152.199999988079","","What sound did you hear?","0","","","1","INDUCTION-JUDGMENT","left","0","","","","","","","","","","","","","","","","","","","","","","","","","","","","","","","","","","","","",""
"html-keyboard-response","50","2539039","0.0-4.0-1.0-2.9","2","1","k6d13ehd61xg8sv","","null","","<p style=""color:green;""><b>Correct!</b></p>","","null","","","","","","","","","","","","","","","","","","","","","","","","","","","","","","","","","","","","","","","","","",""
"audio-keyboard-response","51","2539845","0.0-4.0-1.0-0.10","2","1","k6d13ehd61xg8sv","","null","","sounds/induction/left/su_SWS.wav","","null","","","","","","","","","","","","","","","","","","","","","","","","","","","","","","","","","","","","","","","","","",""
"html-button-response","52","2541278","0.0-4.0-1.0-1.10","2","1","k6d13ehd61xg8sv","","1432.2999999523163","","What sound did you hear?","0","","","1","INDUCTION-JUDGMENT","left","0","","","","","","","","","","","","","","","","","","","","","","","","","","","","","","","","","","","","",""
"html-keyboard-response","53","2542282","0.0-4.0-1.0-2.10","2","1","k6d13ehd61xg8sv","","null","","<p style=""color:green;""><b>Correct!</b></p>","","null","","","","","","","","","","","","","","","","","","","","","","","","","","","","","","","","","","","","","","","","","",""
"audio-keyboard-response","54","2543087","0.0-4.0-1.0-0.11","2","1","k6d13ehd61xg8sv","","null","","sounds/induction/right/ge_SWS.wav","","null","","","","","","","","","","","","","","","","","","","","","","","","","","","","","","","","","","","","","","","","","",""
"html-button-response","55","2544245","0.0-4.0-1.0-1.11","2","1","k6d13ehd61xg8sv","","1156.3999999761581","","What sound did you hear?","0","","","1","INDUCTION-JUDGMENT","right","0","","","","","","","","","","","","","","","","","","","","","","","","","","","","","","","","","","","","",""
"html-keyboard-response","56","2545248","0.0-4.0-1.0-2.11","2","1","k6d13ehd61xg8sv","","null","","<p style=""color:green;""><b>Correct!</b></p>","","null","","","","","","","","","","","","","","","","","","","","","","","","","","","","","","","","","","","","","","","","","",""
"audio-keyboard-response","57","2546053","0.0-4.0-1.0-0.12","2","1","k6d13ehd61xg8sv","","null","","sounds/induction/right/fe_SWS.wav","","null","","","","","","","","","","","","","","","","","","","","","","","","","","","","","","","","","","","","","","","","","",""
"html-button-response","58","2547285","0.0-4.0-1.0-1.12","2","1","k6d13ehd61xg8sv","","1231.0999999642372","","What sound did you hear?","0","","","1","INDUCTION-JUDGMENT","right","0","","","","","","","","","","","","","","","","","","","","","","","","","","","","","","","","","","","","",""
"html-keyboard-response","59","2548286","0.0-4.0-1.0-2.12","2","1","k6d13ehd61xg8sv","","null","","<p style=""color:green;""><b>Correct!</b></p>","","null","","","","","","","","","","","","","","","","","","","","","","","","","","","","","","","","","","","","","","","","","",""
"audio-keyboard-response","60","2549093","0.0-4.0-1.0-0.13","2","1","k6d13ehd61xg8sv","","null","","sounds/induction/left/ru_SWS.wav","","null","","","","","","","","","","","","","","","","","","","","","","","","","","","","","","","","","","","","","","","","","",""
"html-button-response","61","2550217","0.0-4.0-1.0-1.13","2","1","k6d13ehd61xg8sv","","1123.2999999523163","","What sound did you hear?","0","","","1","INDUCTION-JUDGMENT","left","0","","","","","","","","","","","","","","","","","","","","","","","","","","","","","","","","","","","","",""
"html-keyboard-response","62","2551223","0.0-4.0-1.0-2.13","2","1","k6d13ehd61xg8sv","","null","","<p style=""color:green;""><b>Correct!</b></p>","","null","","","","","","","","","","","","","","","","","","","","","","","","","","","","","","","","","","","","","","","","","",""
"audio-keyboard-response","63","2552032","0.0-4.0-1.0-0.14","2","1","k6d13ehd61xg8sv","","null","","sounds/induction/right/re_SWS.wav","","null","","","","","","","","","","","","","","","","","","","","","","","","","","","","","","","","","","","","","","","","","",""
"html-button-response","64","2553282","0.0-4.0-1.0-1.14","2","1","k6d13ehd61xg8sv","","1249.6000000238419","","What sound did you hear?","1","","","1","INDUCTION-JUDGMENT","right","1","","","","","","","","","","","","","","","","","","","","","","","","","","","","","","","","","","","","",""
"html-keyboard-response","65","2554288","0.0-4.0-1.0-2.14","2","1","k6d13ehd61xg8sv","","null","","<p style=""color:green;""><b>Correct!</b></p>","","null","","","","","","","","","","","","","","","","","","","","","","","","","","","","","","","","","","","","","","","","","",""
"audio-keyboard-response","66","2555093","0.0-4.0-1.0-0.15","2","1","k6d13ehd61xg8sv","","null","","sounds/induction/right/su_SWS.wav","","null","","","","","","","","","","","","","","","","","","","","","","","","","","","","","","","","","","","","","","","","","",""
"html-button-response","67","2556898","0.0-4.0-1.0-1.15","2","1","k6d13ehd61xg8sv","","1803.5","","What sound did you hear?","1","","","1","INDUCTION-JUDGMENT","right","1","","","","","","","","","","","","","","","","","","","","","","","","","","","","","","","","","","","","",""
"html-keyboard-response","68","2557904","0.0-4.0-1.0-2.15","2","1","k6d13ehd61xg8sv","","null","","<p style=""color:green;""><b>Correct!</b></p>","","null","","","","","","","","","","","","","","","","","","","","","","","","","","","","","","","","","","","","","","","","","",""
"audio-keyboard-response","69","2558709","0.0-4.0-1.0-0.16","2","1","k6d13ehd61xg8sv","","null","","sounds/induction/left/ti_SWS.wav","","null","","","","","","","","","","","","","","","","","","","","","","","","","","","","","","","","","","","","","","","","","",""
"html-button-response","70","2559890","0.0-4.0-1.0-1.16","2","1","k6d13ehd61xg8sv","","1180","","What sound did you hear?","0","","","1","INDUCTION-JUDGMENT","left","0","","","","","","","","","","","","","","","","","","","","","","","","","","","","","","","","","","","","",""
"html-keyboard-response","71","2560893","0.0-4.0-1.0-2.16","2","1","k6d13ehd61xg8sv","","null","","<p style=""color:green;""><b>Correct!</b></p>","","null","","","","","","","","","","","","","","","","","","","","","","","","","","","","","","","","","","","","","","","","","",""
"audio-keyboard-response","72","2561696","0.0-4.0-1.0-0.17","2","1","k6d13ehd61xg8sv","","null","","sounds/induction/right/ni_SWS.wav","","null","","","","","","","","","","","","","","","","","","","","","","","","","","","","","","","","","","","","","","","","","",""
"html-button-response","73","2562728","0.0-4.0-1.0-1.17","2","1","k6d13ehd61xg8sv","","1030.8999999761581","","What sound did you hear?","0","","","1","INDUCTION-JUDGMENT","right","0","","","","","","","","","","","","","","","","","","","","","","","","","","","","","","","","","","","","",""
"html-keyboard-response","74","2563730","0.0-4.0-1.0-2.17","2","1","k6d13ehd61xg8sv","","null","","<p style=""color:green;""><b>Correct!</b></p>","","null","","","","","","","","","","","","","","","","","","","","","","","","","","","","","","","","","","","","","","","","","",""
"audio-keyboard-response","75","2564533","0.0-4.0-1.0-0.18","2","1","k6d13ehd61xg8sv","","null","","sounds/induction/right/ru_SWS.wav","","null","","","","","","","","","","","","","","","","","","","","","","","","","","","","","","","","","","","","","","","","","",""
"html-button-response","76","2565677","0.0-4.0-1.0-1.18","2","1","k6d13ehd61xg8sv","","1142.7999999523163","","What sound did you hear?","1","","","1","INDUCTION-JUDGMENT","right","1","","","","","","","","","","","","","","","","","","","","","","","","","","","","","","","","","","","","",""
"html-keyboard-response","77","2566682","0.0-4.0-1.0-2.18","2","1","k6d13ehd61xg8sv","","null","","<p style=""color:green;""><b>Correct!</b></p>","","null","","","","","","","","","","","","","","","","","","","","","","","","","","","","","","","","","","","","","","","","","",""
"audio-keyboard-response","78","2567489","0.0-4.0-1.0-0.19","2","1","k6d13ehd61xg8sv","","null","","sounds/induction/right/ti_SWS.wav","","null","","","","","","","","","","","","","","","","","","","","","","","","","","","","","","","","","","","","","","","","","",""
"html-button-response","79","2568621","0.0-4.0-1.0-1.19","2","1","k6d13ehd61xg8sv","","1130.699999988079","","What sound did you hear?","1","","","1","INDUCTION-JUDGMENT","right","1","","","","","","","","","","","","","","","","","","","","","","","","","","","","","","","","","","","","",""
"html-keyboard-response","80","2569627","0.0-4.0-1.0-2.19","2","1","k6d13ehd61xg8sv","","null","","<p style=""color:green;""><b>Correct!</b></p>","","null","","","","","","","","","","","","","","","","","","","","","","","","","","","","","","","","","","","","","","","","","",""
"audio-keyboard-response","81","2570437","0.0-4.0-1.0-0.20","2","1","k6d13ehd61xg8sv","","null","","sounds/induction/left/ge_SWS.wav","","null","","","","","","","","","","","","","","","","","","","","","","","","","","","","","","","","","","","","","","","","","",""
"html-button-response","82","2572100","0.0-4.0-1.0-1.20","2","1","k6d13ehd61xg8sv","","1662.199999988079","","What sound did you hear?","0","","","0","INDUCTION-JUDGMENT","left","1","","","","","","","","","","","","","","","","","","","","","","","","","","","","","","","","","","","","",""
"html-keyboard-response","83","2573106","0.0-4.0-1.0-2.20","2","1","k6d13ehd61xg8sv","","null","","<p style=""color:red;""><b>Incorrect!</b></p>","","null","","","","","","","","","","","","","","","","","","","","","","","","","","","","","","","","","","","","","","","","","",""
"audio-keyboard-response","84","2573915","0.0-4.0-1.0-0.21","2","1","k6d13ehd61xg8sv","","null","","sounds/induction/left/fu_SWS.wav","","null","","","","","","","","","","","","","","","","","","","","","","","","","","","","","","","","","","","","","","","","","",""
"html-button-response","85","2575497","0.0-4.0-1.0-1.21","2","1","k6d13ehd61xg8sv","","1580.1000000238419","","What sound did you hear?","1","","","1","INDUCTION-JUDGMENT","left","1","","","","","","","","","","","","","","","","","","","","","","","","","","","","","","","","","","","","",""
"html-keyboard-response","86","2576498","0.0-4.0-1.0-2.21","2","1","k6d13ehd61xg8sv","","null","","<p style=""color:green;""><b>Correct!</b></p>","","null","","","","","","","","","","","","","","","","","","","","","","","","","","","","","","","","","","","","","","","","","",""
"audio-keyboard-response","87","2577302","0.0-4.0-1.0-0.22","2","1","k6d13ehd61xg8sv","","null","","sounds/induction/left/ru_SWS.wav","","null","","","","","","","","","","","","","","","","","","","","","","","","","","","","","","","","","","","","","","","","","",""
"html-button-response","88","2578402","0.0-4.0-1.0-1.22","2","1","k6d13ehd61xg8sv","","1098.7999999523163","","What sound did you hear?","0","","","1","INDUCTION-JUDGMENT","left","0","","","","","","","","","","","","","","","","","","","","","","","","","","","","","","","","","","","","",""
"html-keyboard-response","89","2579403","0.0-4.0-1.0-2.22","2","1","k6d13ehd61xg8sv","","null","","<p style=""color:green;""><b>Correct!</b></p>","","null","","","","","","","","","","","","","","","","","","","","","","","","","","","","","","","","","","","","","","","","","",""
"audio-keyboard-response","90","2580208","0.0-4.0-1.0-0.23","2","1","k6d13ehd61xg8sv","","null","","sounds/induction/left/re_SWS.wav","","null","","","","","","","","","","","","","","","","","","","","","","","","","","","","","","","","","","","","","","","","","",""
"html-button-response","91","2581201","0.0-4.0-1.0-1.23","2","1","k6d13ehd61xg8sv","","991","","What sound did you hear?","1","","","0","INDUCTION-JUDGMENT","left","0","","","","","","","","","","","","","","","","","","","","","","","","","","","","","","","","","","","","",""
"html-keyboard-response","92","2582206","0.0-4.0-1.0-2.23","2","1","k6d13ehd61xg8sv","","null","","<p style=""color:red;""><b>Incorrect!</b></p>","","null","","","","","","","","","","","","","","","","","","","","","","","","","","","","","","","","","","","","","","","","","",""
"audio-keyboard-response","93","2583014","0.0-4.0-1.0-0.24","2","1","k6d13ehd61xg8sv","","null","","sounds/induction/left/ti_SWS.wav","","null","","","","","","","","","","","","","","","","","","","","","","","","","","","","","","","","","","","","","","","","","",""
"html-button-response","94","2585041","0.0-4.0-1.0-1.24","2","1","k6d13ehd61xg8sv","","2024.8999999761581","","What sound did you hear?","0","","","1","INDUCTION-JUDGMENT","left","0","","","","","","","","","","","","","","","","","","","","","","","","","","","","","","","","","","","","",""
"html-keyboard-response","95","2586047","0.0-4.0-1.0-2.24","2","1","k6d13ehd61xg8sv","","null","","<p style=""color:green;""><b>Correct!</b></p>","","null","","","","","","","","","","","","","","","","","","","","","","","","","","","","","","","","","","","","","","","","","",""
"audio-keyboard-response","96","2586849","0.0-4.0-1.0-0.25","2","1","k6d13ehd61xg8sv","","null","","sounds/induction/left/ko_SWS.wav","","null","","","","","","","","","","","","","","","","","","","","","","","","","","","","","","","","","","","","","","","","","",""
"html-button-response","97","2587957","0.0-4.0-1.0-1.25","2","1","k6d13ehd61xg8sv","","1106.699999988079","","What sound did you hear?","1","","","1","INDUCTION-JUDGMENT","left","1","","","","","","","","","","","","","","","","","","","","","","","","","","","","","","","","","","","","",""
"html-keyboard-response","98","2588961","0.0-4.0-1.0-2.25","2","1","k6d13ehd61xg8sv","","null","","<p style=""color:green;""><b>Correct!</b></p>","","null","","","","","","","","","","","","","","","","","","","","","","","","","","","","","","","","","","","","","","","","","",""
"audio-keyboard-response","99","2589766","0.0-4.0-1.0-0.26","2","1","k6d13ehd61xg8sv","","null","","sounds/induction/left/ni_SWS.wav","","null","","","","","","","","","","","","","","","","","","","","","","","","","","","","","","","","","","","","","","","","","",""
"html-button-response","100","2590862","0.0-4.0-1.0-1.26","2","1","k6d13ehd61xg8sv","","1093.5999999642372","","What sound did you hear?","0","","","0","INDUCTION-JUDGMENT","left","1","","","","","","","","","","","","","","","","","","","","","","","","","","","","","","","","","","","","",""
"html-keyboard-response","101","2591865","0.0-4.0-1.0-2.26","2","1","k6d13ehd61xg8sv","","null","","<p style=""color:red;""><b>Incorrect!</b></p>","","null","","","","","","","","","","","","","","","","","","","","","","","","","","","","","","","","","","","","","","","","","",""
"audio-keyboard-response","102","2592667","0.0-4.0-1.0-0.27","2","1","k6d13ehd61xg8sv","","null","","sounds/induction/right/ta_SWS.wav","","null","","","","","","","","","","","","","","","","","","","","","","","","","","","","","","","","","","","","","","","","","",""
"html-button-response","103","2593845","0.0-4.0-1.0-1.27","2","1","k6d13ehd61xg8sv","","1175.6000000238419","","What sound did you hear?","1","","","1","INDUCTION-JUDGMENT","right","1","","","","","","","","","","","","","","","","","","","","","","","","","","","","","","","","","","","","",""
"html-keyboard-response","104","2594847","0.0-4.0-1.0-2.27","2","1","k6d13ehd61xg8sv","","null","","<p style=""color:green;""><b>Correct!</b></p>","","null","","","","","","","","","","","","","","","","","","","","","","","","","","","","","","","","","","","","","","","","","",""
"audio-keyboard-response","105","2595654","0.0-4.0-1.0-0.28","2","1","k6d13ehd61xg8sv","","null","","sounds/induction/left/me_SWS.wav","","null","","","","","","","","","","","","","","","","","","","","","","","","","","","","","","","","","","","","","","","","","",""
"html-button-response","106","2596649","0.0-4.0-1.0-1.28","2","1","k6d13ehd61xg8sv","","993.6000000238419","","What sound did you hear?","1","","","1","INDUCTION-JUDGMENT","left","1","","","","","","","","","","","","","","","","","","","","","","","","","","","","","","","","","","","","",""
"html-keyboard-response","107","2597654","0.0-4.0-1.0-2.28","2","1","k6d13ehd61xg8sv","","null","","<p style=""color:green;""><b>Correct!</b></p>","","null","","","","","","","","","","","","","","","","","","","","","","","","","","","","","","","","","","","","","","","","","",""
"audio-keyboard-response","108","2598461","0.0-4.0-1.0-0.29","2","1","k6d13ehd61xg8sv","","null","","sounds/induction/right/fu_SWS.wav","","null","","","","","","","","","","","","","","","","","","","","","","","","","","","","","","","","","","","","","","","","","",""
"html-button-response","109","2599481","0.0-4.0-1.0-1.29","2","1","k6d13ehd61xg8sv","","1018.1000000238419","","What sound did you hear?","0","","","1","INDUCTION-JUDGMENT","right","0","","","","","","","","","","","","","","","","","","","","","","","","","","","","","","","","","","","","",""
"html-keyboard-response","110","2600487","0.0-4.0-1.0-2.29","2","1","k6d13ehd61xg8sv","","null","","<p style=""color:green;""><b>Correct!</b></p>","","null","","","","","","","","","","","","","","","","","","","","","","","","","","","","","","","","","","","","","","","","","",""
"audio-keyboard-response","111","2601292","0.0-4.0-1.0-0.30","2","1","k6d13ehd61xg8sv","","null","","sounds/induction/right/ru_SWS.wav","","null","","","","","","","","","","","","","","","","","","","","","","","","","","","","","","","","","","","","","","","","","",""
"html-button-response","112","2602498","0.0-4.0-1.0-1.30","2","1","k6d13ehd61xg8sv","","1204.699999988079","","What sound did you hear?","1","","","1","INDUCTION-JUDGMENT","right","1","","","","","","","","","","","","","","","","","","","","","","","","","","","","","","","","","","","","",""
"html-keyboard-response","113","2603502","0.0-4.0-1.0-2.30","2","1","k6d13ehd61xg8sv","","null","","<p style=""color:green;""><b>Correct!</b></p>","","null","","","","","","","","","","","","","","","","","","","","","","","","","","","","","","","","","","","","","","","","","",""
"audio-keyboard-response","114","2604306","0.0-4.0-1.0-0.31","2","1","k6d13ehd61xg8sv","","null","","sounds/induction/right/pu_SWS.wav","","null","","","","","","","","","","","","","","","","","","","","","","","","","","","","","","","","","","","","","","","","","",""
"html-button-response","115","2605577","0.0-4.0-1.0-1.31","2","1","k6d13ehd61xg8sv","","1269.0999999642372","","What sound did you hear?","1","","","1","INDUCTION-JUDGMENT","right","1","","","","","","","","","","","","","","","","","","","","","","","","","","","","","","","","","","","","",""
"html-keyboard-response","116","2606583","0.0-4.0-1.0-2.31","2","1","k6d13ehd61xg8sv","","null","","<p style=""color:green;""><b>Correct!</b></p>","","null","","","","","","","","","","","","","","","","","","","","","","","","","","","","","","","","","","","","","","","","","",""
"audio-keyboard-response","117","2607388","0.0-4.0-1.0-0.32","2","1","k6d13ehd61xg8sv","","null","","sounds/induction/right/fe_SWS.wav","","null","","","","","","","","","","","","","","","","","","","","","","","","","","","","","","","","","","","","","","","","","",""
"html-button-response","118","2608518","0.0-4.0-1.0-1.32","2","1","k6d13ehd61xg8sv","","1128.6000000238419","","What sound did you hear?","0","","","1","INDUCTION-JUDGMENT","right","0","","","","","","","","","","","","","","","","","","","","","","","","","","","","","","","","","","","","",""
"html-keyboard-response","119","2609521","0.0-4.0-1.0-2.32","2","1","k6d13ehd61xg8sv","","null","","<p style=""color:green;""><b>Correct!</b></p>","","null","","","","","","","","","","","","","","","","","","","","","","","","","","","","","","","","","","","","","","","","","",""
"audio-keyboard-response","120","2610321","0.0-4.0-1.0-0.33","2","1","k6d13ehd61xg8sv","","null","","sounds/induction/left/ko_SWS.wav","","null","","","","","","","","","","","","","","","","","","","","","","","","","","","","","","","","","","","","","","","","","",""
"html-button-response","121","2611496","0.0-4.0-1.0-1.33","2","1","k6d13ehd61xg8sv","","1171.8999999761581","","What sound did you hear?","1","","","1","INDUCTION-JUDGMENT","left","1","","","","","","","","","","","","","","","","","","","","","","","","","","","","","","","","","","","","",""
"html-keyboard-response","122","2612503","0.0-4.0-1.0-2.33","2","1","k6d13ehd61xg8sv","","null","","<p style=""color:green;""><b>Correct!</b></p>","","null","","","","","","","","","","","","","","","","","","","","","","","","","","","","","","","","","","","","","","","","","",""
"audio-keyboard-response","123","2613308","0.0-4.0-1.0-0.34","2","1","k6d13ehd61xg8sv","","null","","sounds/induction/right/ni_SWS.wav","","null","","","","","","","","","","","","","","","","","","","","","","","","","","","","","","","","","","","","","","","","","",""
"html-button-response","124","2615025","0.0-4.0-1.0-1.34","2","1","k6d13ehd61xg8sv","","1715.199999988079","","What sound did you hear?","0","","","1","INDUCTION-JUDGMENT","right","0","","","","","","","","","","","","","","","","","","","","","","","","","","","","","","","","","","","","",""
"html-keyboard-response","125","2616028","0.0-4.0-1.0-2.34","2","1","k6d13ehd61xg8sv","","null","","<p style=""color:green;""><b>Correct!</b></p>","","null","","","","","","","","","","","","","","","","","","","","","","","","","","","","","","","","","","","","","","","","","",""
"audio-keyboard-response","126","2616834","0.0-4.0-1.0-0.35","2","1","k6d13ehd61xg8sv","","null","","sounds/induction/left/fu_SWS.wav","","null","","","","","","","","","","","","","","","","","","","","","","","","","","","","","","","","","","","","","","","","","",""
"html-button-response","127","2617753","0.0-4.0-1.0-1.35","2","1","k6d13ehd61xg8sv","","917.6000000238419","","What sound did you hear?","1","","","1","INDUCTION-JUDGMENT","left","1","","","","","","","","","","","","","","","","","","","","","","","","","","","","","","","","","","","","",""
"html-keyboard-response","128","2618757","0.0-4.0-1.0-2.35","2","1","k6d13ehd61xg8sv","","null","","<p style=""color:green;""><b>Correct!</b></p>","","null","","","","","","","","","","","","","","","","","","","","","","","","","","","","","","","","","","","","","","","","","",""
"audio-keyboard-response","129","2619564","0.0-4.0-1.0-0.36","2","1","k6d13ehd61xg8sv","","null","","sounds/induction/left/me_SWS.wav","","null","","","","","","","","","","","","","","","","","","","","","","","","","","","","","","","","","","","","","","","","","",""
"html-button-response","130","2620942","0.0-4.0-1.0-1.36","2","1","k6d13ehd61xg8sv","","1376.1000000238419","","What sound did you hear?","1","","","1","INDUCTION-JUDGMENT","left","1","","","","","","","","","","","","","","","","","","","","","","","","","","","","","","","","","","","","",""
"html-keyboard-response","131","2621946","0.0-4.0-1.0-2.36","2","1","k6d13ehd61xg8sv","","null","","<p style=""color:green;""><b>Correct!</b></p>","","null","","","","","","","","","","","","","","","","","","","","","","","","","","","","","","","","","","","","","","","","","",""
"audio-keyboard-response","132","2622754","0.0-4.0-1.0-0.37","2","1","k6d13ehd61xg8sv","","null","","sounds/induction/left/re_SWS.wav","","null","","","","","","","","","","","","","","","","","","","","","","","","","","","","","","","","","","","","","","","","","",""
"html-button-response","133","2624251","0.0-4.0-1.0-1.37","2","1","k6d13ehd61xg8sv","","1496.699999988079","","What sound did you hear?","1","","","0","INDUCTION-JUDGMENT","left","0","","","","","","","","","","","","","","","","","","","","","","","","","","","","","","","","","","","","",""
"html-keyboard-response","134","2625252","0.0-4.0-1.0-2.37","2","1","k6d13ehd61xg8sv","","null","","<p style=""color:red;""><b>Incorrect!</b></p>","","null","","","","","","","","","","","","","","","","","","","","","","","","","","","","","","","","","","","","","","","","","",""
"audio-keyboard-response","135","2626061","0.0-4.0-1.0-0.38","2","1","k6d13ehd61xg8sv","","null","","sounds/induction/right/ko_SWS.wav","","null","","","","","","","","","","","","","","","","","","","","","","","","","","","","","","","","","","","","","","","","","",""
"html-button-response","136","2627740","0.0-4.0-1.0-1.38","2","1","k6d13ehd61xg8sv","","1678.199999988079","","What sound did you hear?","0","","","1","INDUCTION-JUDGMENT","right","0","","","","","","","","","","","","","","","","","","","","","","","","","","","","","","","","","","","","",""
"html-keyboard-response","137","2628743","0.0-4.0-1.0-2.38","2","1","k6d13ehd61xg8sv","","null","","<p style=""color:green;""><b>Correct!</b></p>","","null","","","","","","","","","","","","","","","","","","","","","","","","","","","","","","","","","","","","","","","","","",""
"audio-keyboard-response","138","2629549","0.0-4.0-1.0-0.39","2","1","k6d13ehd61xg8sv","","null","","sounds/induction/left/ni_SWS.wav","","null","","","","","","","","","","","","","","","","","","","","","","","","","","","","","","","","","","","","","","","","","",""
"html-button-response","139","2631215","0.0-4.0-1.0-1.39","2","1","k6d13ehd61xg8sv","","1664.300000011921","","What sound did you hear?","0","","","0","INDUCTION-JUDGMENT","left","1","","","","","","","","","","","","","","","","","","","","","","","","","","","","","","","","","","","","",""
"html-keyboard-response","140","2632216","0.0-4.0-1.0-2.39","2","1","k6d13ehd61xg8sv","","null","","<p style=""color:red;""><b>Incorrect!</b></p>","","null","","","","","","","","","","","","","","","","","","","","","","","","","","","","","","","","","","","","","","","","","",""
"audio-keyboard-response","141","2633021","0.0-4.0-1.0-0.40","2","1","k6d13ehd61xg8sv","","null","","sounds/induction/right/ti_SWS.wav","","null","","","","","","","","","","","","","","","","","","","","","","","","","","","","","","","","","","","","","","","","","",""
"html-button-response","142","2634238","0.0-4.0-1.0-1.40","2","1","k6d13ehd61xg8sv","","1216.5","","What sound did you hear?","0","","","0","INDUCTION-JUDGMENT","right","1","","","","","","","","","","","","","","","","","","","","","","","","","","","","","","","","","","","","",""
"html-keyboard-response","143","2635239","0.0-4.0-1.0-2.40","2","1","k6d13ehd61xg8sv","","null","","<p style=""color:red;""><b>Incorrect!</b></p>","","null","","","","","","","","","","","","","","","","","","","","","","","","","","","","","","","","","","","","","","","","","",""
"audio-keyboard-response","144","2636039","0.0-4.0-1.0-0.41","2","1","k6d13ehd61xg8sv","","null","","sounds/induction/right/su_SWS.wav","","null","","","","","","","","","","","","","","","","","","","","","","","","","","","","","","","","","","","","","","","","","",""
"html-button-response","145","2637165","0.0-4.0-1.0-1.41","2","1","k6d13ehd61xg8sv","","1125","","What sound did you hear?","0","","","0","INDUCTION-JUDGMENT","right","1","","","","","","","","","","","","","","","","","","","","","","","","","","","","","","","","","","","","",""
"html-keyboard-response","146","2638170","0.0-4.0-1.0-2.41","2","1","k6d13ehd61xg8sv","","null","","<p style=""color:red;""><b>Incorrect!</b></p>","","null","","","","","","","","","","","","","","","","","","","","","","","","","","","","","","","","","","","","","","","","","",""
"audio-keyboard-response","147","2638973","0.0-4.0-1.0-0.42","2","1","k6d13ehd61xg8sv","","null","","sounds/induction/right/re_SWS.wav","","null","","","","","","","","","","","","","","","","","","","","","","","","","","","","","","","","","","","","","","","","","",""
"html-button-response","148","2640085","0.0-4.0-1.0-1.42","2","1","k6d13ehd61xg8sv","","1110.5","","What sound did you hear?","1","","","1","INDUCTION-JUDGMENT","right","1","","","","","","","","","","","","","","","","","","","","","","","","","","","","","","","","","","","","",""
"html-keyboard-response","149","2641086","0.0-4.0-1.0-2.42","2","1","k6d13ehd61xg8sv","","null","","<p style=""color:green;""><b>Correct!</b></p>","","null","","","","","","","","","","","","","","","","","","","","","","","","","","","","","","","","","","","","","","","","","",""
"audio-keyboard-response","150","2641890","0.0-4.0-1.0-0.43","2","1","k6d13ehd61xg8sv","","null","","sounds/induction/left/su_SWS.wav","","null","","","","","","","","","","","","","","","","","","","","","","","","","","","","","","","","","","","","","","","","","",""
"html-button-response","151","2643123","0.0-4.0-1.0-1.43","2","1","k6d13ehd61xg8sv","","1232.199999988079","","What sound did you hear?","0","","","1","INDUCTION-JUDGMENT","left","0","","","","","","","","","","","","","","","","","","","","","","","","","","","","","","","","","","","","",""
"html-keyboard-response","152","2644125","0.0-4.0-1.0-2.43","2","1","k6d13ehd61xg8sv","","null","","<p style=""color:green;""><b>Correct!</b></p>","","null","","","","","","","","","","","","","","","","","","","","","","","","","","","","","","","","","","","","","","","","","",""
"audio-keyboard-response","153","2644931","0.0-4.0-1.0-0.44","2","1","k6d13ehd61xg8sv","","null","","sounds/induction/right/ko_SWS.wav","","null","","","","","","","","","","","","","","","","","","","","","","","","","","","","","","","","","","","","","","","","","",""
"html-button-response","154","2646038","0.0-4.0-1.0-1.44","2","1","k6d13ehd61xg8sv","","1106.300000011921","","What sound did you hear?","0","","","1","INDUCTION-JUDGMENT","right","0","","","","","","","","","","","","","","","","","","","","","","","","","","","","","","","","","","","","",""
"html-keyboard-response","155","2647039","0.0-4.0-1.0-2.44","2","1","k6d13ehd61xg8sv","","null","","<p style=""color:green;""><b>Correct!</b></p>","","null","","","","","","","","","","","","","","","","","","","","","","","","","","","","","","","","","","","","","","","","","",""
"audio-keyboard-response","156","2647842","0.0-4.0-1.0-0.45","2","1","k6d13ehd61xg8sv","","null","","sounds/induction/left/ta_SWS.wav","","null","","","","","","","","","","","","","","","","","","","","","","","","","","","","","","","","","","","","","","","","","",""
"html-button-response","157","2648835","0.0-4.0-1.0-1.45","2","1","k6d13ehd61xg8sv","","991.5999999642372","","What sound did you hear?","0","","","1","INDUCTION-JUDGMENT","left","0","","","","","","","","","","","","","","","","","","","","","","","","","","","","","","","","","","","","",""
"html-keyboard-response","158","2649836","0.0-4.0-1.0-2.45","2","1","k6d13ehd61xg8sv","","null","","<p style=""color:green;""><b>Correct!</b></p>","","null","","","","","","","","","","","","","","","","","","","","","","","","","","","","","","","","","","","","","","","","","",""
"audio-keyboard-response","159","2650643","0.0-4.0-1.0-0.46","2","1","k6d13ehd61xg8sv","","null","","sounds/induction/right/me_SWS.wav","","null","","","","","","","","","","","","","","","","","","","","","","","","","","","","","","","","","","","","","","","","","",""
"html-button-response","160","2651561","0.0-4.0-1.0-1.46","2","1","k6d13ehd61xg8sv","","917.5","","What sound did you hear?","0","","","1","INDUCTION-JUDGMENT","right","0","","","","","","","","","","","","","","","","","","","","","","","","","","","","","","","","","","","","",""
"html-keyboard-response","161","2652563","0.0-4.0-1.0-2.46","2","1","k6d13ehd61xg8sv","","null","","<p style=""color:green;""><b>Correct!</b></p>","","null","","","","","","","","","","","","","","","","","","","","","","","","","","","","","","","","","","","","","","","","","",""
"audio-keyboard-response","162","2653368","0.0-4.0-1.0-0.47","2","1","k6d13ehd61xg8sv","","null","","sounds/induction/left/ge_SWS.wav","","null","","","","","","","","","","","","","","","","","","","","","","","","","","","","","","","","","","","","","","","","","",""
"html-button-response","163","2654435","0.0-4.0-1.0-1.47","2","1","k6d13ehd61xg8sv","","1064","","What sound did you hear?","0","","","0","INDUCTION-JUDGMENT","left","1","","","","","","","","","","","","","","","","","","","","","","","","","","","","","","","","","","","","",""
"html-keyboard-response","164","2655437","0.0-4.0-1.0-2.47","2","1","k6d13ehd61xg8sv","","null","","<p style=""color:red;""><b>Incorrect!</b></p>","","null","","","","","","","","","","","","","","","","","","","","","","","","","","","","","","","","","","","","","","","","","",""
"html-button-response","165","2664177","0.0-5.0-0.0","2","1","k6d13ehd61xg8sv","","8235.5","","<p>Thank you for your answers.</p><p>You will now listen to similar sounds. The main difference is that the sounds will be longer and will make up complete sentences.</p><p>Please listen carefully to each sentence. After each sentence, you will be asked to type back what you heard to the best of your ability. After you provide your response, you will be given feedback about the correct answer.</p><p>There are 10 sentences in total.","0","","","","","","","","","","","","","","","","","","","","","","","","","","","","","","","","","","","","","","","","","","",""
"audio-keyboard-response","166","2666920","0.0-5.0-1.0-0.0","2","1","k6d13ehd61xg8sv","","null","","sounds/sentences/right/14_06_cfSWS.wav","","null","","","","","","","","","","","","","","","","","","","","","","","","","","","","","","","","","","","","","","","","","",""
"sentence-resp","167","2683414","0.0-5.0-1.0-1.0","2","1","k6d13ehd61xg8sv","","16491","","","","","","","SWS-SENT-RESPONSE","","","{""Q0"":""tuka wee a ooh a yee ya""}","Bring your problems to the wise chief.","bring,your,problems,wise,chief","TUKA WEE A OOH A YEE YA","0","0","0","0","0","0","0","","","","","","","","","","","","","","","","","","","","","","","","","",""
"html-keyboard-response","168","2684676","0.0-5.0-1.0-2.0","2","1","k6d13ehd61xg8sv","","null","","","","null","","","","","","","","","","","","","","","","","","","","","","","","","","","","","","","","","","","","","","","","","",""
"audio-keyboard-response","169","2686921","0.0-5.0-1.0-3.0","2","1","k6d13ehd61xg8sv","","null","","sounds/sentences/right/14_06_cfSWS.wav","","null","","","","","","","","","","","","","","","","","","","","","","","","","","","","","","","","","","","","","","","","","",""
"html-keyboard-response","170","2687925","0.0-5.0-1.0-4.0","2","1","k6d13ehd61xg8sv","","null","","","","null","","","","","","","","","","","","","","","","","","","","","","","","","","","","","","","","","","","","","","","","","",""
"html-button-response","171","2689578","0.0-5.0-1.0-5.0","2","1","k6d13ehd61xg8sv","","1151.199999988079","","<p>Press the button below when you are ready to continue.</p>","0","","","","","","","","","","","","","","","","","","","","","","","","","","","","","","","","","","","","","","","","","","",""
"audio-keyboard-response","172","2692569","0.0-5.0-1.0-0.1","2","1","k6d13ehd61xg8sv","","null","","sounds/sentences/left/14_05_cfSWS.wav","","null","","","","","","","","","","","","","","","","","","","","","","","","","","","","","","","","","","","","","","","","","",""
"sentence-resp","173","2702499","0.0-5.0-1.0-1.1","2","1","k6d13ehd61xg8sv","","9929","","","","","","","SWS-SENT-RESPONSE","","","{""Q0"":""What an amazing little girl\n""}","The glow deepened in the eyes of the sweet girl.","glow,deepened,eyes,sweet,girl","WHAT AN AMAZING LITTLE GIRL ","0","0","0","0","1","1","0.2","","","","","","","","","","","","","","","","","","","","","","","","","",""
"html-keyboard-response","174","2703754","0.0-5.0-1.0-2.1","2","1","k6d13ehd61xg8sv","","null","","","","null","","","","","","","","","","","","","","","","","","","","","","","","","","","","","","","","","","","","","","","","","",""
"audio-keyboard-response","175","2706244","0.0-5.0-1.0-3.1","2","1","k6d13ehd61xg8sv","","null","","sounds/sentences/left/14_05_cfSWS.wav","","null","","","","","","","","","","","","","","","","","","","","","","","","","","","","","","","","","","","","","","","","","",""
"html-keyboard-response","176","2707250","0.0-5.0-1.0-4.1","2","1","k6d13ehd61xg8sv","","null","","","","null","","","","","","","","","","","","","","","","","","","","","","","","","","","","","","","","","","","","","","","","","",""
"html-button-response","177","2709308","0.0-5.0-1.0-5.1","2","1","k6d13ehd61xg8sv","","1553.5999999642372","","<p>Press the button below when you are ready to continue.</p>","0","","","","","","","","","","","","","","","","","","","","","","","","","","","","","","","","","","","","","","","","","","",""
"audio-keyboard-response","178","2712324","0.0-5.0-1.0-0.2","2","1","k6d13ehd61xg8sv","","null","","sounds/sentences/right/14_10_cfSWS.wav","","null","","","","","","","","","","","","","","","","","","","","","","","","","","","","","","","","","","","","","","","","","",""
"sentence-resp","179","2723435","0.0-5.0-1.0-1.2","2","1","k6d13ehd61xg8sv","","11107","","","","","","","SWS-SENT-RESPONSE","","","{""Q0"":""I went to go over the moon and back\n""}","Port is a strong wine with a smoky taste.","port,strong,wine,smoky,taste","I WENT TO GO OVER THE MOON AND BACK ","0","0","0","0","0","0","0","","","","","","","","","","","","","","","","","","","","","","","","","",""
"html-keyboard-response","180","2724693","0.0-5.0-1.0-2.2","2","1","k6d13ehd61xg8sv","","null","","","","null","","","","","","","","","","","","","","","","","","","","","","","","","","","","","","","","","","","","","","","","","",""
"audio-keyboard-response","181","2727210","0.0-5.0-1.0-3.2","2","1","k6d13ehd61xg8sv","","null","","sounds/sentences/right/14_10_cfSWS.wav","","null","","","","","","","","","","","","","","","","","","","","","","","","","","","","","","","","","","","","","","","","","",""
"html-keyboard-response","182","2728213","0.0-5.0-1.0-4.2","2","1","k6d13ehd61xg8sv","","null","","","","null","","","","","","","","","","","","","","","","","","","","","","","","","","","","","","","","","","","","","","","","","",""
"html-button-response","183","2730152","0.0-5.0-1.0-5.2","2","1","k6d13ehd61xg8sv","","1436.3999999761581","","<p>Press the button below when you are ready to continue.</p>","0","","","","","","","","","","","","","","","","","","","","","","","","","","","","","","","","","","","","","","","","","","",""
"audio-keyboard-response","184","2732880","0.0-5.0-1.0-0.3","2","1","k6d13ehd61xg8sv","","null","","sounds/sentences/right/14_09_cfSWS.wav","","null","","","","","","","","","","","","","","","","","","","","","","","","","","","","","","","","","","","","","","","","","",""
"sentence-resp","185","2739605","0.0-5.0-1.0-1.3","2","1","k6d13ehd61xg8sv","","6723","","","","","","","SWS-SENT-RESPONSE","","","{""Q0"":""He poured wine with a strong taste\n""}","We frown when events take a bad turn.","frown,events,take,bad,turn","HE POURED WINE WITH A STRONG TASTE ","0","0","0","0","0","0","0","","","","","","","","","","","","","","","","","","","","","","","","","",""
"html-keyboard-response","186","2740865","0.0-5.0-1.0-2.3","2","1","k6d13ehd61xg8sv","","null","","","","null","","","","","","","","","","","","","","","","","","","","","","","","","","","","","","","","","","","","","","","","","",""
"audio-keyboard-response","187","2743094","0.0-5.0-1.0-3.3","2","1","k6d13ehd61xg8sv","","null","","sounds/sentences/right/14_09_cfSWS.wav","","null","","","","","","","","","","","","","","","","","","","","","","","","","","","","","","","","","","","","","","","","","",""
"html-keyboard-response","188","2744097","0.0-5.0-1.0-4.3","2","1","k6d13ehd61xg8sv","","null","","","","null","","","","","","","","","","","","","","","","","","","","","","","","","","","","","","","","","","","","","","","","","",""
"html-button-response","189","2745956","0.0-5.0-1.0-5.3","2","1","k6d13ehd61xg8sv","","1355.5","","<p>Press the button below when you are ready to continue.</p>","0","","","","","","","","","","","","","","","","","","","","","","","","","","","","","","","","","","","","","","","","","","",""
"audio-keyboard-response","190","2749072","0.0-5.0-1.0-0.4","2","1","k6d13ehd61xg8sv","","null","","sounds/sentences/left/14_01_cfSWS.wav","","null","","","","","","","","","","","","","","","","","","","","","","","","","","","","","","","","","","","","","","","","","",""
"sentence-resp","191","2756782","0.0-5.0-1.0-1.4","2","1","k6d13ehd61xg8sv","","7708","","","","","","","SWS-SENT-RESPONSE","","","{""Q0"":""There is a small danger, he might slip""}","A cramp is no small danger on a swim.","cramp,no,small,danger,swim","THERE IS A SMALL DANGER HE MIGHT SLIP","0","0","1","1","0","2","0.4","","","","","","","","","","","","","","","","","","","","","","","","","",""
"html-keyboard-response","192","2758038","0.0-5.0-1.0-2.4","2","1","k6d13ehd61xg8sv","","null","","","","null","","","","","","","","","","","","","","","","","","","","","","","","","","","","","","","","","","","","","","","","","",""
"audio-keyboard-response","193","2760657","0.0-5.0-1.0-3.4","2","1","k6d13ehd61xg8sv","","null","","sounds/sentences/left/14_01_cfSWS.wav","","null","","","","","","","","","","","","","","","","","","","","","","","","","","","","","","","","","","","","","","","","","",""
"html-keyboard-response","194","2761659","0.0-5.0-1.0-4.4","2","1","k6d13ehd61xg8sv","","null","","","","null","","","","","","","","","","","","","","","","","","","","","","","","","","","","","","","","","","","","","","","","","",""
"html-button-response","195","2762751","0.0-5.0-1.0-5.4","2","1","k6d13ehd61xg8sv","","589","","<p>Press the button below when you are ready to continue.</p>","0","","","","","","","","","","","","","","","","","","","","","","","","","","","","","","","","","","","","","","","","","","",""
"audio-keyboard-response","196","2765643","0.0-5.0-1.0-0.5","2","1","k6d13ehd61xg8sv","","null","","sounds/sentences/right/14_07_cfSWS.wav","","null","","","","","","","","","","","","","","","","","","","","","","","","","","","","","","","","","","","","","","","","","",""
"sentence-resp","197","2778572","0.0-5.0-1.0-1.5","2","1","k6d13ehd61xg8sv","","12928","","","","","","","SWS-SENT-RESPONSE","","","{""Q0"":""Welcome this is my new friend, he is turkish\n""}","Write a fond note to the friend you cherish.","write,fond,note,friend,cherish","WELCOME THIS IS MY NEW FRIEND HE IS TURKISH ","0","0","0","1","0","1","0.2","","","","","","","","","","","","","","","","","","","","","","","","","",""
"html-keyboard-response","198","2779830","0.0-5.0-1.0-2.5","2","1","k6d13ehd61xg8sv","","null","","","","null","","","","","","","","","","","","","","","","","","","","","","","","","","","","","","","","","","","","","","","","","",""
"audio-keyboard-response","199","2782220","0.0-5.0-1.0-3.5","2","1","k6d13ehd61xg8sv","","null","","sounds/sentences/right/14_07_cfSWS.wav","","null","","","","","","","","","","","","","","","","","","","","","","","","","","","","","","","","","","","","","","","","","",""
"html-keyboard-response","200","2783222","0.0-5.0-1.0-4.5","2","1","k6d13ehd61xg8sv","","null","","","","null","","","","","","","","","","","","","","","","","","","","","","","","","","","","","","","","","","","","","","","","","",""
"html-button-response","201","2784345","0.0-5.0-1.0-5.5","2","1","k6d13ehd61xg8sv","","619.3000000119209","","<p>Press the button below when you are ready to continue.</p>","0","","","","","","","","","","","","","","","","","","","","","","","","","","","","","","","","","","","","","","","","","","",""
"audio-keyboard-response","202","2786929","0.0-5.0-1.0-0.6","2","1","k6d13ehd61xg8sv","","null","","sounds/sentences/left/14_03_cfSWS.wav","","null","","","","","","","","","","","","","","","","","","","","","","","","","","","","","","","","","","","","","","","","","",""
"sentence-resp","203","2797992","0.0-5.0-1.0-1.6","2","1","k6d13ehd61xg8sv","","11061","","","","","","","SWS-SENT-RESPONSE","","","{""Q0"":""Lots of friends, do not leave""}","Pluck the bright rose without leaves.","pluck,bright,rose,without,leaves","LOTS OF FRIENDS DO NOT LEAVE","0","0","0","0","0","0","0","","","","","","","","","","","","","","","","","","","","","","","","","",""
"html-keyboard-response","204","2799250","0.0-5.0-1.0-2.6","2","1","k6d13ehd61xg8sv","","null","","","","null","","","","","","","","","","","","","","","","","","","","","","","","","","","","","","","","","","","","","","","","","",""
"audio-keyboard-response","205","2801335","0.0-5.0-1.0-3.6","2","1","k6d13ehd61xg8sv","","null","","sounds/sentences/left/14_03_cfSWS.wav","","null","","","","","","","","","","","","","","","","","","","","","","","","","","","","","","","","","","","","","","","","","",""
"html-keyboard-response","206","2802338","0.0-5.0-1.0-4.6","2","1","k6d13ehd61xg8sv","","null","","","","null","","","","","","","","","","","","","","","","","","","","","","","","","","","","","","","","","","","","","","","","","",""
"html-button-response","207","2803960","0.0-5.0-1.0-5.6","2","1","k6d13ehd61xg8sv","","1115.7000000476837","","<p>Press the button below when you are ready to continue.</p>","0","","","","","","","","","","","","","","","","","","","","","","","","","","","","","","","","","","","","","","","","","","",""
"audio-keyboard-response","208","2806717","0.0-5.0-1.0-0.7","2","1","k6d13ehd61xg8sv","","null","","sounds/sentences/right/14_08_cfSWS.wav","","null","","","","","","","","","","","","","","","","","","","","","","","","","","","","","","","","","","","","","","","","","",""
"sentence-resp","209","2817235","0.0-5.0-1.0-1.7","2","1","k6d13ehd61xg8sv","","10516","","","","","","","SWS-SENT-RESPONSE","","","{""Q0"":""Watching her see her new fridge""}","Clothes and lodging are free to new men.","clothes,lodging,free,new,men","WATCHING HER SEE HER NEW FRIDGE","0","0","0","1","0","1","0.2","","","","","","","","","","","","","","","","","","","","","","","","","",""
"html-keyboard-response","210","2818491","0.0-5.0-1.0-2.7","2","1","k6d13ehd61xg8sv","","null","","","","null","","","","","","","","","","","","","","","","","","","","","","","","","","","","","","","","","","","","","","","","","",""
"audio-keyboard-response","211","2820744","0.0-5.0-1.0-3.7","2","1","k6d13ehd61xg8sv","","null","","sounds/sentences/right/14_08_cfSWS.wav","","null","","","","","","","","","","","","","","","","","","","","","","","","","","","","","","","","","","","","","","","","","",""
"html-keyboard-response","212","2821745","0.0-5.0-1.0-4.7","2","1","k6d13ehd61xg8sv","","null","","","","null","","","","","","","","","","","","","","","","","","","","","","","","","","","","","","","","","","","","","","","","","",""
"html-button-response","213","2822872","0.0-5.0-1.0-5.7","2","1","k6d13ehd61xg8sv","","623.1000000238419","","<p>Press the button below when you are ready to continue.</p>","0","","","","","","","","","","","","","","","","","","","","","","","","","","","","","","","","","","","","","","","","","","",""
"audio-keyboard-response","214","2825693","0.0-5.0-1.0-0.8","2","1","k6d13ehd61xg8sv","","null","","sounds/sentences/left/14_02_cfSWS.wav","","null","","","","","","","","","","","","","","","","","","","","","","","","","","","","","","","","","","","","","","","","","",""
"sentence-resp","215","2833702","0.0-5.0-1.0-1.8","2","1","k6d13ehd61xg8sv","","8006","","","","","","","SWS-SENT-RESPONSE","","","{""Q0"":""She said the same phrase 30 times""}","He said the same phrase thirty times.","said,same,phrase,thirty,times","SHE SAID THE SAME PHRASE 30 TIMES","1","1","1","0","1","4","0.8","","","","","","","","","","","","","","","","","","","","","","","","","",""
"html-keyboard-response","216","2834961","0.0-5.0-1.0-2.8","2","1","k6d13ehd61xg8sv","","null","","","","null","","","","","","","","","","","","","","","","","","","","","","","","","","","","","","","","","","","","","","","","","",""
"audio-keyboard-response","217","2837278","0.0-5.0-1.0-3.8","2","1","k6d13ehd61xg8sv","","null","","sounds/sentences/left/14_02_cfSWS.wav","","null","","","","","","","","","","","","","","","","","","","","","","","","","","","","","","","","","","","","","","","","","",""
"html-keyboard-response","218","2838280","0.0-5.0-1.0-4.8","2","1","k6d13ehd61xg8sv","","null","","","","null","","","","","","","","","","","","","","","","","","","","","","","","","","","","","","","","","","","","","","","","","",""
"html-button-response","219","2840095","0.0-5.0-1.0-5.8","2","1","k6d13ehd61xg8sv","","1312.8999999761581","","<p>Press the button below when you are ready to continue.</p>","0","","","","","","","","","","","","","","","","","","","","","","","","","","","","","","","","","","","","","","","","","","",""
"audio-keyboard-response","220","2842648","0.0-5.0-1.0-0.9","2","1","k6d13ehd61xg8sv","","null","","sounds/sentences/left/14_04_cfSWS.wav","","null","","","","","","","","","","","","","","","","","","","","","","","","","","","","","","","","","","","","","","","","","",""
"sentence-resp","221","2850959","0.0-5.0-1.0-1.9","2","1","k6d13ehd61xg8sv","","8309","","","","","","","SWS-SENT-RESPONSE","","","{""Q0"":""two plus seven is less than ten""}","Two plus seven is less than ten.","two,plus,seven,less,ten","TWO PLUS SEVEN IS LESS THAN TEN","1","1","1","1","1","5","1","","","","","","","","","","","","","","","","","","","","","","","","","",""
"html-keyboard-response","222","2852217","0.0-5.0-1.0-2.9","2","1","k6d13ehd61xg8sv","","null","","","","null","","","","","","","","","","","","","","","","","","","","","","","","","","","","","","","","","","","","","","","","","",""
"audio-keyboard-response","223","2854270","0.0-5.0-1.0-3.9","2","1","k6d13ehd61xg8sv","","null","","sounds/sentences/left/14_04_cfSWS.wav","","null","","","","","","","","","","","","","","","","","","","","","","","","","","","","","","","","","","","","","","","","","",""
"html-keyboard-response","224","2855273","0.0-5.0-1.0-4.9","2","1","k6d13ehd61xg8sv","","null","","","","null","","","","","","","","","","","","","","","","","","","","","","","","","","","","","","","","","","","","","","","","","",""
"html-button-response","225","2856315","0.0-5.0-1.0-5.9","2","1","k6d13ehd61xg8sv","","539.6000000238419","","<p>Press the button below when you are ready to continue.</p>","0","","","","","","","","","","","","","","","","","","","","","","","","","","","","","","","","","","","","","","","","","","",""
"html-keyboard-response","226","2862402","0.0-6.0-0.0","2","1","k6d13ehd61xg8sv","","5584.800000011921","","<p>In this part of the study, you will hear sounds similar to those you just heard.</p><p>Please focus on these sounds, as you may be asked questions about them later.</p><p>Occasionally, the sounds will pause for up to two seconds. When this happens, please press SPACEBAR as quickly as you can.</br>This helps ensure that you are paying attention to the sounds.</p><p>This part of the study will take about 12 minutes to complete, and you will be given the opportunity to take a couple of short breaks every few minutes.</p><p><strong>Press SPACEBAR to begin</strong></p>","","32","","","","","","","","","","","","","","","","","","","","","","","","","","","","","","","","","","","","","","","","","",""
"html-keyboard-response","227","2863403","0.0-6.0-1.0-0.0","2","1","k6d13ehd61xg8sv","","null","","<p style=""font-size: 40px;"">+</p>","","null","","","","","","","","","","","","","","","","","","","","","","","","","","","","","","","","","","","","","","","","","",""
"html-keyboard-response","228","3048421","0.0-6.0-1.0-1.0","2","1","k6d13ehd61xg8sv","","null","","","","null","","","SL-TRAIN","","","","","","","","","","","","","","1","1616.5","null","sounds/B/TRAIN/SEQ__09.mp3","2","","","","","","","","","","","","","","","","","","","","",""
"html-button-response","229","3052217","0.0-6.0-1.0-2.0","2","1","k6d13ehd61xg8sv","","3793.5","","<p>You may take a short break if you wish.</p>","0","","","","","","","","","","","","","","","","","","","","","","","","","","","","","","","","","","","","","","","","","","",""
"html-keyboard-response","230","3053221","0.0-6.0-1.0-3.0","2","1","k6d13ehd61xg8sv","","null","","<p style=""font-size: 40px;"">+</p>","","null","","","","","","","","","","","","","","","","","","","","","","","","","","","","","","","","","","","","","","","","","",""
"html-keyboard-response","231","3238240","0.0-6.0-1.0-4.0","2","1","k6d13ehd61xg8sv","","null","","","","null","","","SL-TRAIN","","","","","","","","","","","","","","2","null","null","sounds/B/TRAIN/SEQ__02.mp3","0","","","","","","","","","","","","","","","","","","","","",""
"html-button-response","232","3239789","0.0-6.0-1.0-5.0","2","1","k6d13ehd61xg8sv","","1546.4000000357628","","<p>You may take a short break if you wish.</p>","0","","","","","","","","","","","","","","","","","","","","","","","","","","","","","","","","","","","","","","","","","","",""
"html-keyboard-response","233","3240790","0.0-6.0-1.0-6.0","2","1","k6d13ehd61xg8sv","","null","","<p style=""font-size: 40px;"">+</p>","","null","","","","","","","","","","","","","","","","","","","","","","","","","","","","","","","","","","","","","","","","","",""
"html-keyboard-response","234","3425822","0.0-6.0-1.0-7.0","2","1","k6d13ehd61xg8sv","","null","","","","null","","","SL-TRAIN","","","","","","","","","","","","","","2","null","null","sounds/B/TRAIN/SEQ__03.mp3","0","","","","","","","","","","","","","","","","","","","","",""
"html-button-response","235","3427262","0.0-6.0-1.0-8.0","2","1","k6d13ehd61xg8sv","","1436.6000000238419","","<p>You may take a short break if you wish.</p>","0","","","","","","","","","","","","","","","","","","","","","","","","","","","","","","","","","","","","","","","","","","",""
"html-keyboard-response","236","3428265","0.0-6.0-1.0-9.0","2","1","k6d13ehd61xg8sv","","null","","<p style=""font-size: 40px;"">+</p>","","null","","","","","","","","","","","","","","","","","","","","","","","","","","","","","","","","","","","","","","","","","",""
"html-keyboard-response","237","3613290","0.0-6.0-1.0-10.0","2","1","k6d13ehd61xg8sv","","null","","","","null","","","SL-TRAIN","","","","","","","","","","","","","","2","null","null","sounds/B/TRAIN/SEQ__10.mp3","0","","","","","","","","","","","","","","","","","","","","",""
"html-button-response","238","3620929","0.0-6.0-1.0-11.0","2","1","k6d13ehd61xg8sv","","7637.099999964237","","<p>You may take a short break if you wish.</p>","0","","","","","","","","","","","","","","","","","","","","","","","","","","","","","","","","","","","","","","","","","","",""
"html-button-response","239","3625706","0.0-7.0-0.0","2","1","k6d13ehd61xg8sv","","4776.399999976158","","<p>Welcome to the second part of the study. This is a <u>familiarity task</u>.</p><p>You will now hear short sounds and will be asked to rate how familiar they sound to you <b>based on what you heard in the previous part of the study</b>.</p><p>You will rate 12 sounds in total.</p>","0","","","","","","","","","","","","","","","","","","","","","","","","","","","","","","","","","","","","","","","","","","",""
"html-keyboard-response","240","3626708","0.0-7.0-1.0-0.0","2","1","k6d13ehd61xg8sv","","null","","","","null","","","","","","","","","","","","","","","","","","","","","","","","","","","","","","","","","","","","","","","","","",""
"audio-keyboard-response","241","3627794","0.0-7.0-1.0-1.0","2","1","k6d13ehd61xg8sv","","null","","sounds/B/FAM/P003.mp3","","null","","","","","","","","","","","","","","","","","","","","","","","","","","","","","","","","","","","","","","","","","",""
"html-keyboard-response","242","3633959","0.0-7.0-1.0-2.0","2","1","k6d13ehd61xg8sv","","5660.800000011921","","<p>How familiar did this sound to you?</p><p>1&nbsp;&nbsp;&nbsp;&nbsp;&nbsp;&nbsp;&nbsp;&nbsp;&nbsp;&nbsp;&nbsp;&nbsp;&nbsp;&nbsp;&nbsp;&nbsp;&nbsp;&nbsp;&nbsp;2&nbsp;&nbsp;&nbsp;&nbsp;&nbsp;&nbsp;&nbsp;&nbsp;&nbsp;&nbsp;&nbsp;&nbsp;&nbsp;&nbsp;&nbsp;&nbsp;&nbsp;&nbsp;&nbsp;3&nbsp;&nbsp;&nbsp;&nbsp;&nbsp;&nbsp;&nbsp;&nbsp;&nbsp;&nbsp;&nbsp;&nbsp;&nbsp;&nbsp;&nbsp;&nbsp;&nbsp;&nbsp;&nbsp;4</p><p style=""font-size:14px"">Not at all familiar&nbsp;&nbsp;&nbsp;&nbsp;A little familiar&nbsp;&nbsp;&nbsp;Moderately familiar&nbsp;&nbsp;&nbsp;Extremely familiar</p><p>(press the corresponding number on your keyboard)</p>","","50","","","FAM-RESPONSE","","","","","","","","","","","","","","","","","","","sounds/B/FAM/P003.mp3","partword","","","","","","","","","","","","","","","","","","",""
"html-keyboard-response","243","3635965","0.0-7.0-1.0-0.1","2","1","k6d13ehd61xg8sv","","null","","","","null","","","","","","","","","","","","","","","","","","","","","","","","","","","","","","","","","","","","","","","","","",""
"audio-keyboard-response","244","3636909","0.0-7.0-1.0-1.1","2","1","k6d13ehd61xg8sv","","null","","sounds/B/FAM/P002.mp3","","null","","","","","","","","","","","","","","","","","","","","","","","","","","","","","","","","","","","","","","","","","",""
"html-keyboard-response","245","3639505","0.0-7.0-1.0-2.1","2","1","k6d13ehd61xg8sv","","2094.199999988079","","<p>How familiar did this sound to you?</p><p>1&nbsp;&nbsp;&nbsp;&nbsp;&nbsp;&nbsp;&nbsp;&nbsp;&nbsp;&nbsp;&nbsp;&nbsp;&nbsp;&nbsp;&nbsp;&nbsp;&nbsp;&nbsp;&nbsp;2&nbsp;&nbsp;&nbsp;&nbsp;&nbsp;&nbsp;&nbsp;&nbsp;&nbsp;&nbsp;&nbsp;&nbsp;&nbsp;&nbsp;&nbsp;&nbsp;&nbsp;&nbsp;&nbsp;3&nbsp;&nbsp;&nbsp;&nbsp;&nbsp;&nbsp;&nbsp;&nbsp;&nbsp;&nbsp;&nbsp;&nbsp;&nbsp;&nbsp;&nbsp;&nbsp;&nbsp;&nbsp;&nbsp;4</p><p style=""font-size:14px"">Not at all familiar&nbsp;&nbsp;&nbsp;&nbsp;A little familiar&nbsp;&nbsp;&nbsp;Moderately familiar&nbsp;&nbsp;&nbsp;Extremely familiar</p><p>(press the corresponding number on your keyboard)</p>","","49","","","FAM-RESPONSE","","","","","","","","","","","","","","","","","","","sounds/B/FAM/P002.mp3","partword","","","","","","","","","","","","","","","","","","",""
"html-keyboard-response","246","3641507","0.0-7.0-1.0-0.2","2","1","k6d13ehd61xg8sv","","null","","","","null","","","","","","","","","","","","","","","","","","","","","","","","","","","","","","","","","","","","","","","","","",""
"audio-keyboard-response","247","3642451","0.0-7.0-1.0-1.2","2","1","k6d13ehd61xg8sv","","null","","sounds/B/FAM/W001.mp3","","null","","","","","","","","","","","","","","","","","","","","","","","","","","","","","","","","","","","","","","","","","",""
"html-keyboard-response","248","3645171","0.0-7.0-1.0-2.2","2","1","k6d13ehd61xg8sv","","2216.600000023842","","<p>How familiar did this sound to you?</p><p>1&nbsp;&nbsp;&nbsp;&nbsp;&nbsp;&nbsp;&nbsp;&nbsp;&nbsp;&nbsp;&nbsp;&nbsp;&nbsp;&nbsp;&nbsp;&nbsp;&nbsp;&nbsp;&nbsp;2&nbsp;&nbsp;&nbsp;&nbsp;&nbsp;&nbsp;&nbsp;&nbsp;&nbsp;&nbsp;&nbsp;&nbsp;&nbsp;&nbsp;&nbsp;&nbsp;&nbsp;&nbsp;&nbsp;3&nbsp;&nbsp;&nbsp;&nbsp;&nbsp;&nbsp;&nbsp;&nbsp;&nbsp;&nbsp;&nbsp;&nbsp;&nbsp;&nbsp;&nbsp;&nbsp;&nbsp;&nbsp;&nbsp;4</p><p style=""font-size:14px"">Not at all familiar&nbsp;&nbsp;&nbsp;&nbsp;A little familiar&nbsp;&nbsp;&nbsp;Moderately familiar&nbsp;&nbsp;&nbsp;Extremely familiar</p><p>(press the corresponding number on your keyboard)</p>","","52","","","FAM-RESPONSE","","","","","","","","","","","","","","","","","","","sounds/B/FAM/W001.mp3","word","","","","","","","","","","","","","","","","","","",""
"html-keyboard-response","249","3647176","0.0-7.0-1.0-0.3","2","1","k6d13ehd61xg8sv","","null","","","","null","","","","","","","","","","","","","","","","","","","","","","","","","","","","","","","","","","","","","","","","","",""
"audio-keyboard-response","250","3648120","0.0-7.0-1.0-1.3","2","1","k6d13ehd61xg8sv","","null","","sounds/B/FAM/N002.mp3","","null","","","","","","","","","","","","","","","","","","","","","","","","","","","","","","","","","","","","","","","","","",""
"html-keyboard-response","251","3650346","0.0-7.0-1.0-2.3","2","1","k6d13ehd61xg8sv","","1723.4000000357628","","<p>How familiar did this sound to you?</p><p>1&nbsp;&nbsp;&nbsp;&nbsp;&nbsp;&nbsp;&nbsp;&nbsp;&nbsp;&nbsp;&nbsp;&nbsp;&nbsp;&nbsp;&nbsp;&nbsp;&nbsp;&nbsp;&nbsp;2&nbsp;&nbsp;&nbsp;&nbsp;&nbsp;&nbsp;&nbsp;&nbsp;&nbsp;&nbsp;&nbsp;&nbsp;&nbsp;&nbsp;&nbsp;&nbsp;&nbsp;&nbsp;&nbsp;3&nbsp;&nbsp;&nbsp;&nbsp;&nbsp;&nbsp;&nbsp;&nbsp;&nbsp;&nbsp;&nbsp;&nbsp;&nbsp;&nbsp;&nbsp;&nbsp;&nbsp;&nbsp;&nbsp;4</p><p style=""font-size:14px"">Not at all familiar&nbsp;&nbsp;&nbsp;&nbsp;A little familiar&nbsp;&nbsp;&nbsp;Moderately familiar&nbsp;&nbsp;&nbsp;Extremely familiar</p><p>(press the corresponding number on your keyboard)</p>","","51","","","FAM-RESPONSE","","","","","","","","","","","","","","","","","","","sounds/B/FAM/N002.mp3","nonword","","","","","","","","","","","","","","","","","","",""
"html-keyboard-response","252","3652352","0.0-7.0-1.0-0.4","2","1","k6d13ehd61xg8sv","","null","","","","null","","","","","","","","","","","","","","","","","","","","","","","","","","","","","","","","","","","","","","","","","",""
"audio-keyboard-response","253","3653294","0.0-7.0-1.0-1.4","2","1","k6d13ehd61xg8sv","","null","","sounds/B/FAM/W003.mp3","","null","","","","","","","","","","","","","","","","","","","","","","","","","","","","","","","","","","","","","","","","","",""
"html-keyboard-response","254","3654939","0.0-7.0-1.0-2.4","2","1","k6d13ehd61xg8sv","","1141.6000000238419","","<p>How familiar did this sound to you?</p><p>1&nbsp;&nbsp;&nbsp;&nbsp;&nbsp;&nbsp;&nbsp;&nbsp;&nbsp;&nbsp;&nbsp;&nbsp;&nbsp;&nbsp;&nbsp;&nbsp;&nbsp;&nbsp;&nbsp;2&nbsp;&nbsp;&nbsp;&nbsp;&nbsp;&nbsp;&nbsp;&nbsp;&nbsp;&nbsp;&nbsp;&nbsp;&nbsp;&nbsp;&nbsp;&nbsp;&nbsp;&nbsp;&nbsp;3&nbsp;&nbsp;&nbsp;&nbsp;&nbsp;&nbsp;&nbsp;&nbsp;&nbsp;&nbsp;&nbsp;&nbsp;&nbsp;&nbsp;&nbsp;&nbsp;&nbsp;&nbsp;&nbsp;4</p><p style=""font-size:14px"">Not at all familiar&nbsp;&nbsp;&nbsp;&nbsp;A little familiar&nbsp;&nbsp;&nbsp;Moderately familiar&nbsp;&nbsp;&nbsp;Extremely familiar</p><p>(press the corresponding number on your keyboard)</p>","","52","","","FAM-RESPONSE","","","","","","","","","","","","","","","","","","","sounds/B/FAM/W003.mp3","word","","","","","","","","","","","","","","","","","","",""
"html-keyboard-response","255","3656947","0.0-7.0-1.0-0.5","2","1","k6d13ehd61xg8sv","","null","","","","null","","","","","","","","","","","","","","","","","","","","","","","","","","","","","","","","","","","","","","","","","",""
"audio-keyboard-response","256","3657892","0.0-7.0-1.0-1.5","2","1","k6d13ehd61xg8sv","","null","","sounds/B/FAM/P001.mp3","","null","","","","","","","","","","","","","","","","","","","","","","","","","","","","","","","","","","","","","","","","","",""
"html-keyboard-response","257","3658725","0.0-7.0-1.0-2.5","2","1","k6d13ehd61xg8sv","","331.5999999642372","","<p>How familiar did this sound to you?</p><p>1&nbsp;&nbsp;&nbsp;&nbsp;&nbsp;&nbsp;&nbsp;&nbsp;&nbsp;&nbsp;&nbsp;&nbsp;&nbsp;&nbsp;&nbsp;&nbsp;&nbsp;&nbsp;&nbsp;2&nbsp;&nbsp;&nbsp;&nbsp;&nbsp;&nbsp;&nbsp;&nbsp;&nbsp;&nbsp;&nbsp;&nbsp;&nbsp;&nbsp;&nbsp;&nbsp;&nbsp;&nbsp;&nbsp;3&nbsp;&nbsp;&nbsp;&nbsp;&nbsp;&nbsp;&nbsp;&nbsp;&nbsp;&nbsp;&nbsp;&nbsp;&nbsp;&nbsp;&nbsp;&nbsp;&nbsp;&nbsp;&nbsp;4</p><p style=""font-size:14px"">Not at all familiar&nbsp;&nbsp;&nbsp;&nbsp;A little familiar&nbsp;&nbsp;&nbsp;Moderately familiar&nbsp;&nbsp;&nbsp;Extremely familiar</p><p>(press the corresponding number on your keyboard)</p>","","52","","","FAM-RESPONSE","","","","","","","","","","","","","","","","","","","sounds/B/FAM/P001.mp3","partword","","","","","","","","","","","","","","","","","","",""
"html-keyboard-response","258","3660727","0.0-7.0-1.0-0.6","2","1","k6d13ehd61xg8sv","","null","","","","null","","","","","","","","","","","","","","","","","","","","","","","","","","","","","","","","","","","","","","","","","",""
"audio-keyboard-response","259","3661673","0.0-7.0-1.0-1.6","2","1","k6d13ehd61xg8sv","","null","","sounds/B/FAM/N004.mp3","","null","","","","","","","","","","","","","","","","","","","","","","","","","","","","","","","","","","","","","","","","","",""
"html-keyboard-response","260","3665128","0.0-7.0-1.0-2.6","2","1","k6d13ehd61xg8sv","","2953.100000023842","","<p>How familiar did this sound to you?</p><p>1&nbsp;&nbsp;&nbsp;&nbsp;&nbsp;&nbsp;&nbsp;&nbsp;&nbsp;&nbsp;&nbsp;&nbsp;&nbsp;&nbsp;&nbsp;&nbsp;&nbsp;&nbsp;&nbsp;2&nbsp;&nbsp;&nbsp;&nbsp;&nbsp;&nbsp;&nbsp;&nbsp;&nbsp;&nbsp;&nbsp;&nbsp;&nbsp;&nbsp;&nbsp;&nbsp;&nbsp;&nbsp;&nbsp;3&nbsp;&nbsp;&nbsp;&nbsp;&nbsp;&nbsp;&nbsp;&nbsp;&nbsp;&nbsp;&nbsp;&nbsp;&nbsp;&nbsp;&nbsp;&nbsp;&nbsp;&nbsp;&nbsp;4</p><p style=""font-size:14px"">Not at all familiar&nbsp;&nbsp;&nbsp;&nbsp;A little familiar&nbsp;&nbsp;&nbsp;Moderately familiar&nbsp;&nbsp;&nbsp;Extremely familiar</p><p>(press the corresponding number on your keyboard)</p>","","51","","","FAM-RESPONSE","","","","","","","","","","","","","","","","","","","sounds/B/FAM/N004.mp3","nonword","","","","","","","","","","","","","","","","","","",""
"html-keyboard-response","261","3667135","0.0-7.0-1.0-0.7","2","1","k6d13ehd61xg8sv","","null","","","","null","","","","","","","","","","","","","","","","","","","","","","","","","","","","","","","","","","","","","","","","","",""
"audio-keyboard-response","262","3668078","0.0-7.0-1.0-1.7","2","1","k6d13ehd61xg8sv","","null","","sounds/B/FAM/P004.mp3","","null","","","","","","","","","","","","","","","","","","","","","","","","","","","","","","","","","","","","","","","","","",""
"html-keyboard-response","263","3669857","0.0-7.0-1.0-2.7","2","1","k6d13ehd61xg8sv","","1276.8999999761581","","<p>How familiar did this sound to you?</p><p>1&nbsp;&nbsp;&nbsp;&nbsp;&nbsp;&nbsp;&nbsp;&nbsp;&nbsp;&nbsp;&nbsp;&nbsp;&nbsp;&nbsp;&nbsp;&nbsp;&nbsp;&nbsp;&nbsp;2&nbsp;&nbsp;&nbsp;&nbsp;&nbsp;&nbsp;&nbsp;&nbsp;&nbsp;&nbsp;&nbsp;&nbsp;&nbsp;&nbsp;&nbsp;&nbsp;&nbsp;&nbsp;&nbsp;3&nbsp;&nbsp;&nbsp;&nbsp;&nbsp;&nbsp;&nbsp;&nbsp;&nbsp;&nbsp;&nbsp;&nbsp;&nbsp;&nbsp;&nbsp;&nbsp;&nbsp;&nbsp;&nbsp;4</p><p style=""font-size:14px"">Not at all familiar&nbsp;&nbsp;&nbsp;&nbsp;A little familiar&nbsp;&nbsp;&nbsp;Moderately familiar&nbsp;&nbsp;&nbsp;Extremely familiar</p><p>(press the corresponding number on your keyboard)</p>","","50","","","FAM-RESPONSE","","","","","","","","","","","","","","","","","","","sounds/B/FAM/P004.mp3","partword","","","","","","","","","","","","","","","","","","",""
"html-keyboard-response","264","3671865","0.0-7.0-1.0-0.8","2","1","k6d13ehd61xg8sv","","null","","","","null","","","","","","","","","","","","","","","","","","","","","","","","","","","","","","","","","","","","","","","","","",""
"audio-keyboard-response","265","3672809","0.0-7.0-1.0-1.8","2","1","k6d13ehd61xg8sv","","null","","sounds/B/FAM/N001.mp3","","null","","","","","","","","","","","","","","","","","","","","","","","","","","","","","","","","","","","","","","","","","",""
"html-keyboard-response","266","3673840","0.0-7.0-1.0-2.8","2","1","k6d13ehd61xg8sv","","528.8000000119209","","<p>How familiar did this sound to you?</p><p>1&nbsp;&nbsp;&nbsp;&nbsp;&nbsp;&nbsp;&nbsp;&nbsp;&nbsp;&nbsp;&nbsp;&nbsp;&nbsp;&nbsp;&nbsp;&nbsp;&nbsp;&nbsp;&nbsp;2&nbsp;&nbsp;&nbsp;&nbsp;&nbsp;&nbsp;&nbsp;&nbsp;&nbsp;&nbsp;&nbsp;&nbsp;&nbsp;&nbsp;&nbsp;&nbsp;&nbsp;&nbsp;&nbsp;3&nbsp;&nbsp;&nbsp;&nbsp;&nbsp;&nbsp;&nbsp;&nbsp;&nbsp;&nbsp;&nbsp;&nbsp;&nbsp;&nbsp;&nbsp;&nbsp;&nbsp;&nbsp;&nbsp;4</p><p style=""font-size:14px"">Not at all familiar&nbsp;&nbsp;&nbsp;&nbsp;A little familiar&nbsp;&nbsp;&nbsp;Moderately familiar&nbsp;&nbsp;&nbsp;Extremely familiar</p><p>(press the corresponding number on your keyboard)</p>","","49","","","FAM-RESPONSE","","","","","","","","","","","","","","","","","","","sounds/B/FAM/N001.mp3","nonword","","","","","","","","","","","","","","","","","","",""
"html-keyboard-response","267","3675844","0.0-7.0-1.0-0.9","2","1","k6d13ehd61xg8sv","","null","","","","null","","","","","","","","","","","","","","","","","","","","","","","","","","","","","","","","","","","","","","","","","",""
"audio-keyboard-response","268","3676788","0.0-7.0-1.0-1.9","2","1","k6d13ehd61xg8sv","","null","","sounds/B/FAM/W002.mp3","","null","","","","","","","","","","","","","","","","","","","","","","","","","","","","","","","","","","","","","","","","","",""
"html-keyboard-response","269","3677347","0.0-7.0-1.0-2.9","2","1","k6d13ehd61xg8sv","","57.59999996423721","","<p>How familiar did this sound to you?</p><p>1&nbsp;&nbsp;&nbsp;&nbsp;&nbsp;&nbsp;&nbsp;&nbsp;&nbsp;&nbsp;&nbsp;&nbsp;&nbsp;&nbsp;&nbsp;&nbsp;&nbsp;&nbsp;&nbsp;2&nbsp;&nbsp;&nbsp;&nbsp;&nbsp;&nbsp;&nbsp;&nbsp;&nbsp;&nbsp;&nbsp;&nbsp;&nbsp;&nbsp;&nbsp;&nbsp;&nbsp;&nbsp;&nbsp;3&nbsp;&nbsp;&nbsp;&nbsp;&nbsp;&nbsp;&nbsp;&nbsp;&nbsp;&nbsp;&nbsp;&nbsp;&nbsp;&nbsp;&nbsp;&nbsp;&nbsp;&nbsp;&nbsp;4</p><p style=""font-size:14px"">Not at all familiar&nbsp;&nbsp;&nbsp;&nbsp;A little familiar&nbsp;&nbsp;&nbsp;Moderately familiar&nbsp;&nbsp;&nbsp;Extremely familiar</p><p>(press the corresponding number on your keyboard)</p>","","49","","","FAM-RESPONSE","","","","","","","","","","","","","","","","","","","sounds/B/FAM/W002.mp3","word","","","","","","","","","","","","","","","","","","",""
"html-keyboard-response","270","3679352","0.0-7.0-1.0-0.10","2","1","k6d13ehd61xg8sv","","null","","","","null","","","","","","","","","","","","","","","","","","","","","","","","","","","","","","","","","","","","","","","","","",""
"audio-keyboard-response","271","3680292","0.0-7.0-1.0-1.10","2","1","k6d13ehd61xg8sv","","null","","sounds/B/FAM/W004.mp3","","null","","","","","","","","","","","","","","","","","","","","","","","","","","","","","","","","","","","","","","","","","",""
"html-keyboard-response","272","3683853","0.0-7.0-1.0-2.10","2","1","k6d13ehd61xg8sv","","3059","","<p>How familiar did this sound to you?</p><p>1&nbsp;&nbsp;&nbsp;&nbsp;&nbsp;&nbsp;&nbsp;&nbsp;&nbsp;&nbsp;&nbsp;&nbsp;&nbsp;&nbsp;&nbsp;&nbsp;&nbsp;&nbsp;&nbsp;2&nbsp;&nbsp;&nbsp;&nbsp;&nbsp;&nbsp;&nbsp;&nbsp;&nbsp;&nbsp;&nbsp;&nbsp;&nbsp;&nbsp;&nbsp;&nbsp;&nbsp;&nbsp;&nbsp;3&nbsp;&nbsp;&nbsp;&nbsp;&nbsp;&nbsp;&nbsp;&nbsp;&nbsp;&nbsp;&nbsp;&nbsp;&nbsp;&nbsp;&nbsp;&nbsp;&nbsp;&nbsp;&nbsp;4</p><p style=""font-size:14px"">Not at all familiar&nbsp;&nbsp;&nbsp;&nbsp;A little familiar&nbsp;&nbsp;&nbsp;Moderately familiar&nbsp;&nbsp;&nbsp;Extremely familiar</p><p>(press the corresponding number on your keyboard)</p>","","51","","","FAM-RESPONSE","","","","","","","","","","","","","","","","","","","sounds/B/FAM/W004.mp3","word","","","","","","","","","","","","","","","","","","",""
"html-keyboard-response","273","3685861","0.0-7.0-1.0-0.11","2","1","k6d13ehd61xg8sv","","null","","","","null","","","","","","","","","","","","","","","","","","","","","","","","","","","","","","","","","","","","","","","","","",""
"audio-keyboard-response","274","3686804","0.0-7.0-1.0-1.11","2","1","k6d13ehd61xg8sv","","null","","sounds/B/FAM/N003.mp3","","null","","","","","","","","","","","","","","","","","","","","","","","","","","","","","","","","","","","","","","","","","",""
"html-keyboard-response","275","3687603","0.0-7.0-1.0-2.11","2","1","k6d13ehd61xg8sv","","293.5999999642372","","<p>How familiar did this sound to you?</p><p>1&nbsp;&nbsp;&nbsp;&nbsp;&nbsp;&nbsp;&nbsp;&nbsp;&nbsp;&nbsp;&nbsp;&nbsp;&nbsp;&nbsp;&nbsp;&nbsp;&nbsp;&nbsp;&nbsp;2&nbsp;&nbsp;&nbsp;&nbsp;&nbsp;&nbsp;&nbsp;&nbsp;&nbsp;&nbsp;&nbsp;&nbsp;&nbsp;&nbsp;&nbsp;&nbsp;&nbsp;&nbsp;&nbsp;3&nbsp;&nbsp;&nbsp;&nbsp;&nbsp;&nbsp;&nbsp;&nbsp;&nbsp;&nbsp;&nbsp;&nbsp;&nbsp;&nbsp;&nbsp;&nbsp;&nbsp;&nbsp;&nbsp;4</p><p style=""font-size:14px"">Not at all familiar&nbsp;&nbsp;&nbsp;&nbsp;A little familiar&nbsp;&nbsp;&nbsp;Moderately familiar&nbsp;&nbsp;&nbsp;Extremely familiar</p><p>(press the corresponding number on your keyboard)</p>","","52","","","FAM-RESPONSE","","","","","","","","","","","","","","","","","","","sounds/B/FAM/N003.mp3","nonword","","","","","","","","","","","","","","","","","","",""
"html-button-response","276","3698724","0.0-8.0-0.0","2","1","k6d13ehd61xg8sv","","10115.600000023842","","<p>You will now listen to longer sound sequences.</p><p>Each sound sequence will last about 16 seconds.</p><p>On each trial, you will be given a <u>TARGET SOUND</u>. Your task is to listen very carefully for this sound.</p><p>Every time you hear the <u>TARGET SOUND</u>, you will press the <b>SPACEBAR</b> as quickly and accurately as you can.</p>","0","","","","","","","","","","","","","","","","","","","","","","","","","","","","","","","","","","","","","","","","","","",""
"html-button-response","277","3704134","0.0-8.0-1.0","2","1","k6d13ehd61xg8sv","","5156.900000035763","","<p>It is very important that you make your responses as quickly and accurately as possible.</p><p>To help you make your responses, you will be able to listen to the <u>TARGET SOUND</u> at the beginning of each trial.</p><p>There will be 36 total trials.</p><p><b>Note: This is meant to be a difficult task. We simply want you to try your best.</p>","0","","","","","","","","","","","","","","","","","","","","","","","","","","","","","","","","","","","","","","","","","","",""
"html-button-response","278","3705583","0.0-8.0-2.0-0.0","2","1","k6d13ehd61xg8sv","","1192.7000000476837","","<p>Trial 1 of 36</p>","0","","","","","","","","","","","","","","","","","","","","","","","","","FE","sounds/syllables/fe_SWS.wav","2400,5100,8700,12300","3","","","","","","","","","","","","","","",""
"html-keyboard-response","279","3709765","0.0-8.0-2.0-1.0","2","1","k6d13ehd61xg8sv","","4180.199999988079","","","","80","","","","","","","","","","","","","","","","","","","","","","","","FE","","2400,5100,8700,12300","3","","","","","","","","","","","","","","",""
"audio-keyboard-response","280","3710069","0.0-8.0-2.0-2.0-0.0","2","1","k6d13ehd61xg8sv","","null","","sounds/syllables/fe_SWS.wav","","null","","","","","","","","","","","","","","","","","","","","","","","","","","","","","","","","","","","","","","","","","",""
"html-keyboard-response","281","3712669","0.0-8.0-2.0-2.0-1.0","2","1","k6d13ehd61xg8sv","","2599.199999988079","","<p>To replay the <u>TARGET SOUND</u>, press P.</p> When you are ready to begin, press SPACEBAR.","","80","","","","","","","","","","","","","","","","","","","","","","","","","","","","","","","","","","","","","","","","","",""
"audio-keyboard-response","282","3713477","0.0-8.0-2.0-2.1-0.1","2","1","k6d13ehd61xg8sv","","null","","sounds/syllables/fe_SWS.wav","","null","","","","","","","","","","","","","","","","","","","","","","","","","","","","","","","","","","","","","","","","","",""
"html-keyboard-response","283","3714801","0.0-8.0-2.0-2.1-1.1","2","1","k6d13ehd61xg8sv","","1323.4000000357628","","<p>To replay the <u>TARGET SOUND</u>, press P.</p> When you are ready to begin, press SPACEBAR.","","32","","","","","","","","","","","","","","","","","","","","","","","","","","","","","","","","","","","","","","","","","",""
"audio-keyboard-response","284","3729750","0.0-8.0-2.0-3.0","2","1","k6d13ehd61xg8sv","","9237","","sounds/B/TD/FE_06_TD.mp3","","32","","","TD_SUMMARY","","","","","","","","","","","","","","","","","","","","","FE","","2400,5100,8700,12300","3","2400","5100","8700","12300","null","null","538.1999999880791","287.60000002384186","9238.199999988079_9999.100000023842_12587.600000023842_14230","2","","","","",""
"html-button-response","285","3731897","0.0-8.0-2.0-0.1","2","1","k6d13ehd61xg8sv","","2144.7000000476837","","<p>Trial 2 of 36</p>","0","","","","","","","","","","","","","","","","","","","","","","","","","PU","sounds/syllables/pu_SWS.wav","900,2700,5400,9900","1","","","","","","","","","","","","","","",""
"html-keyboard-response","286","3733734","0.0-8.0-2.0-1.1","2","1","k6d13ehd61xg8sv","","1834.3999999761581","","","","80","","","","","","","","","","","","","","","","","","","","","","","","PU","","900,2700,5400,9900","1","","","","","","","","","","","","","","",""
"audio-keyboard-response","287","3734037","0.0-8.0-2.0-2.2-0.2","2","1","k6d13ehd61xg8sv","","null","","sounds/syllables/pu_SWS.wav","","null","","","","","","","","","","","","","","","","","","","","","","","","","","","","","","","","","","","","","","","","","",""
"html-keyboard-response","288","3734975","0.0-8.0-2.0-2.2-1.2","2","1","k6d13ehd61xg8sv","","936.3000000119209","","<p>To replay the <u>TARGET SOUND</u>, press P.</p> When you are ready to begin, press SPACEBAR.","","80","","","","","","","","","","","","","","","","","","","","","","","","","","","","","","","","","","","","","","","","","",""
"audio-keyboard-response","289","3735776","0.0-8.0-2.0-2.3-0.3","2","1","k6d13ehd61xg8sv","","null","","sounds/syllables/pu_SWS.wav","","null","","","","","","","","","","","","","","","","","","","","","","","","","","","","","","","","","","","","","","","","","",""
"html-keyboard-response","290","3736161","0.0-8.0-2.0-2.3-1.3","2","1","k6d13ehd61xg8sv","","384.5","","<p>To replay the <u>TARGET SOUND</u>, press P.</p> When you are ready to begin, press SPACEBAR.","","80","","","","","","","","","","","","","","","","","","","","","","","","","","","","","","","","","","","","","","","","","",""
"audio-keyboard-response","291","3736965","0.0-8.0-2.0-2.4-0.4","2","1","k6d13ehd61xg8sv","","null","","sounds/syllables/pu_SWS.wav","","null","","","","","","","","","","","","","","","","","","","","","","","","","","","","","","","","","","","","","","","","","",""
"html-keyboard-response","292","3737638","0.0-8.0-2.0-2.4-1.4","2","1","k6d13ehd61xg8sv","","671","","<p>To replay the <u>TARGET SOUND</u>, press P.</p> When you are ready to begin, press SPACEBAR.","","32","","","","","","","","","","","","","","","","","","","","","","","","","","","","","","","","","","","","","","","","","",""
"audio-keyboard-response","293","3752587","0.0-8.0-2.0-3.1","2","1","k6d13ehd61xg8sv","","1477","","sounds/B/TD/PU_02_TD.mp3","","32","","","TD_SUMMARY","","","","","","","","","","","","","","","","","","","","","PU","","900,2700,5400,9900","1","900","2700","5400","9900","576.8000000119209","675.6999999880791","493.39999997615814","null","____1476.800000011921_3375.699999988079_4440.199999988079_5893.399999976158_8865","3","","","","",""
"html-button-response","294","3754483","0.0-8.0-2.0-0.2","2","1","k6d13ehd61xg8sv","","1893.3999999761581","","<p>Trial 3 of 36</p>","0","","","","","","","","","","","","","","","","","","","","","","","","","TI","sounds/syllables/ti_SWS.wav","900,7200,9000,11700","1","","","","","","","","","","","","","","",""
"html-keyboard-response","295","3755870","0.0-8.0-2.0-1.2","2","1","k6d13ehd61xg8sv","","1384.5","","","","80","","","","","","","","","","","","","","","","","","","","","","","","TI","","900,7200,9000,11700","1","","","","","","","","","","","","","","",""
"audio-keyboard-response","296","3756171","0.0-8.0-2.0-2.5-0.5","2","1","k6d13ehd61xg8sv","","null","","sounds/syllables/ti_SWS.wav","","null","","","","","","","","","","","","","","","","","","","","","","","","","","","","","","","","","","","","","","","","","",""
"html-keyboard-response","297","3757007","0.0-8.0-2.0-2.5-1.5","2","1","k6d13ehd61xg8sv","","834.8000000119209","","<p>To replay the <u>TARGET SOUND</u>, press P.</p> When you are ready to begin, press SPACEBAR.","","80","","","","","","","","","","","","","","","","","","","","","","","","","","","","","","","","","","","","","","","","","",""
"audio-keyboard-response","298","3757814","0.0-8.0-2.0-2.6-0.6","2","1","k6d13ehd61xg8sv","","null","","sounds/syllables/ti_SWS.wav","","null","","","","","","","","","","","","","","","","","","","","","","","","","","","","","","","","","","","","","","","","","",""
"html-keyboard-response","299","3758354","0.0-8.0-2.0-2.6-1.6","2","1","k6d13ehd61xg8sv","","538.5","","<p>To replay the <u>TARGET SOUND</u>, press P.</p> When you are ready to begin, press SPACEBAR.","","32","","","","","","","","","","","","","","","","","","","","","","","","","","","","","","","","","","","","","","","","","",""
"audio-keyboard-response","300","3773303","0.0-8.0-2.0-3.2","2","1","k6d13ehd61xg8sv","","4416","","sounds/B/TD/TI_04_TD.mp3","","32","","","TD_SUMMARY","","","","","","","","","","","","","","","","","","","","","TI","","900,7200,9000,11700","1","900","7200","9000","11700","null","null","578.3000000119209","429.60000002384186","_________4417.100000023842_5619.199999988079_6954.400000035763_9578.300000011921_10512.199999988079_11438.400000035763_12129.600000023842_13464.900000035763","2","","","","",""
"html-button-response","301","3774721","0.0-8.0-2.0-0.3","2","1","k6d13ehd61xg8sv","","1416.199999988079","","<p>Trial 4 of 36</p>","0","","","","","","","","","","","","","","","","","","","","","","","","","RE","sounds/syllables/re_SWS.wav","2400,7800,9600,13200","3","","","","","","","","","","","","","","",""
"html-keyboard-response","302","3775993","0.0-8.0-2.0-1.3","2","1","k6d13ehd61xg8sv","","1271.0999999642372","","","","80","","","","","","","","","","","","","","","","","","","","","","","","RE","","2400,7800,9600,13200","3","","","","","","","","","","","","","","",""
"audio-keyboard-response","303","3776295","0.0-8.0-2.0-2.7-0.7","2","1","k6d13ehd61xg8sv","","null","","sounds/syllables/re_SWS.wav","","null","","","","","","","","","","","","","","","","","","","","","","","","","","","","","","","","","","","","","","","","","",""
"html-keyboard-response","304","3777143","0.0-8.0-2.0-2.7-1.7","2","1","k6d13ehd61xg8sv","","847.6999999880791","","<p>To replay the <u>TARGET SOUND</u>, press P.</p> When you are ready to begin, press SPACEBAR.","","80","","","","","","","","","","","","","","","","","","","","","","","","","","","","","","","","","","","","","","","","","",""
"audio-keyboard-response","305","3777948","0.0-8.0-2.0-2.8-0.8","2","1","k6d13ehd61xg8sv","","null","","sounds/syllables/re_SWS.wav","","null","","","","","","","","","","","","","","","","","","","","","","","","","","","","","","","","","","","","","","","","","",""
"html-keyboard-response","306","3779024","0.0-8.0-2.0-2.8-1.8","2","1","k6d13ehd61xg8sv","","1075.2000000476837","","<p>To replay the <u>TARGET SOUND</u>, press P.</p> When you are ready to begin, press SPACEBAR.","","32","","","","","","","","","","","","","","","","","","","","","","","","","","","","","","","","","","","","","","","","","",""
"audio-keyboard-response","307","3793975","0.0-8.0-2.0-3.3","2","1","k6d13ehd61xg8sv","","3248","","sounds/B/TD/RE_10_TD.mp3","","32","","","TD_SUMMARY","","","","","","","","","","","","","","","","","","","","","RE","","2400,7800,9600,13200","3","2400","7800","9600","13200","848","809.1000000238419","806.6999999880791","835.1000000238419","_________________3248_4355.300000011921_6319.600000023842_6676.300000011921_7054.899999976158_8609.100000023842_10406.699999988079_10916.5_14035.100000023842","2","","","","",""
"html-button-response","308","3795840","0.0-8.0-2.0-0.4","2","1","k6d13ehd61xg8sv","","1862.3999999761581","","<p>Trial 5 of 36</p>","0","","","","","","","","","","","","","","","","","","","","","","","","","FU","sounds/syllables/fu_SWS.wav","4500,8100,9900,12600","1","","","","","","","","","","","","","","",""
"html-keyboard-response","309","3796961","0.0-8.0-2.0-1.4","2","1","k6d13ehd61xg8sv","","1119.5999999642372","","","","80","","","","","","","","","","","","","","","","","","","","","","","","FU","","4500,8100,9900,12600","1","","","","","","","","","","","","","","",""
"audio-keyboard-response","310","3797261","0.0-8.0-2.0-2.9-0.9","2","1","k6d13ehd61xg8sv","","null","","sounds/syllables/fu_SWS.wav","","null","","","","","","","","","","","","","","","","","","","","","","","","","","","","","","","","","","","","","","","","","",""
"html-keyboard-response","311","3797900","0.0-8.0-2.0-2.9-1.9","2","1","k6d13ehd61xg8sv","","638.3000000119209","","<p>To replay the <u>TARGET SOUND</u>, press P.</p> When you are ready to begin, press SPACEBAR.","","80","","","","","","","","","","","","","","","","","","","","","","","","","","","","","","","","","","","","","","","","","",""
"audio-keyboard-response","312","3798706","0.0-8.0-2.0-2.10-0.10","2","1","k6d13ehd61xg8sv","","null","","sounds/syllables/fu_SWS.wav","","null","","","","","","","","","","","","","","","","","","","","","","","","","","","","","","","","","","","","","","","","","",""
"html-keyboard-response","313","3799146","0.0-8.0-2.0-2.10-1.10","2","1","k6d13ehd61xg8sv","","439.19999998807907","","<p>To replay the <u>TARGET SOUND</u>, press P.</p> When you are ready to begin, press SPACEBAR.","","32","","","","","","","","","","","","","","","","","","","","","","","","","","","","","","","","","","","","","","","","","",""
