"trial_type","trial_index","time_elapsed","internal_node_id","counterbalance","lang_instruct","ParticipantID","view_history","rt","url","stimulus","button_pressed","key_press","correctRESP","correct","designation","location","correctanswer","responses","sentence","keywords","typed_resp","keyword1_acc","keyword2_acc","keyword3_acc","keyword4_acc","keyword5_acc","total_acc","prop_acc","timeouts","pause_rt01","pause_rt02","train_file","numKeyPress","sound","fam_type","SYLLABLE","EXEMPLAR","TD_LOCS","TD_TYPE","TDLOC_01","TDLOC_02","TDLOC_03","TDLOC_04","TD_RT_01","TD_RT_02","TD_RT_03","TD_RT_04","TD_SUBJ_RTs","number_of_plays","slider_start","response","question_order","syllable","syllable_type"
"pavlovia","0","4","0.0-0.0","2","1","f49wasxk84wrtha","","","","","","","","","","","","","","","","","","","","","","","","","","","","","","","","","","","","","","","","","","","","","","","",""
"instructions","1","23140","0.0-1.0","2","1","f49wasxk84wrtha","[{""page_index"":0,""viewing_time"":8307.099999999627},{""page_index"":1,""viewing_time"":14825.299999998882}]","23135.599999999627","","","","","","","","","","","","","","","","","","","","","","","","","","","","","","","","","","","","","","","","","","","","","",""
"external-html","2","26174","0.0-2.0","2","1","f49wasxk84wrtha","","2895.300000000745","consent/consent.html","","","","","","","","","","","","","","","","","","","","","","","","","","","","","","","","","","","","","","","","","","","","",""
"html-button-response","3","28313","0.0-3.0-0.0-0.0","2","1","f49wasxk84wrtha","","2135.9000000003725","","<p>Welcome to the study. You will first complete a short volume calibration and headphone check.</p><p>Please make sure you are in a quiet listening environment, that you are wearing headphones, and that your computer's volume is turned on.<p></p>","0","","","","","","","","","","","","","","","","","","","","","","","","","","","","","","","","","","","","","","","","","","",""
"html-button-response","4","35400","0.0-3.0-0.0-1.0","2","1","f49wasxk84wrtha","","6829.4000000003725","","<p>The volume calibration will be first.</p><p>You will hear a thirty-second noise. Please adjust your computer's volume so that this noise is being presented at a comfortable level.<p></p>","0","","","","","","","","","","","","","","","","","","","","","","","","","","","","","","","","","","","","","","","","","","",""
"audio-button-response","5","43323","0.0-3.0-0.0-2.0","2","1","f49wasxk84wrtha","","7175","","audCalib/volumetest.mp3","0","","","","","","","","","","","","","","","","","","","","","","","","","","","","","","","","","","","","","","","","","","",""
"html-button-response","6","48504","0.0-3.0-1.0-0.0","2","1","f49wasxk84wrtha","","5179.200000001118","","<p>You will now complete a short headphone check.</p><p>On each trial, you will hear three tones. One of these tones will be quieter than the others. Your task is to identify whether the quiet tone occured first, second, or third.</p><p>There are six trials in total.<p></p>","0","","","","","","","","","","","","","","","","","","","","","","","","","","","","","","","","","","","","","","","","","","",""
"html-keyboard-response","7","49260","0.0-3.0-1.0-1.0-0.0","2","1","f49wasxk84wrtha","","null","","<div style=""font-size:60px;"">+</div>","","null","","","","","","","","","","","","","","","","","","","","","","","","","","","","","","","","","","","","","","","","","",""
"audio-button-response","8","53714","0.0-3.0-1.0-1.0-1.0","2","1","f49wasxk84wrtha","","4452","","audCalib/t3_2.mp3","2","","2","1","headphone-test","","","","","","","","","","","","","","","","","","","","","","","","","","","","","","","","","","","","","","",""
"html-keyboard-response","9","54475","0.0-3.0-1.0-1.0-0.1","2","1","f49wasxk84wrtha","","null","","<div style=""font-size:60px;"">+</div>","","null","","","","","","","","","","","","","","","","","","","","","","","","","","","","","","","","","","","","","","","","","",""
"audio-button-response","10","58973","0.0-3.0-1.0-1.0-1.1","2","1","f49wasxk84wrtha","","4505","","audCalib/t3_1.mp3","2","","2","1","headphone-test","","","","","","","","","","","","","","","","","","","","","","","","","","","","","","","","","","","","","","",""
"html-keyboard-response","11","59726","0.0-3.0-1.0-1.0-0.2","2","1","f49wasxk84wrtha","","null","","<div style=""font-size:60px;"">+</div>","","null","","","","","","","","","","","","","","","","","","","","","","","","","","","","","","","","","","","","","","","","","",""
"audio-button-response","12","64621","0.0-3.0-1.0-1.0-1.2","2","1","f49wasxk84wrtha","","4894","","audCalib/t1_2.mp3","0","","0","1","headphone-test","","","","","","","","","","","","","","","","","","","","","","","","","","","","","","","","","","","","","","",""
"html-keyboard-response","13","65378","0.0-3.0-1.0-1.0-0.3","2","1","f49wasxk84wrtha","","null","","<div style=""font-size:60px;"">+</div>","","null","","","","","","","","","","","","","","","","","","","","","","","","","","","","","","","","","","","","","","","","","",""
"audio-button-response","14","69912","0.0-3.0-1.0-1.0-1.3","2","1","f49wasxk84wrtha","","4528","","audCalib/t2_1.mp3","1","","1","1","headphone-test","","","","","","","","","","","","","","","","","","","","","","","","","","","","","","","","","","","","","","",""
"html-keyboard-response","15","70672","0.0-3.0-1.0-1.0-0.4","2","1","f49wasxk84wrtha","","null","","<div style=""font-size:60px;"">+</div>","","null","","","","","","","","","","","","","","","","","","","","","","","","","","","","","","","","","","","","","","","","","",""
"audio-button-response","16","75269","0.0-3.0-1.0-1.0-1.4","2","1","f49wasxk84wrtha","","4592","","audCalib/t1_1.mp3","0","","0","1","headphone-test","","","","","","","","","","","","","","","","","","","","","","","","","","","","","","","","","","","","","","",""
"html-keyboard-response","17","76030","0.0-3.0-1.0-1.0-0.5","2","1","f49wasxk84wrtha","","null","","<div style=""font-size:60px;"">+</div>","","null","","","","","","","","","","","","","","","","","","","","","","","","","","","","","","","","","","","","","","","","","",""
"audio-button-response","18","80144","0.0-3.0-1.0-1.0-1.5","2","1","f49wasxk84wrtha","","4110","","audCalib/t2_2.mp3","1","","1","1","headphone-test","","","","","","","","","","","","","","","","","","","","","","","","","","","","","","","","","","","","","","",""
"html-button-response","19","82173","0.0-3.0-2.0","2","1","f49wasxk84wrtha","","1773.6000000014901","","<p>The volume calibration and headphone check are now complete.</p>","0","","","","","","","","","","","","","","","","","","","","","","","","","","","","","","","","","","","","","","","","","","",""
"instructions","20","95663","0.0-4.0-0.0","2","1","f49wasxk84wrtha","[{""page_index"":0,""viewing_time"":1506.5},{""page_index"":1,""viewing_time"":9332.099999999627},{""page_index"":2,""viewing_time"":2648.800000000745}]","13488.299999998882","","","","","","","","","","","","","","","","","","","","","","","","","","","","","","","","","","","","","","","","","","","","","",""
"audio-keyboard-response","21","95964","0.0-4.0-1.0-0.0","2","1","f49wasxk84wrtha","","null","","sounds/induction/right/ni_SWS.wav","","null","","","","","","","","","","","","","","","","","","","","","","","","","","","","","","","","","","","","","","","","","",""
"html-button-response","22","99426","0.0-4.0-1.0-1.0","2","1","f49wasxk84wrtha","","3460.0999999996275","","What sound did you hear?","1","","","0","INDUCTION-JUDGMENT","right","0","","","","","","","","","","","","","","","","","","","","","","","","","","","","","","","","","","","","",""
"html-keyboard-response","23","100430","0.0-4.0-1.0-2.0","2","1","f49wasxk84wrtha","","null","","<p style=""color:red;""><b>Incorrect!</b></p>","","null","","","","","","","","","","","","","","","","","","","","","","","","","","","","","","","","","","","","","","","","","",""
"audio-keyboard-response","24","101229","0.0-4.0-1.0-0.1","2","1","f49wasxk84wrtha","","null","","sounds/induction/right/ko_SWS.wav","","null","","","","","","","","","","","","","","","","","","","","","","","","","","","","","","","","","","","","","","","","","",""
"html-button-response","25","103623","0.0-4.0-1.0-1.1","2","1","f49wasxk84wrtha","","2392.5","","What sound did you hear?","1","","","0","INDUCTION-JUDGMENT","right","0","","","","","","","","","","","","","","","","","","","","","","","","","","","","","","","","","","","","",""
"html-keyboard-response","26","104626","0.0-4.0-1.0-2.1","2","1","f49wasxk84wrtha","","null","","<p style=""color:red;""><b>Incorrect!</b></p>","","null","","","","","","","","","","","","","","","","","","","","","","","","","","","","","","","","","","","","","","","","","",""
"audio-keyboard-response","27","105428","0.0-4.0-1.0-0.2","2","1","f49wasxk84wrtha","","null","","sounds/induction/right/pu_SWS.wav","","null","","","","","","","","","","","","","","","","","","","","","","","","","","","","","","","","","","","","","","","","","",""
"html-button-response","28","107543","0.0-4.0-1.0-1.2","2","1","f49wasxk84wrtha","","2113.9000000003725","","What sound did you hear?","1","","","1","INDUCTION-JUDGMENT","right","1","","","","","","","","","","","","","","","","","","","","","","","","","","","","","","","","","","","","",""
"html-keyboard-response","29","108545","0.0-4.0-1.0-2.2","2","1","f49wasxk84wrtha","","null","","<p style=""color:green;""><b>Correct!</b></p>","","null","","","","","","","","","","","","","","","","","","","","","","","","","","","","","","","","","","","","","","","","","",""
"audio-keyboard-response","30","109349","0.0-4.0-1.0-0.3","2","1","f49wasxk84wrtha","","null","","sounds/induction/left/ru_SWS.wav","","null","","","","","","","","","","","","","","","","","","","","","","","","","","","","","","","","","","","","","","","","","",""
"html-button-response","31","110471","0.0-4.0-1.0-1.3","2","1","f49wasxk84wrtha","","1119.300000000745","","What sound did you hear?","0","","","1","INDUCTION-JUDGMENT","left","0","","","","","","","","","","","","","","","","","","","","","","","","","","","","","","","","","","","","",""
"html-keyboard-response","32","111475","0.0-4.0-1.0-2.3","2","1","f49wasxk84wrtha","","null","","<p style=""color:green;""><b>Correct!</b></p>","","null","","","","","","","","","","","","","","","","","","","","","","","","","","","","","","","","","","","","","","","","","",""
"audio-keyboard-response","33","112285","0.0-4.0-1.0-0.4","2","1","f49wasxk84wrtha","","null","","sounds/induction/right/ge_SWS.wav","","null","","","","","","","","","","","","","","","","","","","","","","","","","","","","","","","","","","","","","","","","","",""
"html-button-response","34","114104","0.0-4.0-1.0-1.4","2","1","f49wasxk84wrtha","","1816.5","","What sound did you hear?","0","","","1","INDUCTION-JUDGMENT","right","0","","","","","","","","","","","","","","","","","","","","","","","","","","","","","","","","","","","","",""
"html-keyboard-response","35","115106","0.0-4.0-1.0-2.4","2","1","f49wasxk84wrtha","","null","","<p style=""color:green;""><b>Correct!</b></p>","","null","","","","","","","","","","","","","","","","","","","","","","","","","","","","","","","","","","","","","","","","","",""
"audio-keyboard-response","36","115905","0.0-4.0-1.0-0.5","2","1","f49wasxk84wrtha","","null","","sounds/induction/right/fu_SWS.wav","","null","","","","","","","","","","","","","","","","","","","","","","","","","","","","","","","","","","","","","","","","","",""
"html-button-response","37","117030","0.0-4.0-1.0-1.5","2","1","f49wasxk84wrtha","","1123.9000000003725","","What sound did you hear?","0","","","1","INDUCTION-JUDGMENT","right","0","","","","","","","","","","","","","","","","","","","","","","","","","","","","","","","","","","","","",""
"html-keyboard-response","38","118035","0.0-4.0-1.0-2.5","2","1","f49wasxk84wrtha","","null","","<p style=""color:green;""><b>Correct!</b></p>","","null","","","","","","","","","","","","","","","","","","","","","","","","","","","","","","","","","","","","","","","","","",""
"audio-keyboard-response","39","118841","0.0-4.0-1.0-0.6","2","1","f49wasxk84wrtha","","null","","sounds/induction/left/ti_SWS.wav","","null","","","","","","","","","","","","","","","","","","","","","","","","","","","","","","","","","","","","","","","","","",""
"html-button-response","40","120068","0.0-4.0-1.0-1.6","2","1","f49wasxk84wrtha","","1225","","What sound did you hear?","0","","","1","INDUCTION-JUDGMENT","left","0","","","","","","","","","","","","","","","","","","","","","","","","","","","","","","","","","","","","",""
"html-keyboard-response","41","121073","0.0-4.0-1.0-2.6","2","1","f49wasxk84wrtha","","null","","<p style=""color:green;""><b>Correct!</b></p>","","null","","","","","","","","","","","","","","","","","","","","","","","","","","","","","","","","","","","","","","","","","",""
"audio-keyboard-response","42","121876","0.0-4.0-1.0-0.7","2","1","f49wasxk84wrtha","","null","","sounds/induction/left/fe_SWS.wav","","null","","","","","","","","","","","","","","","","","","","","","","","","","","","","","","","","","","","","","","","","","",""
"html-button-response","43","122962","0.0-4.0-1.0-1.7","2","1","f49wasxk84wrtha","","1084.5","","What sound did you hear?","1","","","1","INDUCTION-JUDGMENT","left","1","","","","","","","","","","","","","","","","","","","","","","","","","","","","","","","","","","","","",""
"html-keyboard-response","44","123966","0.0-4.0-1.0-2.7","2","1","f49wasxk84wrtha","","null","","<p style=""color:green;""><b>Correct!</b></p>","","null","","","","","","","","","","","","","","","","","","","","","","","","","","","","","","","","","","","","","","","","","",""
"audio-keyboard-response","45","124777","0.0-4.0-1.0-0.8","2","1","f49wasxk84wrtha","","null","","sounds/induction/left/su_SWS.wav","","null","","","","","","","","","","","","","","","","","","","","","","","","","","","","","","","","","","","","","","","","","",""
"html-button-response","46","126231","0.0-4.0-1.0-1.8","2","1","f49wasxk84wrtha","","1452.9000000003725","","What sound did you hear?","0","","","1","INDUCTION-JUDGMENT","left","0","","","","","","","","","","","","","","","","","","","","","","","","","","","","","","","","","","","","",""
"html-keyboard-response","47","127233","0.0-4.0-1.0-2.8","2","1","f49wasxk84wrtha","","null","","<p style=""color:green;""><b>Correct!</b></p>","","null","","","","","","","","","","","","","","","","","","","","","","","","","","","","","","","","","","","","","","","","","",""
"audio-keyboard-response","48","128038","0.0-4.0-1.0-0.9","2","1","f49wasxk84wrtha","","null","","sounds/induction/right/ta_SWS.wav","","null","","","","","","","","","","","","","","","","","","","","","","","","","","","","","","","","","","","","","","","","","",""
"html-button-response","49","130010","0.0-4.0-1.0-1.9","2","1","f49wasxk84wrtha","","1971","","What sound did you hear?","1","","","1","INDUCTION-JUDGMENT","right","1","","","","","","","","","","","","","","","","","","","","","","","","","","","","","","","","","","","","",""
"html-keyboard-response","50","131015","0.0-4.0-1.0-2.9","2","1","f49wasxk84wrtha","","null","","<p style=""color:green;""><b>Correct!</b></p>","","null","","","","","","","","","","","","","","","","","","","","","","","","","","","","","","","","","","","","","","","","","",""
"audio-keyboard-response","51","131820","0.0-4.0-1.0-0.10","2","1","f49wasxk84wrtha","","null","","sounds/induction/left/re_SWS.wav","","null","","","","","","","","","","","","","","","","","","","","","","","","","","","","","","","","","","","","","","","","","",""
"html-button-response","52","132966","0.0-4.0-1.0-1.10","2","1","f49wasxk84wrtha","","1144.4000000003725","","What sound did you hear?","0","","","1","INDUCTION-JUDGMENT","left","0","","","","","","","","","","","","","","","","","","","","","","","","","","","","","","","","","","","","",""
"html-keyboard-response","53","133971","0.0-4.0-1.0-2.10","2","1","f49wasxk84wrtha","","null","","<p style=""color:green;""><b>Correct!</b></p>","","null","","","","","","","","","","","","","","","","","","","","","","","","","","","","","","","","","","","","","","","","","",""
"audio-keyboard-response","54","134780","0.0-4.0-1.0-0.11","2","1","f49wasxk84wrtha","","null","","sounds/induction/right/ti_SWS.wav","","null","","","","","","","","","","","","","","","","","","","","","","","","","","","","","","","","","","","","","","","","","",""
"html-button-response","55","135856","0.0-4.0-1.0-1.11","2","1","f49wasxk84wrtha","","1075.7000000011176","","What sound did you hear?","0","","","0","INDUCTION-JUDGMENT","right","1","","","","","","","","","","","","","","","","","","","","","","","","","","","","","","","","","","","","",""
"html-keyboard-response","56","136859","0.0-4.0-1.0-2.11","2","1","f49wasxk84wrtha","","null","","<p style=""color:red;""><b>Incorrect!</b></p>","","null","","","","","","","","","","","","","","","","","","","","","","","","","","","","","","","","","","","","","","","","","",""
"audio-keyboard-response","57","137664","0.0-4.0-1.0-0.12","2","1","f49wasxk84wrtha","","null","","sounds/induction/left/ko_SWS.wav","","null","","","","","","","","","","","","","","","","","","","","","","","","","","","","","","","","","","","","","","","","","",""
"html-button-response","58","139012","0.0-4.0-1.0-1.12","2","1","f49wasxk84wrtha","","1347","","What sound did you hear?","0","","","0","INDUCTION-JUDGMENT","left","1","","","","","","","","","","","","","","","","","","","","","","","","","","","","","","","","","","","","",""
"html-keyboard-response","59","140015","0.0-4.0-1.0-2.12","2","1","f49wasxk84wrtha","","null","","<p style=""color:red;""><b>Incorrect!</b></p>","","null","","","","","","","","","","","","","","","","","","","","","","","","","","","","","","","","","","","","","","","","","",""
"audio-keyboard-response","60","140815","0.0-4.0-1.0-0.13","2","1","f49wasxk84wrtha","","null","","sounds/induction/right/fe_SWS.wav","","null","","","","","","","","","","","","","","","","","","","","","","","","","","","","","","","","","","","","","","","","","",""
"html-button-response","61","141690","0.0-4.0-1.0-1.13","2","1","f49wasxk84wrtha","","875","","What sound did you hear?","0","","","1","INDUCTION-JUDGMENT","right","0","","","","","","","","","","","","","","","","","","","","","","","","","","","","","","","","","","","","",""
"html-keyboard-response","62","142697","0.0-4.0-1.0-2.13","2","1","f49wasxk84wrtha","","null","","<p style=""color:green;""><b>Correct!</b></p>","","null","","","","","","","","","","","","","","","","","","","","","","","","","","","","","","","","","","","","","","","","","",""
"audio-keyboard-response","63","143502","0.0-4.0-1.0-0.14","2","1","f49wasxk84wrtha","","null","","sounds/induction/right/re_SWS.wav","","null","","","","","","","","","","","","","","","","","","","","","","","","","","","","","","","","","","","","","","","","","",""
"html-button-response","64","145160","0.0-4.0-1.0-1.14","2","1","f49wasxk84wrtha","","1657.199999999255","","What sound did you hear?","1","","","1","INDUCTION-JUDGMENT","right","1","","","","","","","","","","","","","","","","","","","","","","","","","","","","","","","","","","","","",""
"html-keyboard-response","65","146166","0.0-4.0-1.0-2.14","2","1","f49wasxk84wrtha","","null","","<p style=""color:green;""><b>Correct!</b></p>","","null","","","","","","","","","","","","","","","","","","","","","","","","","","","","","","","","","","","","","","","","","",""
"audio-keyboard-response","66","146971","0.0-4.0-1.0-0.15","2","1","f49wasxk84wrtha","","null","","sounds/induction/left/ge_SWS.wav","","null","","","","","","","","","","","","","","","","","","","","","","","","","","","","","","","","","","","","","","","","","",""
"html-button-response","67","148740","0.0-4.0-1.0-1.15","2","1","f49wasxk84wrtha","","1767.5999999996275","","What sound did you hear?","0","","","0","INDUCTION-JUDGMENT","left","1","","","","","","","","","","","","","","","","","","","","","","","","","","","","","","","","","","","","",""
"html-keyboard-response","68","149745","0.0-4.0-1.0-2.15","2","1","f49wasxk84wrtha","","null","","<p style=""color:red;""><b>Incorrect!</b></p>","","null","","","","","","","","","","","","","","","","","","","","","","","","","","","","","","","","","","","","","","","","","",""
"audio-keyboard-response","69","150550","0.0-4.0-1.0-0.16","2","1","f49wasxk84wrtha","","null","","sounds/induction/left/fu_SWS.wav","","null","","","","","","","","","","","","","","","","","","","","","","","","","","","","","","","","","","","","","","","","","",""
"html-button-response","70","151608","0.0-4.0-1.0-1.16","2","1","f49wasxk84wrtha","","1057.199999999255","","What sound did you hear?","0","","","0","INDUCTION-JUDGMENT","left","1","","","","","","","","","","","","","","","","","","","","","","","","","","","","","","","","","","","","",""
"html-keyboard-response","71","152614","0.0-4.0-1.0-2.16","2","1","f49wasxk84wrtha","","null","","<p style=""color:red;""><b>Incorrect!</b></p>","","null","","","","","","","","","","","","","","","","","","","","","","","","","","","","","","","","","","","","","","","","","",""
"audio-keyboard-response","72","153417","0.0-4.0-1.0-0.17","2","1","f49wasxk84wrtha","","null","","sounds/induction/left/ta_SWS.wav","","null","","","","","","","","","","","","","","","","","","","","","","","","","","","","","","","","","","","","","","","","","",""
"html-button-response","73","154640","0.0-4.0-1.0-1.17","2","1","f49wasxk84wrtha","","1222.0999999996275","","What sound did you hear?","0","","","1","INDUCTION-JUDGMENT","left","0","","","","","","","","","","","","","","","","","","","","","","","","","","","","","","","","","","","","",""
"html-keyboard-response","74","155646","0.0-4.0-1.0-2.17","2","1","f49wasxk84wrtha","","null","","<p style=""color:green;""><b>Correct!</b></p>","","null","","","","","","","","","","","","","","","","","","","","","","","","","","","","","","","","","","","","","","","","","",""
"audio-keyboard-response","75","156446","0.0-4.0-1.0-0.18","2","1","f49wasxk84wrtha","","null","","sounds/induction/right/ge_SWS.wav","","null","","","","","","","","","","","","","","","","","","","","","","","","","","","","","","","","","","","","","","","","","",""
"html-button-response","76","158620","0.0-4.0-1.0-1.18","2","1","f49wasxk84wrtha","","2172.2999999988824","","What sound did you hear?","1","","","0","INDUCTION-JUDGMENT","right","0","","","","","","","","","","","","","","","","","","","","","","","","","","","","","","","","","","","","",""
"html-keyboard-response","77","159621","0.0-4.0-1.0-2.18","2","1","f49wasxk84wrtha","","null","","<p style=""color:red;""><b>Incorrect!</b></p>","","null","","","","","","","","","","","","","","","","","","","","","","","","","","","","","","","","","","","","","","","","","",""
"audio-keyboard-response","78","160425","0.0-4.0-1.0-0.19","2","1","f49wasxk84wrtha","","null","","sounds/induction/right/me_SWS.wav","","null","","","","","","","","","","","","","","","","","","","","","","","","","","","","","","","","","","","","","","","","","",""
"html-button-response","79","161824","0.0-4.0-1.0-1.19","2","1","f49wasxk84wrtha","","1397.5","","What sound did you hear?","0","","","1","INDUCTION-JUDGMENT","right","0","","","","","","","","","","","","","","","","","","","","","","","","","","","","","","","","","","","","",""
"html-keyboard-response","80","162825","0.0-4.0-1.0-2.19","2","1","f49wasxk84wrtha","","null","","<p style=""color:green;""><b>Correct!</b></p>","","null","","","","","","","","","","","","","","","","","","","","","","","","","","","","","","","","","","","","","","","","","",""
"audio-keyboard-response","81","163633","0.0-4.0-1.0-0.20","2","1","f49wasxk84wrtha","","null","","sounds/induction/left/fe_SWS.wav","","null","","","","","","","","","","","","","","","","","","","","","","","","","","","","","","","","","","","","","","","","","",""
"html-button-response","82","164741","0.0-4.0-1.0-1.20","2","1","f49wasxk84wrtha","","1106","","What sound did you hear?","1","","","1","INDUCTION-JUDGMENT","left","1","","","","","","","","","","","","","","","","","","","","","","","","","","","","","","","","","","","","",""
"html-keyboard-response","83","165742","0.0-4.0-1.0-2.20","2","1","f49wasxk84wrtha","","null","","<p style=""color:green;""><b>Correct!</b></p>","","null","","","","","","","","","","","","","","","","","","","","","","","","","","","","","","","","","","","","","","","","","",""
"audio-keyboard-response","84","166547","0.0-4.0-1.0-0.21","2","1","f49wasxk84wrtha","","null","","sounds/induction/right/me_SWS.wav","","null","","","","","","","","","","","","","","","","","","","","","","","","","","","","","","","","","","","","","","","","","",""
"html-button-response","85","167725","0.0-4.0-1.0-1.21","2","1","f49wasxk84wrtha","","1176.300000000745","","What sound did you hear?","0","","","1","INDUCTION-JUDGMENT","right","0","","","","","","","","","","","","","","","","","","","","","","","","","","","","","","","","","","","","",""
"html-keyboard-response","86","168730","0.0-4.0-1.0-2.21","2","1","f49wasxk84wrtha","","null","","<p style=""color:green;""><b>Correct!</b></p>","","null","","","","","","","","","","","","","","","","","","","","","","","","","","","","","","","","","","","","","","","","","",""
"audio-keyboard-response","87","169535","0.0-4.0-1.0-0.22","2","1","f49wasxk84wrtha","","null","","sounds/induction/left/ta_SWS.wav","","null","","","","","","","","","","","","","","","","","","","","","","","","","","","","","","","","","","","","","","","","","",""
"html-button-response","88","170790","0.0-4.0-1.0-1.22","2","1","f49wasxk84wrtha","","1254.0999999996275","","What sound did you hear?","0","","","1","INDUCTION-JUDGMENT","left","0","","","","","","","","","","","","","","","","","","","","","","","","","","","","","","","","","","","","",""
"html-keyboard-response","89","171793","0.0-4.0-1.0-2.22","2","1","f49wasxk84wrtha","","null","","<p style=""color:green;""><b>Correct!</b></p>","","null","","","","","","","","","","","","","","","","","","","","","","","","","","","","","","","","","","","","","","","","","",""
"audio-keyboard-response","90","172605","0.0-4.0-1.0-0.23","2","1","f49wasxk84wrtha","","null","","sounds/induction/left/pu_SWS.wav","","null","","","","","","","","","","","","","","","","","","","","","","","","","","","","","","","","","","","","","","","","","",""
"html-button-response","91","173702","0.0-4.0-1.0-1.23","2","1","f49wasxk84wrtha","","1095.7000000011176","","What sound did you hear?","0","","","1","INDUCTION-JUDGMENT","left","0","","","","","","","","","","","","","","","","","","","","","","","","","","","","","","","","","","","","",""
"html-keyboard-response","92","174708","0.0-4.0-1.0-2.23","2","1","f49wasxk84wrtha","","null","","<p style=""color:green;""><b>Correct!</b></p>","","null","","","","","","","","","","","","","","","","","","","","","","","","","","","","","","","","","","","","","","","","","",""
"audio-keyboard-response","93","175512","0.0-4.0-1.0-0.24","2","1","f49wasxk84wrtha","","null","","sounds/induction/left/ti_SWS.wav","","null","","","","","","","","","","","","","","","","","","","","","","","","","","","","","","","","","","","","","","","","","",""
"html-button-response","94","176474","0.0-4.0-1.0-1.24","2","1","f49wasxk84wrtha","","960","","What sound did you hear?","1","","","0","INDUCTION-JUDGMENT","left","0","","","","","","","","","","","","","","","","","","","","","","","","","","","","","","","","","","","","",""
"html-keyboard-response","95","177476","0.0-4.0-1.0-2.24","2","1","f49wasxk84wrtha","","null","","<p style=""color:red;""><b>Incorrect!</b></p>","","null","","","","","","","","","","","","","","","","","","","","","","","","","","","","","","","","","","","","","","","","","",""
"audio-keyboard-response","96","178281","0.0-4.0-1.0-0.25","2","1","f49wasxk84wrtha","","null","","sounds/induction/left/me_SWS.wav","","null","","","","","","","","","","","","","","","","","","","","","","","","","","","","","","","","","","","","","","","","","",""
"html-button-response","97","180269","0.0-4.0-1.0-1.25","2","1","f49wasxk84wrtha","","1986.8999999985099","","What sound did you hear?","0","","","0","INDUCTION-JUDGMENT","left","1","","","","","","","","","","","","","","","","","","","","","","","","","","","","","","","","","","","","",""
"html-keyboard-response","98","181275","0.0-4.0-1.0-2.25","2","1","f49wasxk84wrtha","","null","","<p style=""color:red;""><b>Incorrect!</b></p>","","null","","","","","","","","","","","","","","","","","","","","","","","","","","","","","","","","","","","","","","","","","",""
"audio-keyboard-response","99","182080","0.0-4.0-1.0-0.26","2","1","f49wasxk84wrtha","","null","","sounds/induction/left/pu_SWS.wav","","null","","","","","","","","","","","","","","","","","","","","","","","","","","","","","","","","","","","","","","","","","",""
"html-button-response","100","183246","0.0-4.0-1.0-1.26","2","1","f49wasxk84wrtha","","1164.199999999255","","What sound did you hear?","0","","","1","INDUCTION-JUDGMENT","left","0","","","","","","","","","","","","","","","","","","","","","","","","","","","","","","","","","","","","",""
"html-keyboard-response","101","184252","0.0-4.0-1.0-2.26","2","1","f49wasxk84wrtha","","null","","<p style=""color:green;""><b>Correct!</b></p>","","null","","","","","","","","","","","","","","","","","","","","","","","","","","","","","","","","","","","","","","","","","",""
"audio-keyboard-response","102","185057","0.0-4.0-1.0-0.27","2","1","f49wasxk84wrtha","","null","","sounds/induction/left/fu_SWS.wav","","null","","","","","","","","","","","","","","","","","","","","","","","","","","","","","","","","","","","","","","","","","",""
"html-button-response","103","186733","0.0-4.0-1.0-1.27","2","1","f49wasxk84wrtha","","1674.6000000014901","","What sound did you hear?","1","","","1","INDUCTION-JUDGMENT","left","1","","","","","","","","","","","","","","","","","","","","","","","","","","","","","","","","","","","","",""
"html-keyboard-response","104","187737","0.0-4.0-1.0-2.27","2","1","f49wasxk84wrtha","","null","","<p style=""color:green;""><b>Correct!</b></p>","","null","","","","","","","","","","","","","","","","","","","","","","","","","","","","","","","","","","","","","","","","","",""
"audio-keyboard-response","105","188544","0.0-4.0-1.0-0.28","2","1","f49wasxk84wrtha","","null","","sounds/induction/right/fe_SWS.wav","","null","","","","","","","","","","","","","","","","","","","","","","","","","","","","","","","","","","","","","","","","","",""
"html-button-response","106","189619","0.0-4.0-1.0-1.28","2","1","f49wasxk84wrtha","","1074","","What sound did you hear?","0","","","1","INDUCTION-JUDGMENT","right","0","","","","","","","","","","","","","","","","","","","","","","","","","","","","","","","","","","","","",""
"html-keyboard-response","107","190623","0.0-4.0-1.0-2.28","2","1","f49wasxk84wrtha","","null","","<p style=""color:green;""><b>Correct!</b></p>","","null","","","","","","","","","","","","","","","","","","","","","","","","","","","","","","","","","","","","","","","","","",""
"audio-keyboard-response","108","191428","0.0-4.0-1.0-0.29","2","1","f49wasxk84wrtha","","null","","sounds/induction/right/ta_SWS.wav","","null","","","","","","","","","","","","","","","","","","","","","","","","","","","","","","","","","","","","","","","","","",""
"html-button-response","109","192855","0.0-4.0-1.0-1.29","2","1","f49wasxk84wrtha","","1425.5","","What sound did you hear?","1","","","1","INDUCTION-JUDGMENT","right","1","","","","","","","","","","","","","","","","","","","","","","","","","","","","","","","","","","","","",""
"html-keyboard-response","110","193856","0.0-4.0-1.0-2.29","2","1","f49wasxk84wrtha","","null","","<p style=""color:green;""><b>Correct!</b></p>","","null","","","","","","","","","","","","","","","","","","","","","","","","","","","","","","","","","","","","","","","","","",""
"audio-keyboard-response","111","194660","0.0-4.0-1.0-0.30","2","1","f49wasxk84wrtha","","null","","sounds/induction/right/ru_SWS.wav","","null","","","","","","","","","","","","","","","","","","","","","","","","","","","","","","","","","","","","","","","","","",""
"html-button-response","112","196907","0.0-4.0-1.0-1.30","2","1","f49wasxk84wrtha","","2245.699999999255","","What sound did you hear?","1","","","1","INDUCTION-JUDGMENT","right","1","","","","","","","","","","","","","","","","","","","","","","","","","","","","","","","","","","","","",""
"html-keyboard-response","113","197911","0.0-4.0-1.0-2.30","2","1","f49wasxk84wrtha","","null","","<p style=""color:green;""><b>Correct!</b></p>","","null","","","","","","","","","","","","","","","","","","","","","","","","","","","","","","","","","","","","","","","","","",""
"audio-keyboard-response","114","198714","0.0-4.0-1.0-0.31","2","1","f49wasxk84wrtha","","null","","sounds/induction/left/ni_SWS.wav","","null","","","","","","","","","","","","","","","","","","","","","","","","","","","","","","","","","","","","","","","","","",""
"html-button-response","115","201236","0.0-4.0-1.0-1.31","2","1","f49wasxk84wrtha","","2520.89999999851","","What sound did you hear?","1","","","1","INDUCTION-JUDGMENT","left","1","","","","","","","","","","","","","","","","","","","","","","","","","","","","","","","","","","","","",""
"html-keyboard-response","116","202238","0.0-4.0-1.0-2.31","2","1","f49wasxk84wrtha","","null","","<p style=""color:green;""><b>Correct!</b></p>","","null","","","","","","","","","","","","","","","","","","","","","","","","","","","","","","","","","","","","","","","","","",""
"audio-keyboard-response","117","203046","0.0-4.0-1.0-0.32","2","1","f49wasxk84wrtha","","null","","sounds/induction/right/fu_SWS.wav","","null","","","","","","","","","","","","","","","","","","","","","","","","","","","","","","","","","","","","","","","","","",""
"html-button-response","118","204596","0.0-4.0-1.0-1.32","2","1","f49wasxk84wrtha","","1550","","What sound did you hear?","0","","","1","INDUCTION-JUDGMENT","right","0","","","","","","","","","","","","","","","","","","","","","","","","","","","","","","","","","","","","",""
"html-keyboard-response","119","205601","0.0-4.0-1.0-2.32","2","1","f49wasxk84wrtha","","null","","<p style=""color:green;""><b>Correct!</b></p>","","null","","","","","","","","","","","","","","","","","","","","","","","","","","","","","","","","","","","","","","","","","",""
"audio-keyboard-response","120","206405","0.0-4.0-1.0-0.33","2","1","f49wasxk84wrtha","","null","","sounds/induction/right/ko_SWS.wav","","null","","","","","","","","","","","","","","","","","","","","","","","","","","","","","","","","","","","","","","","","","",""
"html-button-response","121","209001","0.0-4.0-1.0-1.33","2","1","f49wasxk84wrtha","","2594.800000000745","","What sound did you hear?","1","","","0","INDUCTION-JUDGMENT","right","0","","","","","","","","","","","","","","","","","","","","","","","","","","","","","","","","","","","","",""
"html-keyboard-response","122","210008","0.0-4.0-1.0-2.33","2","1","f49wasxk84wrtha","","null","","<p style=""color:red;""><b>Incorrect!</b></p>","","null","","","","","","","","","","","","","","","","","","","","","","","","","","","","","","","","","","","","","","","","","",""
"audio-keyboard-response","123","210807","0.0-4.0-1.0-0.34","2","1","f49wasxk84wrtha","","null","","sounds/induction/left/su_SWS.wav","","null","","","","","","","","","","","","","","","","","","","","","","","","","","","","","","","","","","","","","","","","","",""
"html-button-response","124","212270","0.0-4.0-1.0-1.34","2","1","f49wasxk84wrtha","","1461.9000000003725","","What sound did you hear?","0","","","1","INDUCTION-JUDGMENT","left","0","","","","","","","","","","","","","","","","","","","","","","","","","","","","","","","","","","","","",""
"html-keyboard-response","125","213271","0.0-4.0-1.0-2.34","2","1","f49wasxk84wrtha","","null","","<p style=""color:green;""><b>Correct!</b></p>","","null","","","","","","","","","","","","","","","","","","","","","","","","","","","","","","","","","","","","","","","","","",""
"audio-keyboard-response","126","214073","0.0-4.0-1.0-0.35","2","1","f49wasxk84wrtha","","null","","sounds/induction/left/ko_SWS.wav","","null","","","","","","","","","","","","","","","","","","","","","","","","","","","","","","","","","","","","","","","","","",""
"html-button-response","127","215183","0.0-4.0-1.0-1.35","2","1","f49wasxk84wrtha","","1109.4000000003725","","What sound did you hear?","0","","","0","INDUCTION-JUDGMENT","left","1","","","","","","","","","","","","","","","","","","","","","","","","","","","","","","","","","","","","",""
"html-keyboard-response","128","216184","0.0-4.0-1.0-2.35","2","1","f49wasxk84wrtha","","null","","<p style=""color:red;""><b>Incorrect!</b></p>","","null","","","","","","","","","","","","","","","","","","","","","","","","","","","","","","","","","","","","","","","","","",""
"audio-keyboard-response","129","216986","0.0-4.0-1.0-0.36","2","1","f49wasxk84wrtha","","null","","sounds/induction/left/ni_SWS.wav","","null","","","","","","","","","","","","","","","","","","","","","","","","","","","","","","","","","","","","","","","","","",""
"html-button-response","130","218357","0.0-4.0-1.0-1.36","2","1","f49wasxk84wrtha","","1369.4000000003725","","What sound did you hear?","0","","","0","INDUCTION-JUDGMENT","left","1","","","","","","","","","","","","","","","","","","","","","","","","","","","","","","","","","","","","",""
"html-keyboard-response","131","219361","0.0-4.0-1.0-2.36","2","1","f49wasxk84wrtha","","null","","<p style=""color:red;""><b>Incorrect!</b></p>","","null","","","","","","","","","","","","","","","","","","","","","","","","","","","","","","","","","","","","","","","","","",""
"audio-keyboard-response","132","220160","0.0-4.0-1.0-0.37","2","1","f49wasxk84wrtha","","null","","sounds/induction/left/re_SWS.wav","","null","","","","","","","","","","","","","","","","","","","","","","","","","","","","","","","","","","","","","","","","","",""
"html-button-response","133","221105","0.0-4.0-1.0-1.37","2","1","f49wasxk84wrtha","","943","","What sound did you hear?","1","","","0","INDUCTION-JUDGMENT","left","0","","","","","","","","","","","","","","","","","","","","","","","","","","","","","","","","","","","","",""
"html-keyboard-response","134","222110","0.0-4.0-1.0-2.37","2","1","f49wasxk84wrtha","","null","","<p style=""color:red;""><b>Incorrect!</b></p>","","null","","","","","","","","","","","","","","","","","","","","","","","","","","","","","","","","","","","","","","","","","",""
"audio-keyboard-response","135","222912","0.0-4.0-1.0-0.38","2","1","f49wasxk84wrtha","","null","","sounds/induction/right/su_SWS.wav","","null","","","","","","","","","","","","","","","","","","","","","","","","","","","","","","","","","","","","","","","","","",""
"html-button-response","136","224610","0.0-4.0-1.0-1.38","2","1","f49wasxk84wrtha","","1695.7000000011176","","What sound did you hear?","1","","","1","INDUCTION-JUDGMENT","right","1","","","","","","","","","","","","","","","","","","","","","","","","","","","","","","","","","","","","",""
"html-keyboard-response","137","225614","0.0-4.0-1.0-2.38","2","1","f49wasxk84wrtha","","null","","<p style=""color:green;""><b>Correct!</b></p>","","null","","","","","","","","","","","","","","","","","","","","","","","","","","","","","","","","","","","","","","","","","",""
"audio-keyboard-response","138","226415","0.0-4.0-1.0-0.39","2","1","f49wasxk84wrtha","","null","","sounds/induction/right/ni_SWS.wav","","null","","","","","","","","","","","","","","","","","","","","","","","","","","","","","","","","","","","","","","","","","",""
"html-button-response","139","229129","0.0-4.0-1.0-1.39","2","1","f49wasxk84wrtha","","2712.2999999988824","","What sound did you hear?","0","","","1","INDUCTION-JUDGMENT","right","0","","","","","","","","","","","","","","","","","","","","","","","","","","","","","","","","","","","","",""
"html-keyboard-response","140","230133","0.0-4.0-1.0-2.39","2","1","f49wasxk84wrtha","","null","","<p style=""color:green;""><b>Correct!</b></p>","","null","","","","","","","","","","","","","","","","","","","","","","","","","","","","","","","","","","","","","","","","","",""
"audio-keyboard-response","141","230933","0.0-4.0-1.0-0.40","2","1","f49wasxk84wrtha","","null","","sounds/induction/left/me_SWS.wav","","null","","","","","","","","","","","","","","","","","","","","","","","","","","","","","","","","","","","","","","","","","",""
"html-button-response","142","232696","0.0-4.0-1.0-1.40","2","1","f49wasxk84wrtha","","1761.699999999255","","What sound did you hear?","0","","","0","INDUCTION-JUDGMENT","left","1","","","","","","","","","","","","","","","","","","","","","","","","","","","","","","","","","","","","",""
"html-keyboard-response","143","233701","0.0-4.0-1.0-2.40","2","1","f49wasxk84wrtha","","null","","<p style=""color:red;""><b>Incorrect!</b></p>","","null","","","","","","","","","","","","","","","","","","","","","","","","","","","","","","","","","","","","","","","","","",""
"audio-keyboard-response","144","234506","0.0-4.0-1.0-0.41","2","1","f49wasxk84wrtha","","null","","sounds/induction/right/ru_SWS.wav","","null","","","","","","","","","","","","","","","","","","","","","","","","","","","","","","","","","","","","","","","","","",""
"html-button-response","145","235391","0.0-4.0-1.0-1.41","2","1","f49wasxk84wrtha","","883.5","","What sound did you hear?","1","","","1","INDUCTION-JUDGMENT","right","1","","","","","","","","","","","","","","","","","","","","","","","","","","","","","","","","","","","","",""
"html-keyboard-response","146","236398","0.0-4.0-1.0-2.41","2","1","f49wasxk84wrtha","","null","","<p style=""color:green;""><b>Correct!</b></p>","","null","","","","","","","","","","","","","","","","","","","","","","","","","","","","","","","","","","","","","","","","","",""
"audio-keyboard-response","147","237199","0.0-4.0-1.0-0.42","2","1","f49wasxk84wrtha","","null","","sounds/induction/left/ru_SWS.wav","","null","","","","","","","","","","","","","","","","","","","","","","","","","","","","","","","","","","","","","","","","","",""
"html-button-response","148","238383","0.0-4.0-1.0-1.42","2","1","f49wasxk84wrtha","","1182.3999999985099","","What sound did you hear?","0","","","1","INDUCTION-JUDGMENT","left","0","","","","","","","","","","","","","","","","","","","","","","","","","","","","","","","","","","","","",""
"html-keyboard-response","149","239385","0.0-4.0-1.0-2.42","2","1","f49wasxk84wrtha","","null","","<p style=""color:green;""><b>Correct!</b></p>","","null","","","","","","","","","","","","","","","","","","","","","","","","","","","","","","","","","","","","","","","","","",""
"audio-keyboard-response","150","240188","0.0-4.0-1.0-0.43","2","1","f49wasxk84wrtha","","null","","sounds/induction/right/ti_SWS.wav","","null","","","","","","","","","","","","","","","","","","","","","","","","","","","","","","","","","","","","","","","","","",""
"html-button-response","151","241846","0.0-4.0-1.0-1.43","2","1","f49wasxk84wrtha","","1655.6000000014901","","What sound did you hear?","1","","","1","INDUCTION-JUDGMENT","right","1","","","","","","","","","","","","","","","","","","","","","","","","","","","","","","","","","","","","",""
"html-keyboard-response","152","242852","0.0-4.0-1.0-2.43","2","1","f49wasxk84wrtha","","null","","<p style=""color:green;""><b>Correct!</b></p>","","null","","","","","","","","","","","","","","","","","","","","","","","","","","","","","","","","","","","","","","","","","",""
"audio-keyboard-response","153","243657","0.0-4.0-1.0-0.44","2","1","f49wasxk84wrtha","","null","","sounds/induction/right/su_SWS.wav","","null","","","","","","","","","","","","","","","","","","","","","","","","","","","","","","","","","","","","","","","","","",""
"html-button-response","154","248702","0.0-4.0-1.0-1.44","2","1","f49wasxk84wrtha","","5042.9000000003725","","What sound did you hear?","0","","","0","INDUCTION-JUDGMENT","right","1","","","","","","","","","","","","","","","","","","","","","","","","","","","","","","","","","","","","",""
"html-keyboard-response","155","249704","0.0-4.0-1.0-2.44","2","1","f49wasxk84wrtha","","null","","<p style=""color:red;""><b>Incorrect!</b></p>","","null","","","","","","","","","","","","","","","","","","","","","","","","","","","","","","","","","","","","","","","","","",""
"audio-keyboard-response","156","250509","0.0-4.0-1.0-0.45","2","1","f49wasxk84wrtha","","null","","sounds/induction/right/pu_SWS.wav","","null","","","","","","","","","","","","","","","","","","","","","","","","","","","","","","","","","","","","","","","","","",""
"html-button-response","157","251865","0.0-4.0-1.0-1.45","2","1","f49wasxk84wrtha","","1355.9000000003725","","What sound did you hear?","1","","","1","INDUCTION-JUDGMENT","right","1","","","","","","","","","","","","","","","","","","","","","","","","","","","","","","","","","","","","",""
"html-keyboard-response","158","252867","0.0-4.0-1.0-2.45","2","1","f49wasxk84wrtha","","null","","<p style=""color:green;""><b>Correct!</b></p>","","null","","","","","","","","","","","","","","","","","","","","","","","","","","","","","","","","","","","","","","","","","",""
"audio-keyboard-response","159","253671","0.0-4.0-1.0-0.46","2","1","f49wasxk84wrtha","","null","","sounds/induction/left/ge_SWS.wav","","null","","","","","","","","","","","","","","","","","","","","","","","","","","","","","","","","","","","","","","","","","",""
"html-button-response","160","254625","0.0-4.0-1.0-1.46","2","1","f49wasxk84wrtha","","953.1999999992549","","What sound did you hear?","0","","","0","INDUCTION-JUDGMENT","left","1","","","","","","","","","","","","","","","","","","","","","","","","","","","","","","","","","","","","",""
"html-keyboard-response","161","255627","0.0-4.0-1.0-2.46","2","1","f49wasxk84wrtha","","null","","<p style=""color:red;""><b>Incorrect!</b></p>","","null","","","","","","","","","","","","","","","","","","","","","","","","","","","","","","","","","","","","","","","","","",""
"audio-keyboard-response","162","256427","0.0-4.0-1.0-0.47","2","1","f49wasxk84wrtha","","null","","sounds/induction/right/re_SWS.wav","","null","","","","","","","","","","","","","","","","","","","","","","","","","","","","","","","","","","","","","","","","","",""
"html-button-response","163","257622","0.0-4.0-1.0-1.47","2","1","f49wasxk84wrtha","","1193.3999999985099","","What sound did you hear?","1","","","1","INDUCTION-JUDGMENT","right","1","","","","","","","","","","","","","","","","","","","","","","","","","","","","","","","","","","","","",""
"html-keyboard-response","164","258625","0.0-4.0-1.0-2.47","2","1","f49wasxk84wrtha","","null","","<p style=""color:green;""><b>Correct!</b></p>","","null","","","","","","","","","","","","","","","","","","","","","","","","","","","","","","","","","","","","","","","","","",""
"html-button-response","165","263134","0.0-5.0-0.0","2","1","f49wasxk84wrtha","","4006.4000000003725","","<p>Thank you for your answers.</p><p>You will now listen to similar sounds. The main difference is that the sounds will be longer and will make up complete sentences.</p><p>Please listen carefully to each sentence. After each sentence, you will be asked to type back what you heard to the best of your ability. After you provide your response, you will be given feedback about the correct answer.</p><p>There are 10 sentences in total.","0","","","","","","","","","","","","","","","","","","","","","","","","","","","","","","","","","","","","","","","","","","",""
"audio-keyboard-response","166","265683","0.0-5.0-1.0-0.0","2","1","f49wasxk84wrtha","","null","","sounds/sentences/left/14_04_cfSWS.wav","","null","","","","","","","","","","","","","","","","","","","","","","","","","","","","","","","","","","","","","","","","","",""
"sentence-resp","167","285448","0.0-5.0-1.0-1.0","2","1","f49wasxk84wrtha","","19762","","","","","","","SWS-SENT-RESPONSE","","","{""Q0"":""hmmm mm ii mm ""}","Two plus seven is less than ten.","two,plus,seven,less,ten","HMMM MM II MM ","0","0","0","0","0","0","0","","","","","","","","","","","","","","","","","","","","","","","","","",""
"html-keyboard-response","168","286713","0.0-5.0-1.0-2.0","2","1","f49wasxk84wrtha","","null","","","","null","","","","","","","","","","","","","","","","","","","","","","","","","","","","","","","","","","","","","","","","","",""
"audio-keyboard-response","169","288769","0.0-5.0-1.0-3.0","2","1","f49wasxk84wrtha","","null","","sounds/sentences/left/14_04_cfSWS.wav","","null","","","","","","","","","","","","","","","","","","","","","","","","","","","","","","","","","","","","","","","","","",""
"html-keyboard-response","170","289771","0.0-5.0-1.0-4.0","2","1","f49wasxk84wrtha","","null","","","","null","","","","","","","","","","","","","","","","","","","","","","","","","","","","","","","","","","","","","","","","","",""
"html-button-response","171","291136","0.0-5.0-1.0-5.0","2","1","f49wasxk84wrtha","","861.3000000007451","","<p>Press the button below when you are ready to continue.</p>","0","","","","","","","","","","","","","","","","","","","","","","","","","","","","","","","","","","","","","","","","","","",""
"audio-keyboard-response","172","294253","0.0-5.0-1.0-0.1","2","1","f49wasxk84wrtha","","null","","sounds/sentences/left/14_01_cfSWS.wav","","null","","","","","","","","","","","","","","","","","","","","","","","","","","","","","","","","","","","","","","","","","",""
"sentence-resp","173","307769","0.0-5.0-1.0-1.1","2","1","f49wasxk84wrtha","","13509","","","","","","","SWS-SENT-RESPONSE","","","{""Q0"":""3 plus 4 is equal to 7""}","A cramp is no small danger on a swim.","cramp,no,small,danger,swim","3 PLUS 4 IS EQUAL TO 7","0","0","0","0","0","0","0","","","","","","","","","","","","","","","","","","","","","","","","","",""
"html-keyboard-response","174","309028","0.0-5.0-1.0-2.1","2","1","f49wasxk84wrtha","","null","","","","null","","","","","","","","","","","","","","","","","","","","","","","","","","","","","","","","","","","","","","","","","",""
"audio-keyboard-response","175","311646","0.0-5.0-1.0-3.1","2","1","f49wasxk84wrtha","","null","","sounds/sentences/left/14_01_cfSWS.wav","","null","","","","","","","","","","","","","","","","","","","","","","","","","","","","","","","","","","","","","","","","","",""
"html-keyboard-response","176","312648","0.0-5.0-1.0-4.1","2","1","f49wasxk84wrtha","","null","","","","null","","","","","","","","","","","","","","","","","","","","","","","","","","","","","","","","","","","","","","","","","",""
"html-button-response","177","314568","0.0-5.0-1.0-5.1","2","1","f49wasxk84wrtha","","1415","","<p>Press the button below when you are ready to continue.</p>","0","","","","","","","","","","","","","","","","","","","","","","","","","","","","","","","","","","","","","","","","","","",""
"audio-keyboard-response","178","317316","0.0-5.0-1.0-0.2","2","1","f49wasxk84wrtha","","null","","sounds/sentences/right/14_06_cfSWS.wav","","null","","","","","","","","","","","","","","","","","","","","","","","","","","","","","","","","","","","","","","","","","",""
"sentence-resp","179","324315","0.0-5.0-1.0-1.2","2","1","f49wasxk84wrtha","","6997","","","","","","","SWS-SENT-RESPONSE","","","{""Q0"":""hmmmmmmmmhmmmhmmm""}","Bring your problems to the wise chief.","bring,your,problems,wise,chief","HMMMMMMMMHMMMHMMM","0","0","0","0","0","0","0","","","","","","","","","","","","","","","","","","","","","","","","","",""
"html-keyboard-response","180","325574","0.0-5.0-1.0-2.2","2","1","f49wasxk84wrtha","","null","","","","null","","","","","","","","","","","","","","","","","","","","","","","","","","","","","","","","","","","","","","","","","",""
"audio-keyboard-response","181","327822","0.0-5.0-1.0-3.2","2","1","f49wasxk84wrtha","","null","","sounds/sentences/right/14_06_cfSWS.wav","","null","","","","","","","","","","","","","","","","","","","","","","","","","","","","","","","","","","","","","","","","","",""
"html-keyboard-response","182","328828","0.0-5.0-1.0-4.2","2","1","f49wasxk84wrtha","","null","","","","null","","","","","","","","","","","","","","","","","","","","","","","","","","","","","","","","","","","","","","","","","",""
"html-button-response","183","332184","0.0-5.0-1.0-5.2","2","1","f49wasxk84wrtha","","2853.4000000003725","","<p>Press the button below when you are ready to continue.</p>","0","","","","","","","","","","","","","","","","","","","","","","","","","","","","","","","","","","","","","","","","","","",""
"audio-keyboard-response","184","334946","0.0-5.0-1.0-0.3","2","1","f49wasxk84wrtha","","null","","sounds/sentences/right/14_08_cfSWS.wav","","null","","","","","","","","","","","","","","","","","","","","","","","","","","","","","","","","","","","","","","","","","",""
"sentence-resp","185","343204","0.0-5.0-1.0-1.3","2","1","f49wasxk84wrtha","","8256","","","","","","","SWS-SENT-RESPONSE","","","{""Q0"":""hmm mmm mmm mmm""}","Clothes and lodging are free to new men.","clothes,lodging,free,new,men","HMM MMM MMM MMM","0","0","0","0","0","0","0","","","","","","","","","","","","","","","","","","","","","","","","","",""
"html-keyboard-response","186","344461","0.0-5.0-1.0-2.3","2","1","f49wasxk84wrtha","","null","","","","null","","","","","","","","","","","","","","","","","","","","","","","","","","","","","","","","","","","","","","","","","",""
"audio-keyboard-response","187","346714","0.0-5.0-1.0-3.3","2","1","f49wasxk84wrtha","","null","","sounds/sentences/right/14_08_cfSWS.wav","","null","","","","","","","","","","","","","","","","","","","","","","","","","","","","","","","","","","","","","","","","","",""
"html-keyboard-response","188","347716","0.0-5.0-1.0-4.3","2","1","f49wasxk84wrtha","","null","","","","null","","","","","","","","","","","","","","","","","","","","","","","","","","","","","","","","","","","","","","","","","",""
"html-button-response","189","352235","0.0-5.0-1.0-5.3","2","1","f49wasxk84wrtha","","4014.2000000011176","","<p>Press the button below when you are ready to continue.</p>","0","","","","","","","","","","","","","","","","","","","","","","","","","","","","","","","","","","","","","","","","","","",""
"audio-keyboard-response","190","354817","0.0-5.0-1.0-0.4","2","1","f49wasxk84wrtha","","null","","sounds/sentences/left/14_03_cfSWS.wav","","null","","","","","","","","","","","","","","","","","","","","","","","","","","","","","","","","","","","","","","","","","",""
"sentence-resp","191","374218","0.0-5.0-1.0-1.4","2","1","f49wasxk84wrtha","","19397","","","","","","","SWS-SENT-RESPONSE","","","{""Q0"":""i dont know ""}","Pluck the bright rose without leaves.","pluck,bright,rose,without,leaves","I DONT KNOW ","0","0","0","0","0","0","0","","","","","","","","","","","","","","","","","","","","","","","","","",""
"html-keyboard-response","192","375475","0.0-5.0-1.0-2.4","2","1","f49wasxk84wrtha","","null","","","","null","","","","","","","","","","","","","","","","","","","","","","","","","","","","","","","","","","","","","","","","","",""
"audio-keyboard-response","193","377561","0.0-5.0-1.0-3.4","2","1","f49wasxk84wrtha","","null","","sounds/sentences/left/14_03_cfSWS.wav","","null","","","","","","","","","","","","","","","","","","","","","","","","","","","","","","","","","","","","","","","","","",""
"html-keyboard-response","194","378562","0.0-5.0-1.0-4.4","2","1","f49wasxk84wrtha","","null","","","","null","","","","","","","","","","","","","","","","","","","","","","","","","","","","","","","","","","","","","","","","","",""
"html-button-response","195","380081","0.0-5.0-1.0-5.4","2","1","f49wasxk84wrtha","","1015.7000000011176","","<p>Press the button below when you are ready to continue.</p>","0","","","","","","","","","","","","","","","","","","","","","","","","","","","","","","","","","","","","","","","","","","",""
"audio-keyboard-response","196","382814","0.0-5.0-1.0-0.5","2","1","f49wasxk84wrtha","","null","","sounds/sentences/right/14_09_cfSWS.wav","","null","","","","","","","","","","","","","","","","","","","","","","","","","","","","","","","","","","","","","","","","","",""
"sentence-resp","197","396728","0.0-5.0-1.0-1.5","2","1","f49wasxk84wrtha","","13913","","","","","","","SWS-SENT-RESPONSE","","","{""Q0"":""pluck it without a leaf.""}","We frown when events take a bad turn.","frown,events,take,bad,turn","PLUCK IT WITHOUT A LEAF","0","0","0","0","0","0","0","","","","","","","","","","","","","","","","","","","","","","","","","",""
"html-keyboard-response","198","397982","0.0-5.0-1.0-2.5","2","1","f49wasxk84wrtha","","null","","","","null","","","","","","","","","","","","","","","","","","","","","","","","","","","","","","","","","","","","","","","","","",""
"audio-keyboard-response","199","400212","0.0-5.0-1.0-3.5","2","1","f49wasxk84wrtha","","null","","sounds/sentences/right/14_09_cfSWS.wav","","null","","","","","","","","","","","","","","","","","","","","","","","","","","","","","","","","","","","","","","","","","",""
"html-keyboard-response","200","401214","0.0-5.0-1.0-4.5","2","1","f49wasxk84wrtha","","null","","","","null","","","","","","","","","","","","","","","","","","","","","","","","","","","","","","","","","","","","","","","","","",""
"html-button-response","201","403003","0.0-5.0-1.0-5.5","2","1","f49wasxk84wrtha","","1283.9000000003725","","<p>Press the button below when you are ready to continue.</p>","0","","","","","","","","","","","","","","","","","","","","","","","","","","","","","","","","","","","","","","","","","","",""
"audio-keyboard-response","202","405992","0.0-5.0-1.0-0.6","2","1","f49wasxk84wrtha","","null","","sounds/sentences/left/14_05_cfSWS.wav","","null","","","","","","","","","","","","","","","","","","","","","","","","","","","","","","","","","","","","","","","","","",""
"sentence-resp","203","416733","0.0-5.0-1.0-1.6","2","1","f49wasxk84wrtha","","10738","","","","","","","SWS-SENT-RESPONSE","","","{""Q0"":""today i went for a swim.""}","The glow deepened in the eyes of the sweet girl.","glow,deepened,eyes,sweet,girl","TODAY I WENT FOR A SWIM","0","0","0","0","0","0","0","","","","","","","","","","","","","","","","","","","","","","","","","",""
"html-keyboard-response","204","417986","0.0-5.0-1.0-2.6","2","1","f49wasxk84wrtha","","null","","","","null","","","","","","","","","","","","","","","","","","","","","","","","","","","","","","","","","","","","","","","","","",""
"audio-keyboard-response","205","420477","0.0-5.0-1.0-3.6","2","1","f49wasxk84wrtha","","null","","sounds/sentences/left/14_05_cfSWS.wav","","null","","","","","","","","","","","","","","","","","","","","","","","","","","","","","","","","","","","","","","","","","",""
"html-keyboard-response","206","421479","0.0-5.0-1.0-4.6","2","1","f49wasxk84wrtha","","null","","","","null","","","","","","","","","","","","","","","","","","","","","","","","","","","","","","","","","","","","","","","","","",""
"html-button-response","207","435263","0.0-5.0-1.0-5.6","2","1","f49wasxk84wrtha","","13281.099999999627","","<p>Press the button below when you are ready to continue.</p>","0","","","","","","","","","","","","","","","","","","","","","","","","","","","","","","","","","","","","","","","","","","",""
"audio-keyboard-response","208","438080","0.0-5.0-1.0-0.7","2","1","f49wasxk84wrtha","","null","","sounds/sentences/left/14_02_cfSWS.wav","","null","","","","","","","","","","","","","","","","","","","","","","","","","","","","","","","","","","","","","","","","","",""
"sentence-resp","209","453512","0.0-5.0-1.0-1.7","2","1","f49wasxk84wrtha","","15431","","","","","","","SWS-SENT-RESPONSE","","","{""Q0"":""i am not sure""}","He said the same phrase thirty times.","said,same,phrase,thirty,times","I AM NOT SURE","0","0","0","0","0","0","0","","","","","","","","","","","","","","","","","","","","","","","","","",""
"html-keyboard-response","210","454769","0.0-5.0-1.0-2.7","2","1","f49wasxk84wrtha","","null","","","","null","","","","","","","","","","","","","","","","","","","","","","","","","","","","","","","","","","","","","","","","","",""
"audio-keyboard-response","211","457086","0.0-5.0-1.0-3.7","2","1","f49wasxk84wrtha","","null","","sounds/sentences/left/14_02_cfSWS.wav","","null","","","","","","","","","","","","","","","","","","","","","","","","","","","","","","","","","","","","","","","","","",""
"html-keyboard-response","212","458091","0.0-5.0-1.0-4.7","2","1","f49wasxk84wrtha","","null","","","","null","","","","","","","","","","","","","","","","","","","","","","","","","","","","","","","","","","","","","","","","","",""
"html-button-response","213","473029","0.0-5.0-1.0-5.7","2","1","f49wasxk84wrtha","","14432.699999999255","","<p>Press the button below when you are ready to continue.</p>","0","","","","","","","","","","","","","","","","","","","","","","","","","","","","","","","","","","","","","","","","","","",""
"audio-keyboard-response","214","476052","0.0-5.0-1.0-0.8","2","1","f49wasxk84wrtha","","null","","sounds/sentences/right/14_10_cfSWS.wav","","null","","","","","","","","","","","","","","","","","","","","","","","","","","","","","","","","","","","","","","","","","",""
"sentence-resp","215","486188","0.0-5.0-1.0-1.8","2","1","f49wasxk84wrtha","","10135","","","","","","","SWS-SENT-RESPONSE","","","{""Q0"":""i saw that last night""}","Port is a strong wine with a smoky taste.","port,strong,wine,smoky,taste","I SAW THAT LAST NIGHT","0","0","0","0","0","0","0","","","","","","","","","","","","","","","","","","","","","","","","","",""
"html-keyboard-response","216","487444","0.0-5.0-1.0-2.8","2","1","f49wasxk84wrtha","","null","","","","null","","","","","","","","","","","","","","","","","","","","","","","","","","","","","","","","","","","","","","","","","",""
"audio-keyboard-response","217","489964","0.0-5.0-1.0-3.8","2","1","f49wasxk84wrtha","","null","","sounds/sentences/right/14_10_cfSWS.wav","","null","","","","","","","","","","","","","","","","","","","","","","","","","","","","","","","","","","","","","","","","","",""
"html-keyboard-response","218","490965","0.0-5.0-1.0-4.8","2","1","f49wasxk84wrtha","","null","","","","null","","","","","","","","","","","","","","","","","","","","","","","","","","","","","","","","","","","","","","","","","",""
"html-button-response","219","492305","0.0-5.0-1.0-5.8","2","1","f49wasxk84wrtha","","837","","<p>Press the button below when you are ready to continue.</p>","0","","","","","","","","","","","","","","","","","","","","","","","","","","","","","","","","","","","","","","","","","","",""
"audio-keyboard-response","220","495199","0.0-5.0-1.0-0.9","2","1","f49wasxk84wrtha","","null","","sounds/sentences/right/14_07_cfSWS.wav","","null","","","","","","","","","","","","","","","","","","","","","","","","","","","","","","","","","","","","","","","","","",""
"sentence-resp","221","504765","0.0-5.0-1.0-1.9","2","1","f49wasxk84wrtha","","9562","","","","","","","SWS-SENT-RESPONSE","","","{""Q0"":""something bad will happen soon""}","Write a fond note to the friend you cherish.","write,fond,note,friend,cherish","SOMETHING BAD WILL HAPPEN SOON","0","0","0","0","0","0","0","","","","","","","","","","","","","","","","","","","","","","","","","",""
"html-keyboard-response","222","506018","0.0-5.0-1.0-2.9","2","1","f49wasxk84wrtha","","null","","","","null","","","","","","","","","","","","","","","","","","","","","","","","","","","","","","","","","","","","","","","","","",""
"audio-keyboard-response","223","508410","0.0-5.0-1.0-3.9","2","1","f49wasxk84wrtha","","null","","sounds/sentences/right/14_07_cfSWS.wav","","null","","","","","","","","","","","","","","","","","","","","","","","","","","","","","","","","","","","","","","","","","",""
"html-keyboard-response","224","509412","0.0-5.0-1.0-4.9","2","1","f49wasxk84wrtha","","null","","","","null","","","","","","","","","","","","","","","","","","","","","","","","","","","","","","","","","","","","","","","","","",""
"html-button-response","225","510658","0.0-5.0-1.0-5.9","2","1","f49wasxk84wrtha","","744.5999999996275","","<p>Press the button below when you are ready to continue.</p>","0","","","","","","","","","","","","","","","","","","","","","","","","","","","","","","","","","","","","","","","","","","",""
"html-keyboard-response","226","536217","0.0-6.0-0.0","2","1","f49wasxk84wrtha","","25057.099999999627","","<p>In this part of the study, you will hear sounds similar to those you just heard.</p><p>Please focus on these sounds, as you may be asked questions about them later.</p><p>Occasionally, the sounds will pause for up to two seconds. When this happens, please press SPACEBAR as quickly as you can.</br>This helps ensure that you are paying attention to the sounds.</p><p>This part of the study will take about 12 minutes to complete, and you will be given the opportunity to take a couple of short breaks every few minutes.</p><p><strong>Press SPACEBAR to begin</strong></p>","","32","","","","","","","","","","","","","","","","","","","","","","","","","","","","","","","","","","","","","","","","","",""
"html-keyboard-response","227","537218","0.0-6.0-1.0-0.0","2","1","f49wasxk84wrtha","","null","","<p style=""font-size: 40px;"">+</p>","","null","","","","","","","","","","","","","","","","","","","","","","","","","","","","","","","","","","","","","","","","","",""
"html-keyboard-response","228","722227","0.0-6.0-1.0-1.0","2","1","f49wasxk84wrtha","","null","","","","null","","","SL-TRAIN","","","","","","","","","","","","","","2","null","null","sounds/B/TRAIN/SEQ__05.mp3","1","","","","","","","","","","","","","","","","","","","","",""
"html-button-response","229","755083","0.0-6.0-1.0-2.0","2","1","f49wasxk84wrtha","","32854.300000000745","","<p>You may take a short break if you wish.</p>","0","","","","","","","","","","","","","","","","","","","","","","","","","","","","","","","","","","","","","","","","","","",""
"html-keyboard-response","230","756088","0.0-6.0-1.0-3.0","2","1","f49wasxk84wrtha","","null","","<p style=""font-size: 40px;"">+</p>","","null","","","","","","","","","","","","","","","","","","","","","","","","","","","","","","","","","","","","","","","","","",""
"html-keyboard-response","231","941093","0.0-6.0-1.0-4.0","2","1","f49wasxk84wrtha","","null","","","","null","","","SL-TRAIN","","","","","","","","","","","","","","2","null","null","sounds/B/TRAIN/SEQ__04.mp3","0","","","","","","","","","","","","","","","","","","","","",""
"html-button-response","232","987249","0.0-6.0-1.0-5.0","2","1","f49wasxk84wrtha","","46154.699999999255","","<p>You may take a short break if you wish.</p>","0","","","","","","","","","","","","","","","","","","","","","","","","","","","","","","","","","","","","","","","","","","",""
"html-keyboard-response","233","988251","0.0-6.0-1.0-6.0","2","1","f49wasxk84wrtha","","null","","<p style=""font-size: 40px;"">+</p>","","null","","","","","","","","","","","","","","","","","","","","","","","","","","","","","","","","","","","","","","","","","",""
"html-keyboard-response","234","1173257","0.0-6.0-1.0-7.0","2","1","f49wasxk84wrtha","","null","","","","null","","","SL-TRAIN","","","","","","","","","","","","","","2","null","null","sounds/B/TRAIN/SEQ__01.mp3","0","","","","","","","","","","","","","","","","","","","","",""
"html-button-response","235","1243710","0.0-6.0-1.0-8.0","2","1","f49wasxk84wrtha","","70451.40000000037","","<p>You may take a short break if you wish.</p>","0","","","","","","","","","","","","","","","","","","","","","","","","","","","","","","","","","","","","","","","","","","",""
"html-keyboard-response","236","1244711","0.0-6.0-1.0-9.0","2","1","f49wasxk84wrtha","","null","","<p style=""font-size: 40px;"">+</p>","","null","","","","","","","","","","","","","","","","","","","","","","","","","","","","","","","","","","","","","","","","","",""
"html-keyboard-response","237","1429716","0.0-6.0-1.0-10.0","2","1","f49wasxk84wrtha","","null","","","","null","","","SL-TRAIN","","","","","","","","","","","","","","2","null","null","sounds/B/TRAIN/SEQ__10.mp3","0","","","","","","","","","","","","","","","","","","","","",""
"html-button-response","238","1439699","0.0-6.0-1.0-11.0","2","1","f49wasxk84wrtha","","9982.099999999627","","<p>You may take a short break if you wish.</p>","0","","","","","","","","","","","","","","","","","","","","","","","","","","","","","","","","","","","","","","","","","","",""
"html-button-response","239","1444066","0.0-7.0-0.0","2","1","f49wasxk84wrtha","","4365.39999999851","","<p>Welcome to the second part of the study. This is a <u>familiarity task</u>.</p><p>You will now hear short sounds and will be asked to rate how familiar they sound to you <b>based on what you heard in the previous part of the study</b>.</p><p>You will rate 12 sounds in total.</p>","0","","","","","","","","","","","","","","","","","","","","","","","","","","","","","","","","","","","","","","","","","","",""
"html-keyboard-response","240","1445070","0.0-7.0-1.0-0.0","2","1","f49wasxk84wrtha","","null","","","","null","","","","","","","","","","","","","","","","","","","","","","","","","","","","","","","","","","","","","","","","","",""
"audio-keyboard-response","241","1446379","0.0-7.0-1.0-1.0","2","1","f49wasxk84wrtha","","null","","sounds/B/FAM/P002.mp3","","null","","","","","","","","","","","","","","","","","","","","","","","","","","","","","","","","","","","","","","","","","",""
"html-keyboard-response","242","1451095","0.0-7.0-1.0-2.0","2","1","f49wasxk84wrtha","","4211.9000000003725","","<p>How familiar did this sound to you?</p><p>1&nbsp;&nbsp;&nbsp;&nbsp;&nbsp;&nbsp;&nbsp;&nbsp;&nbsp;&nbsp;&nbsp;&nbsp;&nbsp;&nbsp;&nbsp;&nbsp;&nbsp;&nbsp;&nbsp;2&nbsp;&nbsp;&nbsp;&nbsp;&nbsp;&nbsp;&nbsp;&nbsp;&nbsp;&nbsp;&nbsp;&nbsp;&nbsp;&nbsp;&nbsp;&nbsp;&nbsp;&nbsp;&nbsp;3&nbsp;&nbsp;&nbsp;&nbsp;&nbsp;&nbsp;&nbsp;&nbsp;&nbsp;&nbsp;&nbsp;&nbsp;&nbsp;&nbsp;&nbsp;&nbsp;&nbsp;&nbsp;&nbsp;4</p><p style=""font-size:14px"">Not at all familiar&nbsp;&nbsp;&nbsp;&nbsp;A little familiar&nbsp;&nbsp;&nbsp;Moderately familiar&nbsp;&nbsp;&nbsp;Extremely familiar</p><p>(press the corresponding number on your keyboard)</p>","","52","","","FAM-RESPONSE","","","","","","","","","","","","","","","","","","","sounds/B/FAM/P002.mp3","partword","","","","","","","","","","","","","","","","","","",""
"html-keyboard-response","243","1453103","0.0-7.0-1.0-0.1","2","1","f49wasxk84wrtha","","null","","","","null","","","","","","","","","","","","","","","","","","","","","","","","","","","","","","","","","","","","","","","","","",""
"audio-keyboard-response","244","1454047","0.0-7.0-1.0-1.1","2","1","f49wasxk84wrtha","","null","","sounds/B/FAM/N001.mp3","","null","","","","","","","","","","","","","","","","","","","","","","","","","","","","","","","","","","","","","","","","","",""
"html-keyboard-response","245","1455828","0.0-7.0-1.0-2.1","2","1","f49wasxk84wrtha","","1276.9000000003725","","<p>How familiar did this sound to you?</p><p>1&nbsp;&nbsp;&nbsp;&nbsp;&nbsp;&nbsp;&nbsp;&nbsp;&nbsp;&nbsp;&nbsp;&nbsp;&nbsp;&nbsp;&nbsp;&nbsp;&nbsp;&nbsp;&nbsp;2&nbsp;&nbsp;&nbsp;&nbsp;&nbsp;&nbsp;&nbsp;&nbsp;&nbsp;&nbsp;&nbsp;&nbsp;&nbsp;&nbsp;&nbsp;&nbsp;&nbsp;&nbsp;&nbsp;3&nbsp;&nbsp;&nbsp;&nbsp;&nbsp;&nbsp;&nbsp;&nbsp;&nbsp;&nbsp;&nbsp;&nbsp;&nbsp;&nbsp;&nbsp;&nbsp;&nbsp;&nbsp;&nbsp;4</p><p style=""font-size:14px"">Not at all familiar&nbsp;&nbsp;&nbsp;&nbsp;A little familiar&nbsp;&nbsp;&nbsp;Moderately familiar&nbsp;&nbsp;&nbsp;Extremely familiar</p><p>(press the corresponding number on your keyboard)</p>","","50","","","FAM-RESPONSE","","","","","","","","","","","","","","","","","","","sounds/B/FAM/N001.mp3","nonword","","","","","","","","","","","","","","","","","","",""
"html-keyboard-response","246","1457831","0.0-7.0-1.0-0.2","2","1","f49wasxk84wrtha","","null","","","","null","","","","","","","","","","","","","","","","","","","","","","","","","","","","","","","","","","","","","","","","","",""
"audio-keyboard-response","247","1458778","0.0-7.0-1.0-1.2","2","1","f49wasxk84wrtha","","null","","sounds/B/FAM/W001.mp3","","null","","","","","","","","","","","","","","","","","","","","","","","","","","","","","","","","","","","","","","","","","",""
"html-keyboard-response","248","1459746","0.0-7.0-1.0-2.2","2","1","f49wasxk84wrtha","","466.2000000011176","","<p>How familiar did this sound to you?</p><p>1&nbsp;&nbsp;&nbsp;&nbsp;&nbsp;&nbsp;&nbsp;&nbsp;&nbsp;&nbsp;&nbsp;&nbsp;&nbsp;&nbsp;&nbsp;&nbsp;&nbsp;&nbsp;&nbsp;2&nbsp;&nbsp;&nbsp;&nbsp;&nbsp;&nbsp;&nbsp;&nbsp;&nbsp;&nbsp;&nbsp;&nbsp;&nbsp;&nbsp;&nbsp;&nbsp;&nbsp;&nbsp;&nbsp;3&nbsp;&nbsp;&nbsp;&nbsp;&nbsp;&nbsp;&nbsp;&nbsp;&nbsp;&nbsp;&nbsp;&nbsp;&nbsp;&nbsp;&nbsp;&nbsp;&nbsp;&nbsp;&nbsp;4</p><p style=""font-size:14px"">Not at all familiar&nbsp;&nbsp;&nbsp;&nbsp;A little familiar&nbsp;&nbsp;&nbsp;Moderately familiar&nbsp;&nbsp;&nbsp;Extremely familiar</p><p>(press the corresponding number on your keyboard)</p>","","52","","","FAM-RESPONSE","","","","","","","","","","","","","","","","","","","sounds/B/FAM/W001.mp3","word","","","","","","","","","","","","","","","","","","",""
"html-keyboard-response","249","1461757","0.0-7.0-1.0-0.3","2","1","f49wasxk84wrtha","","null","","","","null","","","","","","","","","","","","","","","","","","","","","","","","","","","","","","","","","","","","","","","","","",""
"audio-keyboard-response","250","1462693","0.0-7.0-1.0-1.3","2","1","f49wasxk84wrtha","","null","","sounds/B/FAM/P001.mp3","","null","","","","","","","","","","","","","","","","","","","","","","","","","","","","","","","","","","","","","","","","","",""
"html-keyboard-response","251","1463525","0.0-7.0-1.0-2.3","2","1","f49wasxk84wrtha","","327.59999999962747","","<p>How familiar did this sound to you?</p><p>1&nbsp;&nbsp;&nbsp;&nbsp;&nbsp;&nbsp;&nbsp;&nbsp;&nbsp;&nbsp;&nbsp;&nbsp;&nbsp;&nbsp;&nbsp;&nbsp;&nbsp;&nbsp;&nbsp;2&nbsp;&nbsp;&nbsp;&nbsp;&nbsp;&nbsp;&nbsp;&nbsp;&nbsp;&nbsp;&nbsp;&nbsp;&nbsp;&nbsp;&nbsp;&nbsp;&nbsp;&nbsp;&nbsp;3&nbsp;&nbsp;&nbsp;&nbsp;&nbsp;&nbsp;&nbsp;&nbsp;&nbsp;&nbsp;&nbsp;&nbsp;&nbsp;&nbsp;&nbsp;&nbsp;&nbsp;&nbsp;&nbsp;4</p><p style=""font-size:14px"">Not at all familiar&nbsp;&nbsp;&nbsp;&nbsp;A little familiar&nbsp;&nbsp;&nbsp;Moderately familiar&nbsp;&nbsp;&nbsp;Extremely familiar</p><p>(press the corresponding number on your keyboard)</p>","","52","","","FAM-RESPONSE","","","","","","","","","","","","","","","","","","","sounds/B/FAM/P001.mp3","partword","","","","","","","","","","","","","","","","","","",""
"html-keyboard-response","252","1465535","0.0-7.0-1.0-0.4","2","1","f49wasxk84wrtha","","null","","","","null","","","","","","","","","","","","","","","","","","","","","","","","","","","","","","","","","","","","","","","","","",""
"audio-keyboard-response","253","1466475","0.0-7.0-1.0-1.4","2","1","f49wasxk84wrtha","","null","","sounds/B/FAM/N003.mp3","","null","","","","","","","","","","","","","","","","","","","","","","","","","","","","","","","","","","","","","","","","","",""
"html-keyboard-response","254","1468218","0.0-7.0-1.0-2.4","2","1","f49wasxk84wrtha","","1237.300000000745","","<p>How familiar did this sound to you?</p><p>1&nbsp;&nbsp;&nbsp;&nbsp;&nbsp;&nbsp;&nbsp;&nbsp;&nbsp;&nbsp;&nbsp;&nbsp;&nbsp;&nbsp;&nbsp;&nbsp;&nbsp;&nbsp;&nbsp;2&nbsp;&nbsp;&nbsp;&nbsp;&nbsp;&nbsp;&nbsp;&nbsp;&nbsp;&nbsp;&nbsp;&nbsp;&nbsp;&nbsp;&nbsp;&nbsp;&nbsp;&nbsp;&nbsp;3&nbsp;&nbsp;&nbsp;&nbsp;&nbsp;&nbsp;&nbsp;&nbsp;&nbsp;&nbsp;&nbsp;&nbsp;&nbsp;&nbsp;&nbsp;&nbsp;&nbsp;&nbsp;&nbsp;4</p><p style=""font-size:14px"">Not at all familiar&nbsp;&nbsp;&nbsp;&nbsp;A little familiar&nbsp;&nbsp;&nbsp;Moderately familiar&nbsp;&nbsp;&nbsp;Extremely familiar</p><p>(press the corresponding number on your keyboard)</p>","","50","","","FAM-RESPONSE","","","","","","","","","","","","","","","","","","","sounds/B/FAM/N003.mp3","nonword","","","","","","","","","","","","","","","","","","",""
"html-keyboard-response","255","1470223","0.0-7.0-1.0-0.5","2","1","f49wasxk84wrtha","","null","","","","null","","","","","","","","","","","","","","","","","","","","","","","","","","","","","","","","","","","","","","","","","",""
"audio-keyboard-response","256","1471167","0.0-7.0-1.0-1.5","2","1","f49wasxk84wrtha","","null","","sounds/B/FAM/P003.mp3","","null","","","","","","","","","","","","","","","","","","","","","","","","","","","","","","","","","","","","","","","","","",""
"html-keyboard-response","257","1472451","0.0-7.0-1.0-2.5","2","1","f49wasxk84wrtha","","780.3000000007451","","<p>How familiar did this sound to you?</p><p>1&nbsp;&nbsp;&nbsp;&nbsp;&nbsp;&nbsp;&nbsp;&nbsp;&nbsp;&nbsp;&nbsp;&nbsp;&nbsp;&nbsp;&nbsp;&nbsp;&nbsp;&nbsp;&nbsp;2&nbsp;&nbsp;&nbsp;&nbsp;&nbsp;&nbsp;&nbsp;&nbsp;&nbsp;&nbsp;&nbsp;&nbsp;&nbsp;&nbsp;&nbsp;&nbsp;&nbsp;&nbsp;&nbsp;3&nbsp;&nbsp;&nbsp;&nbsp;&nbsp;&nbsp;&nbsp;&nbsp;&nbsp;&nbsp;&nbsp;&nbsp;&nbsp;&nbsp;&nbsp;&nbsp;&nbsp;&nbsp;&nbsp;4</p><p style=""font-size:14px"">Not at all familiar&nbsp;&nbsp;&nbsp;&nbsp;A little familiar&nbsp;&nbsp;&nbsp;Moderately familiar&nbsp;&nbsp;&nbsp;Extremely familiar</p><p>(press the corresponding number on your keyboard)</p>","","51","","","FAM-RESPONSE","","","","","","","","","","","","","","","","","","","sounds/B/FAM/P003.mp3","partword","","","","","","","","","","","","","","","","","","",""
"html-keyboard-response","258","1474456","0.0-7.0-1.0-0.6","2","1","f49wasxk84wrtha","","null","","","","null","","","","","","","","","","","","","","","","","","","","","","","","","","","","","","","","","","","","","","","","","",""
"audio-keyboard-response","259","1475395","0.0-7.0-1.0-1.6","2","1","f49wasxk84wrtha","","null","","sounds/B/FAM/N002.mp3","","null","","","","","","","","","","","","","","","","","","","","","","","","","","","","","","","","","","","","","","","","","",""
"html-keyboard-response","260","1476114","0.0-7.0-1.0-2.6","2","1","f49wasxk84wrtha","","215.40000000037253","","<p>How familiar did this sound to you?</p><p>1&nbsp;&nbsp;&nbsp;&nbsp;&nbsp;&nbsp;&nbsp;&nbsp;&nbsp;&nbsp;&nbsp;&nbsp;&nbsp;&nbsp;&nbsp;&nbsp;&nbsp;&nbsp;&nbsp;2&nbsp;&nbsp;&nbsp;&nbsp;&nbsp;&nbsp;&nbsp;&nbsp;&nbsp;&nbsp;&nbsp;&nbsp;&nbsp;&nbsp;&nbsp;&nbsp;&nbsp;&nbsp;&nbsp;3&nbsp;&nbsp;&nbsp;&nbsp;&nbsp;&nbsp;&nbsp;&nbsp;&nbsp;&nbsp;&nbsp;&nbsp;&nbsp;&nbsp;&nbsp;&nbsp;&nbsp;&nbsp;&nbsp;4</p><p style=""font-size:14px"">Not at all familiar&nbsp;&nbsp;&nbsp;&nbsp;A little familiar&nbsp;&nbsp;&nbsp;Moderately familiar&nbsp;&nbsp;&nbsp;Extremely familiar</p><p>(press the corresponding number on your keyboard)</p>","","52","","","FAM-RESPONSE","","","","","","","","","","","","","","","","","","","sounds/B/FAM/N002.mp3","nonword","","","","","","","","","","","","","","","","","","",""
"html-keyboard-response","261","1478121","0.0-7.0-1.0-0.7","2","1","f49wasxk84wrtha","","null","","","","null","","","","","","","","","","","","","","","","","","","","","","","","","","","","","","","","","","","","","","","","","",""
"audio-keyboard-response","262","1479067","0.0-7.0-1.0-1.7","2","1","f49wasxk84wrtha","","null","","sounds/B/FAM/P004.mp3","","null","","","","","","","","","","","","","","","","","","","","","","","","","","","","","","","","","","","","","","","","","",""
"html-keyboard-response","263","1480190","0.0-7.0-1.0-2.7","2","1","f49wasxk84wrtha","","621.6000000014901","","<p>How familiar did this sound to you?</p><p>1&nbsp;&nbsp;&nbsp;&nbsp;&nbsp;&nbsp;&nbsp;&nbsp;&nbsp;&nbsp;&nbsp;&nbsp;&nbsp;&nbsp;&nbsp;&nbsp;&nbsp;&nbsp;&nbsp;2&nbsp;&nbsp;&nbsp;&nbsp;&nbsp;&nbsp;&nbsp;&nbsp;&nbsp;&nbsp;&nbsp;&nbsp;&nbsp;&nbsp;&nbsp;&nbsp;&nbsp;&nbsp;&nbsp;3&nbsp;&nbsp;&nbsp;&nbsp;&nbsp;&nbsp;&nbsp;&nbsp;&nbsp;&nbsp;&nbsp;&nbsp;&nbsp;&nbsp;&nbsp;&nbsp;&nbsp;&nbsp;&nbsp;4</p><p style=""font-size:14px"">Not at all familiar&nbsp;&nbsp;&nbsp;&nbsp;A little familiar&nbsp;&nbsp;&nbsp;Moderately familiar&nbsp;&nbsp;&nbsp;Extremely familiar</p><p>(press the corresponding number on your keyboard)</p>","","52","","","FAM-RESPONSE","","","","","","","","","","","","","","","","","","","sounds/B/FAM/P004.mp3","partword","","","","","","","","","","","","","","","","","","",""
"html-keyboard-response","264","1482195","0.0-7.0-1.0-0.8","2","1","f49wasxk84wrtha","","null","","","","null","","","","","","","","","","","","","","","","","","","","","","","","","","","","","","","","","","","","","","","","","",""
"audio-keyboard-response","265","1483132","0.0-7.0-1.0-1.8","2","1","f49wasxk84wrtha","","null","","sounds/B/FAM/W002.mp3","","null","","","","","","","","","","","","","","","","","","","","","","","","","","","","","","","","","","","","","","","","","",""
"html-keyboard-response","266","1483976","0.0-7.0-1.0-2.8","2","1","f49wasxk84wrtha","","339.1000000014901","","<p>How familiar did this sound to you?</p><p>1&nbsp;&nbsp;&nbsp;&nbsp;&nbsp;&nbsp;&nbsp;&nbsp;&nbsp;&nbsp;&nbsp;&nbsp;&nbsp;&nbsp;&nbsp;&nbsp;&nbsp;&nbsp;&nbsp;2&nbsp;&nbsp;&nbsp;&nbsp;&nbsp;&nbsp;&nbsp;&nbsp;&nbsp;&nbsp;&nbsp;&nbsp;&nbsp;&nbsp;&nbsp;&nbsp;&nbsp;&nbsp;&nbsp;3&nbsp;&nbsp;&nbsp;&nbsp;&nbsp;&nbsp;&nbsp;&nbsp;&nbsp;&nbsp;&nbsp;&nbsp;&nbsp;&nbsp;&nbsp;&nbsp;&nbsp;&nbsp;&nbsp;4</p><p style=""font-size:14px"">Not at all familiar&nbsp;&nbsp;&nbsp;&nbsp;A little familiar&nbsp;&nbsp;&nbsp;Moderately familiar&nbsp;&nbsp;&nbsp;Extremely familiar</p><p>(press the corresponding number on your keyboard)</p>","","52","","","FAM-RESPONSE","","","","","","","","","","","","","","","","","","","sounds/B/FAM/W002.mp3","word","","","","","","","","","","","","","","","","","","",""
"html-keyboard-response","267","1485984","0.0-7.0-1.0-0.9","2","1","f49wasxk84wrtha","","null","","","","null","","","","","","","","","","","","","","","","","","","","","","","","","","","","","","","","","","","","","","","","","",""
"audio-keyboard-response","268","1486926","0.0-7.0-1.0-1.9","2","1","f49wasxk84wrtha","","null","","sounds/B/FAM/W004.mp3","","null","","","","","","","","","","","","","","","","","","","","","","","","","","","","","","","","","","","","","","","","","",""
"html-keyboard-response","269","1487891","0.0-7.0-1.0-2.9","2","1","f49wasxk84wrtha","","460.7999999988824","","<p>How familiar did this sound to you?</p><p>1&nbsp;&nbsp;&nbsp;&nbsp;&nbsp;&nbsp;&nbsp;&nbsp;&nbsp;&nbsp;&nbsp;&nbsp;&nbsp;&nbsp;&nbsp;&nbsp;&nbsp;&nbsp;&nbsp;2&nbsp;&nbsp;&nbsp;&nbsp;&nbsp;&nbsp;&nbsp;&nbsp;&nbsp;&nbsp;&nbsp;&nbsp;&nbsp;&nbsp;&nbsp;&nbsp;&nbsp;&nbsp;&nbsp;3&nbsp;&nbsp;&nbsp;&nbsp;&nbsp;&nbsp;&nbsp;&nbsp;&nbsp;&nbsp;&nbsp;&nbsp;&nbsp;&nbsp;&nbsp;&nbsp;&nbsp;&nbsp;&nbsp;4</p><p style=""font-size:14px"">Not at all familiar&nbsp;&nbsp;&nbsp;&nbsp;A little familiar&nbsp;&nbsp;&nbsp;Moderately familiar&nbsp;&nbsp;&nbsp;Extremely familiar</p><p>(press the corresponding number on your keyboard)</p>","","52","","","FAM-RESPONSE","","","","","","","","","","","","","","","","","","","sounds/B/FAM/W004.mp3","word","","","","","","","","","","","","","","","","","","",""
"html-keyboard-response","270","1489901","0.0-7.0-1.0-0.10","2","1","f49wasxk84wrtha","","null","","","","null","","","","","","","","","","","","","","","","","","","","","","","","","","","","","","","","","","","","","","","","","",""
"audio-keyboard-response","271","1490835","0.0-7.0-1.0-1.10","2","1","f49wasxk84wrtha","","null","","sounds/B/FAM/W003.mp3","","null","","","","","","","","","","","","","","","","","","","","","","","","","","","","","","","","","","","","","","","","","",""
"html-keyboard-response","272","1491655","0.0-7.0-1.0-2.10","2","1","f49wasxk84wrtha","","318.5","","<p>How familiar did this sound to you?</p><p>1&nbsp;&nbsp;&nbsp;&nbsp;&nbsp;&nbsp;&nbsp;&nbsp;&nbsp;&nbsp;&nbsp;&nbsp;&nbsp;&nbsp;&nbsp;&nbsp;&nbsp;&nbsp;&nbsp;2&nbsp;&nbsp;&nbsp;&nbsp;&nbsp;&nbsp;&nbsp;&nbsp;&nbsp;&nbsp;&nbsp;&nbsp;&nbsp;&nbsp;&nbsp;&nbsp;&nbsp;&nbsp;&nbsp;3&nbsp;&nbsp;&nbsp;&nbsp;&nbsp;&nbsp;&nbsp;&nbsp;&nbsp;&nbsp;&nbsp;&nbsp;&nbsp;&nbsp;&nbsp;&nbsp;&nbsp;&nbsp;&nbsp;4</p><p style=""font-size:14px"">Not at all familiar&nbsp;&nbsp;&nbsp;&nbsp;A little familiar&nbsp;&nbsp;&nbsp;Moderately familiar&nbsp;&nbsp;&nbsp;Extremely familiar</p><p>(press the corresponding number on your keyboard)</p>","","52","","","FAM-RESPONSE","","","","","","","","","","","","","","","","","","","sounds/B/FAM/W003.mp3","word","","","","","","","","","","","","","","","","","","",""
"html-keyboard-response","273","1493662","0.0-7.0-1.0-0.11","2","1","f49wasxk84wrtha","","null","","","","null","","","","","","","","","","","","","","","","","","","","","","","","","","","","","","","","","","","","","","","","","",""
"audio-keyboard-response","274","1494600","0.0-7.0-1.0-1.11","2","1","f49wasxk84wrtha","","null","","sounds/B/FAM/N004.mp3","","null","","","","","","","","","","","","","","","","","","","","","","","","","","","","","","","","","","","","","","","","","",""
"html-keyboard-response","275","1495456","0.0-7.0-1.0-2.11","2","1","f49wasxk84wrtha","","352.19999999925494","","<p>How familiar did this sound to you?</p><p>1&nbsp;&nbsp;&nbsp;&nbsp;&nbsp;&nbsp;&nbsp;&nbsp;&nbsp;&nbsp;&nbsp;&nbsp;&nbsp;&nbsp;&nbsp;&nbsp;&nbsp;&nbsp;&nbsp;2&nbsp;&nbsp;&nbsp;&nbsp;&nbsp;&nbsp;&nbsp;&nbsp;&nbsp;&nbsp;&nbsp;&nbsp;&nbsp;&nbsp;&nbsp;&nbsp;&nbsp;&nbsp;&nbsp;3&nbsp;&nbsp;&nbsp;&nbsp;&nbsp;&nbsp;&nbsp;&nbsp;&nbsp;&nbsp;&nbsp;&nbsp;&nbsp;&nbsp;&nbsp;&nbsp;&nbsp;&nbsp;&nbsp;4</p><p style=""font-size:14px"">Not at all familiar&nbsp;&nbsp;&nbsp;&nbsp;A little familiar&nbsp;&nbsp;&nbsp;Moderately familiar&nbsp;&nbsp;&nbsp;Extremely familiar</p><p>(press the corresponding number on your keyboard)</p>","","52","","","FAM-RESPONSE","","","","","","","","","","","","","","","","","","","sounds/B/FAM/N004.mp3","nonword","","","","","","","","","","","","","","","","","","",""
"html-button-response","276","1503367","0.0-8.0-0.0","2","1","f49wasxk84wrtha","","6907.300000000745","","<p>You will now listen to longer sound sequences.</p><p>Each sound sequence will last about 16 seconds.</p><p>On each trial, you will be given a <u>TARGET SOUND</u>. Your task is to listen very carefully for this sound.</p><p>Every time you hear the <u>TARGET SOUND</u>, you will press the <b>SPACEBAR</b> as quickly and accurately as you can.</p>","0","","","","","","","","","","","","","","","","","","","","","","","","","","","","","","","","","","","","","","","","","","",""
"html-button-response","277","1511328","0.0-8.0-1.0","2","1","f49wasxk84wrtha","","7709","","<p>It is very important that you make your responses as quickly and accurately as possible.</p><p>To help you make your responses, you will be able to listen to the <u>TARGET SOUND</u> at the beginning of each trial.</p><p>There will be 36 total trials.</p><p><b>Note: This is meant to be a difficult task. We simply want you to try your best.</p>","0","","","","","","","","","","","","","","","","","","","","","","","","","","","","","","","","","","","","","","","","","","",""
"html-button-response","278","1513351","0.0-8.0-2.0-0.0","2","1","f49wasxk84wrtha","","1767.199999999255","","<p>Trial 1 of 36</p>","0","","","","","","","","","","","","","","","","","","","","","","","","","NI","sounds/syllables/ni_SWS.wav","3000,4800,11100,12900","2","","","","","","","","","","","","","","",""
"html-keyboard-response","279","1549529","0.0-8.0-2.0-1.0","2","1","f49wasxk84wrtha","","36176.5","","","","80","","","","","","","","","","","","","","","","","","","","","","","","NI","","3000,4800,11100,12900","2","","","","","","","","","","","","","","",""
"audio-keyboard-response","280","1550315","0.0-8.0-2.0-2.0-0.0","2","1","f49wasxk84wrtha","","null","","sounds/syllables/ni_SWS.wav","","null","","","","","","","","","","","","","","","","","","","","","","","","","","","","","","","","","","","","","","","","","",""
"html-keyboard-response","281","1553235","0.0-8.0-2.0-2.0-1.0","2","1","f49wasxk84wrtha","","2919","","<p>To replay the <u>TARGET SOUND</u>, press P.</p> When you are ready to begin, press SPACEBAR.","","80","","","","","","","","","","","","","","","","","","","","","","","","","","","","","","","","","","","","","","","","","",""
"audio-keyboard-response","282","1554039","0.0-8.0-2.0-2.1-0.1","2","1","f49wasxk84wrtha","","null","","sounds/syllables/ni_SWS.wav","","null","","","","","","","","","","","","","","","","","","","","","","","","","","","","","","","","","","","","","","","","","",""
"html-keyboard-response","283","1554925","0.0-8.0-2.0-2.1-1.1","2","1","f49wasxk84wrtha","","884.9000000003725","","<p>To replay the <u>TARGET SOUND</u>, press P.</p> When you are ready to begin, press SPACEBAR.","","32","","","","","","","","","","","","","","","","","","","","","","","","","","","","","","","","","","","","","","","","","",""
"audio-keyboard-response","284","1569874","0.0-8.0-2.0-3.0","2","1","f49wasxk84wrtha","","2473","","sounds/B/TD/NI_07_TD.mp3","","32","","","TD_SUMMARY","","","","","","","","","","","","","","","","","","","","","NI","","3000,4800,11100,12900","2","3000","4800","11100","12900","null","713.8000000007451","803.9000000003725","1145.9000000003725","2473.9000000003725_5513.800000000745_7170.9000000003725_8375.300000000745_11903.900000000373_12529.099999999627_13383.099999999627_14045.900000000373","2","","","","",""
"html-button-response","285","1571113","0.0-8.0-2.0-0.1","2","1","f49wasxk84wrtha","","1236.3999999985099","","<p>Trial 2 of 36</p>","0","","","","","","","","","","","","","","","","","","","","","","","","","KO","sounds/syllables/ko_SWS.wav","1200,3000,6600,9300","2","","","","","","","","","","","","","","",""
"html-keyboard-response","286","1572160","0.0-8.0-2.0-1.1","2","1","f49wasxk84wrtha","","1044.800000000745","","","","80","","","","","","","","","","","","","","","","","","","","","","","","KO","","1200,3000,6600,9300","2","","","","","","","","","","","","","","",""
"audio-keyboard-response","287","1572457","0.0-8.0-2.0-2.2-0.2","2","1","f49wasxk84wrtha","","null","","sounds/syllables/ko_SWS.wav","","null","","","","","","","","","","","","","","","","","","","","","","","","","","","","","","","","","","","","","","","","","",""
"html-keyboard-response","288","1573684","0.0-8.0-2.0-2.2-1.2","2","1","f49wasxk84wrtha","","1226.4000000003725","","<p>To replay the <u>TARGET SOUND</u>, press P.</p> When you are ready to begin, press SPACEBAR.","","80","","","","","","","","","","","","","","","","","","","","","","","","","","","","","","","","","","","","","","","","","",""
"audio-keyboard-response","289","1574484","0.0-8.0-2.0-2.3-0.3","2","1","f49wasxk84wrtha","","null","","sounds/syllables/ko_SWS.wav","","null","","","","","","","","","","","","","","","","","","","","","","","","","","","","","","","","","","","","","","","","","",""
"html-keyboard-response","290","1575089","0.0-8.0-2.0-2.3-1.3","2","1","f49wasxk84wrtha","","604.4000000003725","","<p>To replay the <u>TARGET SOUND</u>, press P.</p> When you are ready to begin, press SPACEBAR.","","80","","","","","","","","","","","","","","","","","","","","","","","","","","","","","","","","","","","","","","","","","",""
"audio-keyboard-response","291","1575891","0.0-8.0-2.0-2.4-0.4","2","1","f49wasxk84wrtha","","null","","sounds/syllables/ko_SWS.wav","","null","","","","","","","","","","","","","","","","","","","","","","","","","","","","","","","","","","","","","","","","","",""
"html-keyboard-response","292","1576270","0.0-8.0-2.0-2.4-1.4","2","1","f49wasxk84wrtha","","377.59999999962747","","<p>To replay the <u>TARGET SOUND</u>, press P.</p> When you are ready to begin, press SPACEBAR.","","32","","","","","","","","","","","","","","","","","","","","","","","","","","","","","","","","","","","","","","","","","",""
"audio-keyboard-response","293","1591222","0.0-8.0-2.0-3.1","2","1","f49wasxk84wrtha","","1602","","sounds/B/TD/KO_04_TD.mp3","","32","","","TD_SUMMARY","","","","","","","","","","","","","","","","","","","","","KO","","1200,3000,6600,9300","2","1200","3000","6600","9300","408.09999999962747","959.5999999996275","904.3000000007451","null","________1608.0999999996275_3959.5999999996275_7504.300000000745_13266.599999999627","3","","","","",""
"html-button-response","294","1592290","0.0-8.0-2.0-0.2","2","1","f49wasxk84wrtha","","1065.300000000745","","<p>Trial 3 of 36</p>","0","","","","","","","","","","","","","","","","","","","","","","","","","TI","sounds/syllables/ti_SWS.wav","2700,5400,9000,12600","1","","","","","","","","","","","","","","",""
"html-keyboard-response","295","1593283","0.0-8.0-2.0-1.2","2","1","f49wasxk84wrtha","","991.3000000007451","","","","80","","","","","","","","","","","","","","","","","","","","","","","","TI","","2700,5400,9000,12600","1","","","","","","","","","","","","","","",""
"audio-keyboard-response","296","1593585","0.0-8.0-2.0-2.5-0.5","2","1","f49wasxk84wrtha","","null","","sounds/syllables/ti_SWS.wav","","null","","","","","","","","","","","","","","","","","","","","","","","","","","","","","","","","","","","","","","","","","",""
"html-keyboard-response","297","1594276","0.0-8.0-2.0-2.5-1.5","2","1","f49wasxk84wrtha","","689.6999999992549","","<p>To replay the <u>TARGET SOUND</u>, press P.</p> When you are ready to begin, press SPACEBAR.","","80","","","","","","","","","","","","","","","","","","","","","","","","","","","","","","","","","","","","","","","","","",""
"audio-keyboard-response","298","1595079","0.0-8.0-2.0-2.6-0.6","2","1","f49wasxk84wrtha","","null","","sounds/syllables/ti_SWS.wav","","null","","","","","","","","","","","","","","","","","","","","","","","","","","","","","","","","","","","","","","","","","",""
"html-keyboard-response","299","1595462","0.0-8.0-2.0-2.6-1.6","2","1","f49wasxk84wrtha","","381.7999999988824","","<p>To replay the <u>TARGET SOUND</u>, press P.</p> When you are ready to begin, press SPACEBAR.","","32","","","","","","","","","","","","","","","","","","","","","","","","","","","","","","","","","","","","","","","","","",""
"audio-keyboard-response","300","1610404","0.0-8.0-2.0-3.2","2","1","f49wasxk84wrtha","","2856","","sounds/B/TD/TI_07_TD.mp3","","32","","","TD_SUMMARY","","","","","","","","","","","","","","","","","","","","","TI","","2700,5400,9000,12600","1","2700","5400","9000","12600","828.2999999988824","348","null","1066.7999999988824","____________2853.7999999988824_3528.2999999988824_5748_7943_8461.900000000373_10408.799999998882_11028.099999999627_13666.799999998882_13842.299999998882","2","","","","",""
"html-button-response","301","1611989","0.0-8.0-2.0-0.3","2","1","f49wasxk84wrtha","","1583","","<p>Trial 4 of 36</p>","0","","","","","","","","","","","","","","","","","","","","","","","","","RE","sounds/syllables/re_SWS.wav","2400,7800,9600,13200","3","","","","","","","","","","","","","","",""
"html-keyboard-response","302","1613447","0.0-8.0-2.0-1.3","2","1","f49wasxk84wrtha","","1455.9000000003725","","","","80","","","","","","","","","","","","","","","","","","","","","","","","RE","","2400,7800,9600,13200","3","","","","","","","","","","","","","","",""
"audio-keyboard-response","303","1613746","0.0-8.0-2.0-2.7-0.7","2","1","f49wasxk84wrtha","","null","","sounds/syllables/re_SWS.wav","","null","","","","","","","","","","","","","","","","","","","","","","","","","","","","","","","","","","","","","","","","","",""
"html-keyboard-response","304","1614228","0.0-8.0-2.0-2.7-1.7","2","1","f49wasxk84wrtha","","481","","<p>To replay the <u>TARGET SOUND</u>, press P.</p> When you are ready to begin, press SPACEBAR.","","80","","","","","","","","","","","","","","","","","","","","","","","","","","","","","","","","","","","","","","","","","",""
"audio-keyboard-response","305","1615032","0.0-8.0-2.0-2.8-0.8","2","1","f49wasxk84wrtha","","null","","sounds/syllables/re_SWS.wav","","null","","","","","","","","","","","","","","","","","","","","","","","","","","","","","","","","","","","","","","","","","",""
"html-keyboard-response","306","1615546","0.0-8.0-2.0-2.8-1.8","2","1","f49wasxk84wrtha","","513.4000000003725","","<p>To replay the <u>TARGET SOUND</u>, press P.</p> When you are ready to begin, press SPACEBAR.","","32","","","","","","","","","","","","","","","","","","","","","","","","","","","","","","","","","","","","","","","","","",""
"audio-keyboard-response","307","1630495","0.0-8.0-2.0-3.3","2","1","f49wasxk84wrtha","","1834","","sounds/B/TD/RE_10_TD.mp3","","32","","","TD_SUMMARY","","","","","","","","","","","","","","","","","","","","","RE","","2400,7800,9600,13200","3","2400","7800","9600","13200","825.1999999992549","533.3999999985099","558","null","_____________________1833.8999999985099_2359.199999999255_2587.2999999988824_2805.199999999255_3010.199999999255_3225.199999999255_5361.799999998882_5665.0999999996275_5957.799999998882_7498_7749.699999999255_8021_8333.39999999851_9661.199999999255_9884.799999998882_10158_11016.39999999851_12034.799999998882_12719.39999999851_12895.299999998882_13131.099999999627_13367","2","","","","",""
"html-button-response","308","1631418","0.0-8.0-2.0-0.4","2","1","f49wasxk84wrtha","","919.8000000007451","","<p>Trial 5 of 36</p>","0","","","","","","","","","","","","","","","","","","","","","","","","","PU","sounds/syllables/pu_SWS.wav","2700,5400,9000,11700","1","","","","","","","","","","","","","","",""
"html-keyboard-response","309","1632472","0.0-8.0-2.0-1.4","2","1","f49wasxk84wrtha","","1052.4000000003725","","","","80","","","","","","","","","","","","","","","","","","","","","","","","PU","","2700,5400,9000,11700","1","","","","","","","","","","","","","","",""
"audio-keyboard-response","310","1632771","0.0-8.0-2.0-2.9-0.9","2","1","f49wasxk84wrtha","","null","","sounds/syllables/pu_SWS.wav","","null","","","","","","","","","","","","","","","","","","","","","","","","","","","","","","","","","","","","","","","","","",""
"html-keyboard-response","311","1633276","0.0-8.0-2.0-2.9-1.9","2","1","f49wasxk84wrtha","","503.59999999962747","","<p>To replay the <u>TARGET SOUND</u>, press P.</p> When you are ready to begin, press SPACEBAR.","","32","","","","","","","","","","","","","","","","","","","","","","","","","","","","","","","","","","","","","","","","","",""
"audio-keyboard-response","312","1648224","0.0-8.0-2.0-3.4","2","1","f49wasxk84wrtha","","1457","","sounds/B/TD/PU_10_TD.mp3","","32","","","TD_SUMMARY","","","","","","","","","","","","","","","","","","","","","PU","","2700,5400,9000,11700","1","2700","5400","9000","11700","1193.699999999255","1190.5","700.4000000003725","577","___________________________________________1457.7999999988824_3268.4000000003725_3893.699999999255_4524.4000000003725_6069.9000000003725_6590.5_7755.0999999996275_9700.400000000373_10313.5_12277_12925.5","1","","","","",""
"html-button-response","313","1649222","0.0-8.0-2.0-0.5","2","1","f49wasxk84wrtha","","996.2999999988824","","<p>Trial 6 of 36</p>","0","","","","","","","","","","","","","","","","","","","","","","","","","SU","sounds/syllables/su_SWS.wav","1200,5700,8400,12000","2","","","","","","","","","","","","","","",""
