"trial_type","trial_index","time_elapsed","internal_node_id","counterbalance","lang_instruct","ParticipantID","view_history","rt","url","stimulus","button_pressed","key_press","correctRESP","correct","designation","location","correctanswer","responses","sentence","keywords","typed_resp","keyword1_acc","keyword2_acc","keyword3_acc","keyword4_acc","keyword5_acc","total_acc","prop_acc","timeouts","pause_rt01","pause_rt02","train_file","numKeyPress","sound","fam_type","SYLLABLE","EXEMPLAR","TD_LOCS","TD_TYPE","TDLOC_01","TDLOC_02","TDLOC_03","TDLOC_04","TD_RT_01","TD_RT_02","TD_RT_03","TD_RT_04","TD_SUBJ_RTs","number_of_plays","slider_start","response","question_order","syllable","syllable_type"
"pavlovia","0","7","0.0-0.0","2","1","p3eyzu73f5ya7c8","","","","","","","","","","","","","","","","","","","","","","","","","","","","","","","","","","","","","","","","","","","","","","","",""
"instructions","1","24388","0.0-1.0","2","1","p3eyzu73f5ya7c8","[{""page_index"":0,""viewing_time"":21024.39999999851},{""page_index"":1,""viewing_time"":3352.2000000029802}]","24380.10000000149","","","","","","","","","","","","","","","","","","","","","","","","","","","","","","","","","","","","","","","","","","","","","",""
"external-html","2","31056","0.0-2.0","2","1","p3eyzu73f5ya7c8","","6524.599999997765","consent/consent.html","","","","","","","","","","","","","","","","","","","","","","","","","","","","","","","","","","","","","","","","","","","","",""
"html-button-response","3","32623","0.0-3.0-0.0-0.0","2","1","p3eyzu73f5ya7c8","","1563","","<p>Welcome to the study. You will first complete a short volume calibration and headphone check.</p><p>Please make sure you are in a quiet listening environment, that you are wearing headphones, and that your computer's volume is turned on.<p></p>","0","","","","","","","","","","","","","","","","","","","","","","","","","","","","","","","","","","","","","","","","","","",""
"html-button-response","4","35609","0.0-3.0-0.0-1.0","2","1","p3eyzu73f5ya7c8","","2732.89999999851","","<p>The volume calibration will be first.</p><p>You will hear a thirty-second noise. Please adjust your computer's volume so that this noise is being presented at a comfortable level.<p></p>","0","","","","","","","","","","","","","","","","","","","","","","","","","","","","","","","","","","","","","","","","","","",""
"audio-button-response","5","41427","0.0-3.0-0.0-2.0","2","1","p3eyzu73f5ya7c8","","5285","","audCalib/volumetest.mp3","0","","","","","","","","","","","","","","","","","","","","","","","","","","","","","","","","","","","","","","","","","","",""
"html-button-response","6","42680","0.0-3.0-1.0-0.0","2","1","p3eyzu73f5ya7c8","","1252","","<p>You will now complete a short headphone check.</p><p>On each trial, you will hear three tones. One of these tones will be quieter than the others. Your task is to identify whether the quiet tone occured first, second, or third.</p><p>There are six trials in total.<p></p>","0","","","","","","","","","","","","","","","","","","","","","","","","","","","","","","","","","","","","","","","","","","",""
"html-keyboard-response","7","43436","0.0-3.0-1.0-1.0-0.0","2","1","p3eyzu73f5ya7c8","","null","","<div style=""font-size:60px;"">+</div>","","null","","","","","","","","","","","","","","","","","","","","","","","","","","","","","","","","","","","","","","","","","",""
"audio-button-response","8","49342","0.0-3.0-1.0-1.0-1.0","2","1","p3eyzu73f5ya7c8","","5904","","audCalib/t3_1.mp3","2","","2","1","headphone-test","","","","","","","","","","","","","","","","","","","","","","","","","","","","","","","","","","","","","","",""
"html-keyboard-response","9","50098","0.0-3.0-1.0-1.0-0.1","2","1","p3eyzu73f5ya7c8","","null","","<div style=""font-size:60px;"">+</div>","","null","","","","","","","","","","","","","","","","","","","","","","","","","","","","","","","","","","","","","","","","","",""
"audio-button-response","10","54022","0.0-3.0-1.0-1.0-1.1","2","1","p3eyzu73f5ya7c8","","3920","","audCalib/t2_1.mp3","1","","1","1","headphone-test","","","","","","","","","","","","","","","","","","","","","","","","","","","","","","","","","","","","","","",""
"html-keyboard-response","11","54775","0.0-3.0-1.0-1.0-0.2","2","1","p3eyzu73f5ya7c8","","null","","<div style=""font-size:60px;"">+</div>","","null","","","","","","","","","","","","","","","","","","","","","","","","","","","","","","","","","","","","","","","","","",""
"audio-button-response","12","58866","0.0-3.0-1.0-1.0-1.2","2","1","p3eyzu73f5ya7c8","","4085","","audCalib/t1_2.mp3","0","","0","1","headphone-test","","","","","","","","","","","","","","","","","","","","","","","","","","","","","","","","","","","","","","",""
"html-keyboard-response","13","59622","0.0-3.0-1.0-1.0-0.3","2","1","p3eyzu73f5ya7c8","","null","","<div style=""font-size:60px;"">+</div>","","null","","","","","","","","","","","","","","","","","","","","","","","","","","","","","","","","","","","","","","","","","",""
"audio-button-response","14","63813","0.0-3.0-1.0-1.0-1.3","2","1","p3eyzu73f5ya7c8","","4187","","audCalib/t1_1.mp3","0","","0","1","headphone-test","","","","","","","","","","","","","","","","","","","","","","","","","","","","","","","","","","","","","","",""
"html-keyboard-response","15","64567","0.0-3.0-1.0-1.0-0.4","2","1","p3eyzu73f5ya7c8","","null","","<div style=""font-size:60px;"">+</div>","","null","","","","","","","","","","","","","","","","","","","","","","","","","","","","","","","","","","","","","","","","","",""
"audio-button-response","16","69243","0.0-3.0-1.0-1.0-1.4","2","1","p3eyzu73f5ya7c8","","4672","","audCalib/t3_2.mp3","2","","2","1","headphone-test","","","","","","","","","","","","","","","","","","","","","","","","","","","","","","","","","","","","","","",""
"html-keyboard-response","17","69996","0.0-3.0-1.0-1.0-0.5","2","1","p3eyzu73f5ya7c8","","null","","<div style=""font-size:60px;"">+</div>","","null","","","","","","","","","","","","","","","","","","","","","","","","","","","","","","","","","","","","","","","","","",""
"audio-button-response","18","74138","0.0-3.0-1.0-1.0-1.5","2","1","p3eyzu73f5ya7c8","","4139","","audCalib/t2_2.mp3","1","","1","1","headphone-test","","","","","","","","","","","","","","","","","","","","","","","","","","","","","","","","","","","","","","",""
"html-button-response","19","76060","0.0-3.0-2.0","2","1","p3eyzu73f5ya7c8","","1668.0999999977648","","<p>The volume calibration and headphone check are now complete.</p>","0","","","","","","","","","","","","","","","","","","","","","","","","","","","","","","","","","","","","","","","","","","",""
"instructions","20","85985","0.0-4.0-0.0","2","1","p3eyzu73f5ya7c8","[{""page_index"":0,""viewing_time"":1252.6000000014901},{""page_index"":1,""viewing_time"":6497.39999999851},{""page_index"":2,""viewing_time"":2173.199999999255}]","9923.800000000745","","","","","","","","","","","","","","","","","","","","","","","","","","","","","","","","","","","","","","","","","","","","","",""
"audio-keyboard-response","21","86290","0.0-4.0-1.0-0.0","2","1","p3eyzu73f5ya7c8","","null","","sounds/induction/left/ge_SWS.wav","","null","","","","","","","","","","","","","","","","","","","","","","","","","","","","","","","","","","","","","","","","","",""
"html-button-response","22","88148","0.0-4.0-1.0-1.0","2","1","p3eyzu73f5ya7c8","","1856.8999999985099","","What sound did you hear?","1","","","1","INDUCTION-JUDGMENT","left","1","","","","","","","","","","","","","","","","","","","","","","","","","","","","","","","","","","","","",""
"html-keyboard-response","23","89149","0.0-4.0-1.0-2.0","2","1","p3eyzu73f5ya7c8","","null","","<p style=""color:green;""><b>Correct!</b></p>","","null","","","","","","","","","","","","","","","","","","","","","","","","","","","","","","","","","","","","","","","","","",""
"audio-keyboard-response","24","89953","0.0-4.0-1.0-0.1","2","1","p3eyzu73f5ya7c8","","null","","sounds/induction/left/ti_SWS.wav","","null","","","","","","","","","","","","","","","","","","","","","","","","","","","","","","","","","","","","","","","","","",""
"html-button-response","25","91229","0.0-4.0-1.0-1.1","2","1","p3eyzu73f5ya7c8","","1274.300000000745","","What sound did you hear?","0","","","1","INDUCTION-JUDGMENT","left","0","","","","","","","","","","","","","","","","","","","","","","","","","","","","","","","","","","","","",""
"html-keyboard-response","26","92231","0.0-4.0-1.0-2.1","2","1","p3eyzu73f5ya7c8","","null","","<p style=""color:green;""><b>Correct!</b></p>","","null","","","","","","","","","","","","","","","","","","","","","","","","","","","","","","","","","","","","","","","","","",""
"audio-keyboard-response","27","93036","0.0-4.0-1.0-0.2","2","1","p3eyzu73f5ya7c8","","null","","sounds/induction/left/fu_SWS.wav","","null","","","","","","","","","","","","","","","","","","","","","","","","","","","","","","","","","","","","","","","","","",""
"html-button-response","28","94324","0.0-4.0-1.0-1.2","2","1","p3eyzu73f5ya7c8","","1286.7000000029802","","What sound did you hear?","1","","","1","INDUCTION-JUDGMENT","left","1","","","","","","","","","","","","","","","","","","","","","","","","","","","","","","","","","","","","",""
"html-keyboard-response","29","95329","0.0-4.0-1.0-2.2","2","1","p3eyzu73f5ya7c8","","null","","<p style=""color:green;""><b>Correct!</b></p>","","null","","","","","","","","","","","","","","","","","","","","","","","","","","","","","","","","","","","","","","","","","",""
"audio-keyboard-response","30","96135","0.0-4.0-1.0-0.3","2","1","p3eyzu73f5ya7c8","","null","","sounds/induction/left/me_SWS.wav","","null","","","","","","","","","","","","","","","","","","","","","","","","","","","","","","","","","","","","","","","","","",""
"html-button-response","31","98070","0.0-4.0-1.0-1.3","2","1","p3eyzu73f5ya7c8","","1934.0999999977648","","What sound did you hear?","0","","","0","INDUCTION-JUDGMENT","left","1","","","","","","","","","","","","","","","","","","","","","","","","","","","","","","","","","","","","",""
"html-keyboard-response","32","99074","0.0-4.0-1.0-2.3","2","1","p3eyzu73f5ya7c8","","null","","<p style=""color:red;""><b>Incorrect!</b></p>","","null","","","","","","","","","","","","","","","","","","","","","","","","","","","","","","","","","","","","","","","","","",""
"audio-keyboard-response","33","99879","0.0-4.0-1.0-0.4","2","1","p3eyzu73f5ya7c8","","null","","sounds/induction/right/me_SWS.wav","","null","","","","","","","","","","","","","","","","","","","","","","","","","","","","","","","","","","","","","","","","","",""
"html-button-response","34","101605","0.0-4.0-1.0-1.4","2","1","p3eyzu73f5ya7c8","","1725.8999999985099","","What sound did you hear?","1","","","0","INDUCTION-JUDGMENT","right","0","","","","","","","","","","","","","","","","","","","","","","","","","","","","","","","","","","","","",""
"html-keyboard-response","35","102609","0.0-4.0-1.0-2.4","2","1","p3eyzu73f5ya7c8","","null","","<p style=""color:red;""><b>Incorrect!</b></p>","","null","","","","","","","","","","","","","","","","","","","","","","","","","","","","","","","","","","","","","","","","","",""
"audio-keyboard-response","36","103415","0.0-4.0-1.0-0.5","2","1","p3eyzu73f5ya7c8","","null","","sounds/induction/left/su_SWS.wav","","null","","","","","","","","","","","","","","","","","","","","","","","","","","","","","","","","","","","","","","","","","",""
"html-button-response","37","105199","0.0-4.0-1.0-1.5","2","1","p3eyzu73f5ya7c8","","1783.699999999255","","What sound did you hear?","0","","","1","INDUCTION-JUDGMENT","left","0","","","","","","","","","","","","","","","","","","","","","","","","","","","","","","","","","","","","",""
"html-keyboard-response","38","106204","0.0-4.0-1.0-2.5","2","1","p3eyzu73f5ya7c8","","null","","<p style=""color:green;""><b>Correct!</b></p>","","null","","","","","","","","","","","","","","","","","","","","","","","","","","","","","","","","","","","","","","","","","",""
"audio-keyboard-response","39","107009","0.0-4.0-1.0-0.6","2","1","p3eyzu73f5ya7c8","","null","","sounds/induction/right/ta_SWS.wav","","null","","","","","","","","","","","","","","","","","","","","","","","","","","","","","","","","","","","","","","","","","",""
"html-button-response","40","109158","0.0-4.0-1.0-1.6","2","1","p3eyzu73f5ya7c8","","2147.599999997765","","What sound did you hear?","1","","","1","INDUCTION-JUDGMENT","right","1","","","","","","","","","","","","","","","","","","","","","","","","","","","","","","","","","","","","",""
"html-keyboard-response","41","110160","0.0-4.0-1.0-2.6","2","1","p3eyzu73f5ya7c8","","null","","<p style=""color:green;""><b>Correct!</b></p>","","null","","","","","","","","","","","","","","","","","","","","","","","","","","","","","","","","","","","","","","","","","",""
"audio-keyboard-response","42","110967","0.0-4.0-1.0-0.7","2","1","p3eyzu73f5ya7c8","","null","","sounds/induction/right/re_SWS.wav","","null","","","","","","","","","","","","","","","","","","","","","","","","","","","","","","","","","","","","","","","","","",""
"html-button-response","43","112664","0.0-4.0-1.0-1.7","2","1","p3eyzu73f5ya7c8","","1696.4000000022352","","What sound did you hear?","1","","","1","INDUCTION-JUDGMENT","right","1","","","","","","","","","","","","","","","","","","","","","","","","","","","","","","","","","","","","",""
"html-keyboard-response","44","113665","0.0-4.0-1.0-2.7","2","1","p3eyzu73f5ya7c8","","null","","<p style=""color:green;""><b>Correct!</b></p>","","null","","","","","","","","","","","","","","","","","","","","","","","","","","","","","","","","","","","","","","","","","",""
"audio-keyboard-response","45","114470","0.0-4.0-1.0-0.8","2","1","p3eyzu73f5ya7c8","","null","","sounds/induction/left/fu_SWS.wav","","null","","","","","","","","","","","","","","","","","","","","","","","","","","","","","","","","","","","","","","","","","",""
"html-button-response","46","115566","0.0-4.0-1.0-1.8","2","1","p3eyzu73f5ya7c8","","1095.0999999977648","","What sound did you hear?","1","","","1","INDUCTION-JUDGMENT","left","1","","","","","","","","","","","","","","","","","","","","","","","","","","","","","","","","","","","","",""
"html-keyboard-response","47","116572","0.0-4.0-1.0-2.8","2","1","p3eyzu73f5ya7c8","","null","","<p style=""color:green;""><b>Correct!</b></p>","","null","","","","","","","","","","","","","","","","","","","","","","","","","","","","","","","","","","","","","","","","","",""
"audio-keyboard-response","48","117377","0.0-4.0-1.0-0.9","2","1","p3eyzu73f5ya7c8","","null","","sounds/induction/right/ru_SWS.wav","","null","","","","","","","","","","","","","","","","","","","","","","","","","","","","","","","","","","","","","","","","","",""
"html-button-response","49","118293","0.0-4.0-1.0-1.9","2","1","p3eyzu73f5ya7c8","","914.7000000029802","","What sound did you hear?","1","","","1","INDUCTION-JUDGMENT","right","1","","","","","","","","","","","","","","","","","","","","","","","","","","","","","","","","","","","","",""
"html-keyboard-response","50","119297","0.0-4.0-1.0-2.9","2","1","p3eyzu73f5ya7c8","","null","","<p style=""color:green;""><b>Correct!</b></p>","","null","","","","","","","","","","","","","","","","","","","","","","","","","","","","","","","","","","","","","","","","","",""
"audio-keyboard-response","51","120103","0.0-4.0-1.0-0.10","2","1","p3eyzu73f5ya7c8","","null","","sounds/induction/right/su_SWS.wav","","null","","","","","","","","","","","","","","","","","","","","","","","","","","","","","","","","","","","","","","","","","",""
"html-button-response","52","121626","0.0-4.0-1.0-1.10","2","1","p3eyzu73f5ya7c8","","1522","","What sound did you hear?","1","","","1","INDUCTION-JUDGMENT","right","1","","","","","","","","","","","","","","","","","","","","","","","","","","","","","","","","","","","","",""
"html-keyboard-response","53","122630","0.0-4.0-1.0-2.10","2","1","p3eyzu73f5ya7c8","","null","","<p style=""color:green;""><b>Correct!</b></p>","","null","","","","","","","","","","","","","","","","","","","","","","","","","","","","","","","","","","","","","","","","","",""
"audio-keyboard-response","54","123436","0.0-4.0-1.0-0.11","2","1","p3eyzu73f5ya7c8","","null","","sounds/induction/right/pu_SWS.wav","","null","","","","","","","","","","","","","","","","","","","","","","","","","","","","","","","","","","","","","","","","","",""
"html-button-response","55","124785","0.0-4.0-1.0-1.11","2","1","p3eyzu73f5ya7c8","","1348.4000000022352","","What sound did you hear?","1","","","1","INDUCTION-JUDGMENT","right","1","","","","","","","","","","","","","","","","","","","","","","","","","","","","","","","","","","","","",""
"html-keyboard-response","56","125786","0.0-4.0-1.0-2.11","2","1","p3eyzu73f5ya7c8","","null","","<p style=""color:green;""><b>Correct!</b></p>","","null","","","","","","","","","","","","","","","","","","","","","","","","","","","","","","","","","","","","","","","","","",""
"audio-keyboard-response","57","126588","0.0-4.0-1.0-0.12","2","1","p3eyzu73f5ya7c8","","null","","sounds/induction/left/ni_SWS.wav","","null","","","","","","","","","","","","","","","","","","","","","","","","","","","","","","","","","","","","","","","","","",""
"html-button-response","58","128556","0.0-4.0-1.0-1.12","2","1","p3eyzu73f5ya7c8","","1967.1000000014901","","What sound did you hear?","1","","","1","INDUCTION-JUDGMENT","left","1","","","","","","","","","","","","","","","","","","","","","","","","","","","","","","","","","","","","",""
"html-keyboard-response","59","129559","0.0-4.0-1.0-2.12","2","1","p3eyzu73f5ya7c8","","null","","<p style=""color:green;""><b>Correct!</b></p>","","null","","","","","","","","","","","","","","","","","","","","","","","","","","","","","","","","","","","","","","","","","",""
"audio-keyboard-response","60","130364","0.0-4.0-1.0-0.13","2","1","p3eyzu73f5ya7c8","","null","","sounds/induction/left/ni_SWS.wav","","null","","","","","","","","","","","","","","","","","","","","","","","","","","","","","","","","","","","","","","","","","",""
"html-button-response","61","131363","0.0-4.0-1.0-1.13","2","1","p3eyzu73f5ya7c8","","998.2000000029802","","What sound did you hear?","1","","","1","INDUCTION-JUDGMENT","left","1","","","","","","","","","","","","","","","","","","","","","","","","","","","","","","","","","","","","",""
"html-keyboard-response","62","132367","0.0-4.0-1.0-2.13","2","1","p3eyzu73f5ya7c8","","null","","<p style=""color:green;""><b>Correct!</b></p>","","null","","","","","","","","","","","","","","","","","","","","","","","","","","","","","","","","","","","","","","","","","",""
"audio-keyboard-response","63","133174","0.0-4.0-1.0-0.14","2","1","p3eyzu73f5ya7c8","","null","","sounds/induction/left/fe_SWS.wav","","null","","","","","","","","","","","","","","","","","","","","","","","","","","","","","","","","","","","","","","","","","",""
"html-button-response","64","134508","0.0-4.0-1.0-1.14","2","1","p3eyzu73f5ya7c8","","1332","","What sound did you hear?","1","","","1","INDUCTION-JUDGMENT","left","1","","","","","","","","","","","","","","","","","","","","","","","","","","","","","","","","","","","","",""
"html-keyboard-response","65","135510","0.0-4.0-1.0-2.14","2","1","p3eyzu73f5ya7c8","","null","","<p style=""color:green;""><b>Correct!</b></p>","","null","","","","","","","","","","","","","","","","","","","","","","","","","","","","","","","","","","","","","","","","","",""
"audio-keyboard-response","66","136316","0.0-4.0-1.0-0.15","2","1","p3eyzu73f5ya7c8","","null","","sounds/induction/left/ko_SWS.wav","","null","","","","","","","","","","","","","","","","","","","","","","","","","","","","","","","","","","","","","","","","","",""
"html-button-response","67","137264","0.0-4.0-1.0-1.15","2","1","p3eyzu73f5ya7c8","","947.5999999977648","","What sound did you hear?","1","","","1","INDUCTION-JUDGMENT","left","1","","","","","","","","","","","","","","","","","","","","","","","","","","","","","","","","","","","","",""
"html-keyboard-response","68","138268","0.0-4.0-1.0-2.15","2","1","p3eyzu73f5ya7c8","","null","","<p style=""color:green;""><b>Correct!</b></p>","","null","","","","","","","","","","","","","","","","","","","","","","","","","","","","","","","","","","","","","","","","","",""
"audio-keyboard-response","69","139073","0.0-4.0-1.0-0.16","2","1","p3eyzu73f5ya7c8","","null","","sounds/induction/left/su_SWS.wav","","null","","","","","","","","","","","","","","","","","","","","","","","","","","","","","","","","","","","","","","","","","",""
"html-button-response","70","140553","0.0-4.0-1.0-1.16","2","1","p3eyzu73f5ya7c8","","1476.9000000022352","","What sound did you hear?","0","","","1","INDUCTION-JUDGMENT","left","0","","","","","","","","","","","","","","","","","","","","","","","","","","","","","","","","","","","","",""
"html-keyboard-response","71","141555","0.0-4.0-1.0-2.16","2","1","p3eyzu73f5ya7c8","","null","","<p style=""color:green;""><b>Correct!</b></p>","","null","","","","","","","","","","","","","","","","","","","","","","","","","","","","","","","","","","","","","","","","","",""
"audio-keyboard-response","72","142358","0.0-4.0-1.0-0.17","2","1","p3eyzu73f5ya7c8","","null","","sounds/induction/left/ti_SWS.wav","","null","","","","","","","","","","","","","","","","","","","","","","","","","","","","","","","","","","","","","","","","","",""
"html-button-response","73","143884","0.0-4.0-1.0-1.17","2","1","p3eyzu73f5ya7c8","","1524","","What sound did you hear?","0","","","1","INDUCTION-JUDGMENT","left","0","","","","","","","","","","","","","","","","","","","","","","","","","","","","","","","","","","","","",""
"html-keyboard-response","74","144889","0.0-4.0-1.0-2.17","2","1","p3eyzu73f5ya7c8","","null","","<p style=""color:green;""><b>Correct!</b></p>","","null","","","","","","","","","","","","","","","","","","","","","","","","","","","","","","","","","","","","","","","","","",""
"audio-keyboard-response","75","145692","0.0-4.0-1.0-0.18","2","1","p3eyzu73f5ya7c8","","null","","sounds/induction/right/fe_SWS.wav","","null","","","","","","","","","","","","","","","","","","","","","","","","","","","","","","","","","","","","","","","","","",""
"html-button-response","76","146994","0.0-4.0-1.0-1.18","2","1","p3eyzu73f5ya7c8","","1301.5999999977648","","What sound did you hear?","0","","","1","INDUCTION-JUDGMENT","right","0","","","","","","","","","","","","","","","","","","","","","","","","","","","","","","","","","","","","",""
"html-keyboard-response","77","148000","0.0-4.0-1.0-2.18","2","1","p3eyzu73f5ya7c8","","null","","<p style=""color:green;""><b>Correct!</b></p>","","null","","","","","","","","","","","","","","","","","","","","","","","","","","","","","","","","","","","","","","","","","",""
"audio-keyboard-response","78","148806","0.0-4.0-1.0-0.19","2","1","p3eyzu73f5ya7c8","","null","","sounds/induction/left/ru_SWS.wav","","null","","","","","","","","","","","","","","","","","","","","","","","","","","","","","","","","","","","","","","","","","",""
"html-button-response","79","149641","0.0-4.0-1.0-1.19","2","1","p3eyzu73f5ya7c8","","833.6000000014901","","What sound did you hear?","0","","","1","INDUCTION-JUDGMENT","left","0","","","","","","","","","","","","","","","","","","","","","","","","","","","","","","","","","","","","",""
"html-keyboard-response","80","150646","0.0-4.0-1.0-2.19","2","1","p3eyzu73f5ya7c8","","null","","<p style=""color:green;""><b>Correct!</b></p>","","null","","","","","","","","","","","","","","","","","","","","","","","","","","","","","","","","","","","","","","","","","",""
"audio-keyboard-response","81","151446","0.0-4.0-1.0-0.20","2","1","p3eyzu73f5ya7c8","","null","","sounds/induction/left/pu_SWS.wav","","null","","","","","","","","","","","","","","","","","","","","","","","","","","","","","","","","","","","","","","","","","",""
"html-button-response","82","152809","0.0-4.0-1.0-1.20","2","1","p3eyzu73f5ya7c8","","1361.800000000745","","What sound did you hear?","0","","","1","INDUCTION-JUDGMENT","left","0","","","","","","","","","","","","","","","","","","","","","","","","","","","","","","","","","","","","",""
"html-keyboard-response","83","153812","0.0-4.0-1.0-2.20","2","1","p3eyzu73f5ya7c8","","null","","<p style=""color:green;""><b>Correct!</b></p>","","null","","","","","","","","","","","","","","","","","","","","","","","","","","","","","","","","","","","","","","","","","",""
"audio-keyboard-response","84","154620","0.0-4.0-1.0-0.21","2","1","p3eyzu73f5ya7c8","","null","","sounds/induction/left/re_SWS.wav","","null","","","","","","","","","","","","","","","","","","","","","","","","","","","","","","","","","","","","","","","","","",""
"html-button-response","85","155544","0.0-4.0-1.0-1.21","2","1","p3eyzu73f5ya7c8","","923.8999999985099","","What sound did you hear?","0","","","1","INDUCTION-JUDGMENT","left","0","","","","","","","","","","","","","","","","","","","","","","","","","","","","","","","","","","","","",""
"html-keyboard-response","86","156545","0.0-4.0-1.0-2.21","2","1","p3eyzu73f5ya7c8","","null","","<p style=""color:green;""><b>Correct!</b></p>","","null","","","","","","","","","","","","","","","","","","","","","","","","","","","","","","","","","","","","","","","","","",""
"audio-keyboard-response","87","157350","0.0-4.0-1.0-0.22","2","1","p3eyzu73f5ya7c8","","null","","sounds/induction/left/ko_SWS.wav","","null","","","","","","","","","","","","","","","","","","","","","","","","","","","","","","","","","","","","","","","","","",""
"html-button-response","88","158646","0.0-4.0-1.0-1.22","2","1","p3eyzu73f5ya7c8","","1294.5999999977648","","What sound did you hear?","1","","","1","INDUCTION-JUDGMENT","left","1","","","","","","","","","","","","","","","","","","","","","","","","","","","","","","","","","","","","",""
"html-keyboard-response","89","159647","0.0-4.0-1.0-2.22","2","1","p3eyzu73f5ya7c8","","null","","<p style=""color:green;""><b>Correct!</b></p>","","null","","","","","","","","","","","","","","","","","","","","","","","","","","","","","","","","","","","","","","","","","",""
"audio-keyboard-response","90","160454","0.0-4.0-1.0-0.23","2","1","p3eyzu73f5ya7c8","","null","","sounds/induction/right/ko_SWS.wav","","null","","","","","","","","","","","","","","","","","","","","","","","","","","","","","","","","","","","","","","","","","",""
"html-button-response","91","161824","0.0-4.0-1.0-1.23","2","1","p3eyzu73f5ya7c8","","1369.199999999255","","What sound did you hear?","0","","","1","INDUCTION-JUDGMENT","right","0","","","","","","","","","","","","","","","","","","","","","","","","","","","","","","","","","","","","",""
"html-keyboard-response","92","162828","0.0-4.0-1.0-2.23","2","1","p3eyzu73f5ya7c8","","null","","<p style=""color:green;""><b>Correct!</b></p>","","null","","","","","","","","","","","","","","","","","","","","","","","","","","","","","","","","","","","","","","","","","",""
"audio-keyboard-response","93","163633","0.0-4.0-1.0-0.24","2","1","p3eyzu73f5ya7c8","","null","","sounds/induction/right/ge_SWS.wav","","null","","","","","","","","","","","","","","","","","","","","","","","","","","","","","","","","","","","","","","","","","",""
"html-button-response","94","164809","0.0-4.0-1.0-1.24","2","1","p3eyzu73f5ya7c8","","1175.199999999255","","What sound did you hear?","0","","","1","INDUCTION-JUDGMENT","right","0","","","","","","","","","","","","","","","","","","","","","","","","","","","","","","","","","","","","",""
"html-keyboard-response","95","165813","0.0-4.0-1.0-2.24","2","1","p3eyzu73f5ya7c8","","null","","<p style=""color:green;""><b>Correct!</b></p>","","null","","","","","","","","","","","","","","","","","","","","","","","","","","","","","","","","","","","","","","","","","",""
"audio-keyboard-response","96","166619","0.0-4.0-1.0-0.25","2","1","p3eyzu73f5ya7c8","","null","","sounds/induction/right/su_SWS.wav","","null","","","","","","","","","","","","","","","","","","","","","","","","","","","","","","","","","","","","","","","","","",""
"html-button-response","97","167753","0.0-4.0-1.0-1.25","2","1","p3eyzu73f5ya7c8","","1132.3999999985099","","What sound did you hear?","1","","","1","INDUCTION-JUDGMENT","right","1","","","","","","","","","","","","","","","","","","","","","","","","","","","","","","","","","","","","",""
"html-keyboard-response","98","168758","0.0-4.0-1.0-2.25","2","1","p3eyzu73f5ya7c8","","null","","<p style=""color:green;""><b>Correct!</b></p>","","null","","","","","","","","","","","","","","","","","","","","","","","","","","","","","","","","","","","","","","","","","",""
"audio-keyboard-response","99","169564","0.0-4.0-1.0-0.26","2","1","p3eyzu73f5ya7c8","","null","","sounds/induction/right/me_SWS.wav","","null","","","","","","","","","","","","","","","","","","","","","","","","","","","","","","","","","","","","","","","","","",""
"html-button-response","100","170695","0.0-4.0-1.0-1.26","2","1","p3eyzu73f5ya7c8","","1130.699999999255","","What sound did you hear?","1","","","0","INDUCTION-JUDGMENT","right","0","","","","","","","","","","","","","","","","","","","","","","","","","","","","","","","","","","","","",""
"html-keyboard-response","101","171697","0.0-4.0-1.0-2.26","2","1","p3eyzu73f5ya7c8","","null","","<p style=""color:red;""><b>Incorrect!</b></p>","","null","","","","","","","","","","","","","","","","","","","","","","","","","","","","","","","","","","","","","","","","","",""
"audio-keyboard-response","102","172502","0.0-4.0-1.0-0.27","2","1","p3eyzu73f5ya7c8","","null","","sounds/induction/right/re_SWS.wav","","null","","","","","","","","","","","","","","","","","","","","","","","","","","","","","","","","","","","","","","","","","",""
"html-button-response","103","173364","0.0-4.0-1.0-1.27","2","1","p3eyzu73f5ya7c8","","861.1999999992549","","What sound did you hear?","1","","","1","INDUCTION-JUDGMENT","right","1","","","","","","","","","","","","","","","","","","","","","","","","","","","","","","","","","","","","",""
"html-keyboard-response","104","174368","0.0-4.0-1.0-2.27","2","1","p3eyzu73f5ya7c8","","null","","<p style=""color:green;""><b>Correct!</b></p>","","null","","","","","","","","","","","","","","","","","","","","","","","","","","","","","","","","","","","","","","","","","",""
"audio-keyboard-response","105","175169","0.0-4.0-1.0-0.28","2","1","p3eyzu73f5ya7c8","","null","","sounds/induction/left/ge_SWS.wav","","null","","","","","","","","","","","","","","","","","","","","","","","","","","","","","","","","","","","","","","","","","",""
"html-button-response","106","176956","0.0-4.0-1.0-1.28","2","1","p3eyzu73f5ya7c8","","1786.300000000745","","What sound did you hear?","1","","","1","INDUCTION-JUDGMENT","left","1","","","","","","","","","","","","","","","","","","","","","","","","","","","","","","","","","","","","",""
"html-keyboard-response","107","177958","0.0-4.0-1.0-2.28","2","1","p3eyzu73f5ya7c8","","null","","<p style=""color:green;""><b>Correct!</b></p>","","null","","","","","","","","","","","","","","","","","","","","","","","","","","","","","","","","","","","","","","","","","",""
"audio-keyboard-response","108","178763","0.0-4.0-1.0-0.29","2","1","p3eyzu73f5ya7c8","","null","","sounds/induction/right/ge_SWS.wav","","null","","","","","","","","","","","","","","","","","","","","","","","","","","","","","","","","","","","","","","","","","",""
"html-button-response","109","180229","0.0-4.0-1.0-1.29","2","1","p3eyzu73f5ya7c8","","1464.300000000745","","What sound did you hear?","0","","","1","INDUCTION-JUDGMENT","right","0","","","","","","","","","","","","","","","","","","","","","","","","","","","","","","","","","","","","",""
"html-keyboard-response","110","181233","0.0-4.0-1.0-2.29","2","1","p3eyzu73f5ya7c8","","null","","<p style=""color:green;""><b>Correct!</b></p>","","null","","","","","","","","","","","","","","","","","","","","","","","","","","","","","","","","","","","","","","","","","",""
"audio-keyboard-response","111","182038","0.0-4.0-1.0-0.30","2","1","p3eyzu73f5ya7c8","","null","","sounds/induction/right/ti_SWS.wav","","null","","","","","","","","","","","","","","","","","","","","","","","","","","","","","","","","","","","","","","","","","",""
"html-button-response","112","183830","0.0-4.0-1.0-1.30","2","1","p3eyzu73f5ya7c8","","1790.8999999985099","","What sound did you hear?","1","","","1","INDUCTION-JUDGMENT","right","1","","","","","","","","","","","","","","","","","","","","","","","","","","","","","","","","","","","","",""
"html-keyboard-response","113","184836","0.0-4.0-1.0-2.30","2","1","p3eyzu73f5ya7c8","","null","","<p style=""color:green;""><b>Correct!</b></p>","","null","","","","","","","","","","","","","","","","","","","","","","","","","","","","","","","","","","","","","","","","","",""
"audio-keyboard-response","114","185643","0.0-4.0-1.0-0.31","2","1","p3eyzu73f5ya7c8","","null","","sounds/induction/left/ta_SWS.wav","","null","","","","","","","","","","","","","","","","","","","","","","","","","","","","","","","","","","","","","","","","","",""
"html-button-response","115","186846","0.0-4.0-1.0-1.31","2","1","p3eyzu73f5ya7c8","","1202.300000000745","","What sound did you hear?","0","","","1","INDUCTION-JUDGMENT","left","0","","","","","","","","","","","","","","","","","","","","","","","","","","","","","","","","","","","","",""
"html-keyboard-response","116","187849","0.0-4.0-1.0-2.31","2","1","p3eyzu73f5ya7c8","","null","","<p style=""color:green;""><b>Correct!</b></p>","","null","","","","","","","","","","","","","","","","","","","","","","","","","","","","","","","","","","","","","","","","","",""
"audio-keyboard-response","117","188657","0.0-4.0-1.0-0.32","2","1","p3eyzu73f5ya7c8","","null","","sounds/induction/left/re_SWS.wav","","null","","","","","","","","","","","","","","","","","","","","","","","","","","","","","","","","","","","","","","","","","",""
"html-button-response","118","190249","0.0-4.0-1.0-1.32","2","1","p3eyzu73f5ya7c8","","1591.300000000745","","What sound did you hear?","0","","","1","INDUCTION-JUDGMENT","left","0","","","","","","","","","","","","","","","","","","","","","","","","","","","","","","","","","","","","",""
"html-keyboard-response","119","191250","0.0-4.0-1.0-2.32","2","1","p3eyzu73f5ya7c8","","null","","<p style=""color:green;""><b>Correct!</b></p>","","null","","","","","","","","","","","","","","","","","","","","","","","","","","","","","","","","","","","","","","","","","",""
"audio-keyboard-response","120","192054","0.0-4.0-1.0-0.33","2","1","p3eyzu73f5ya7c8","","null","","sounds/induction/right/fe_SWS.wav","","null","","","","","","","","","","","","","","","","","","","","","","","","","","","","","","","","","","","","","","","","","",""
"html-button-response","121","193310","0.0-4.0-1.0-1.33","2","1","p3eyzu73f5ya7c8","","1255.6000000014901","","What sound did you hear?","0","","","1","INDUCTION-JUDGMENT","right","0","","","","","","","","","","","","","","","","","","","","","","","","","","","","","","","","","","","","",""
"html-keyboard-response","122","194314","0.0-4.0-1.0-2.33","2","1","p3eyzu73f5ya7c8","","null","","<p style=""color:green;""><b>Correct!</b></p>","","null","","","","","","","","","","","","","","","","","","","","","","","","","","","","","","","","","","","","","","","","","",""
"audio-keyboard-response","123","195121","0.0-4.0-1.0-0.34","2","1","p3eyzu73f5ya7c8","","null","","sounds/induction/left/ta_SWS.wav","","null","","","","","","","","","","","","","","","","","","","","","","","","","","","","","","","","","","","","","","","","","",""
"html-button-response","124","196052","0.0-4.0-1.0-1.34","2","1","p3eyzu73f5ya7c8","","930.5999999977648","","What sound did you hear?","0","","","1","INDUCTION-JUDGMENT","left","0","","","","","","","","","","","","","","","","","","","","","","","","","","","","","","","","","","","","",""
"html-keyboard-response","125","197057","0.0-4.0-1.0-2.34","2","1","p3eyzu73f5ya7c8","","null","","<p style=""color:green;""><b>Correct!</b></p>","","null","","","","","","","","","","","","","","","","","","","","","","","","","","","","","","","","","","","","","","","","","",""
"audio-keyboard-response","126","197856","0.0-4.0-1.0-0.35","2","1","p3eyzu73f5ya7c8","","null","","sounds/induction/right/ni_SWS.wav","","null","","","","","","","","","","","","","","","","","","","","","","","","","","","","","","","","","","","","","","","","","",""
"html-button-response","127","199559","0.0-4.0-1.0-1.35","2","1","p3eyzu73f5ya7c8","","1701.5","","What sound did you hear?","0","","","1","INDUCTION-JUDGMENT","right","0","","","","","","","","","","","","","","","","","","","","","","","","","","","","","","","","","","","","",""
"html-keyboard-response","128","200561","0.0-4.0-1.0-2.35","2","1","p3eyzu73f5ya7c8","","null","","<p style=""color:green;""><b>Correct!</b></p>","","null","","","","","","","","","","","","","","","","","","","","","","","","","","","","","","","","","","","","","","","","","",""
"audio-keyboard-response","129","201366","0.0-4.0-1.0-0.36","2","1","p3eyzu73f5ya7c8","","null","","sounds/induction/right/ru_SWS.wav","","null","","","","","","","","","","","","","","","","","","","","","","","","","","","","","","","","","","","","","","","","","",""
"html-button-response","130","202670","0.0-4.0-1.0-1.36","2","1","p3eyzu73f5ya7c8","","1303.1000000014901","","What sound did you hear?","1","","","1","INDUCTION-JUDGMENT","right","1","","","","","","","","","","","","","","","","","","","","","","","","","","","","","","","","","","","","",""
"html-keyboard-response","131","203675","0.0-4.0-1.0-2.36","2","1","p3eyzu73f5ya7c8","","null","","<p style=""color:green;""><b>Correct!</b></p>","","null","","","","","","","","","","","","","","","","","","","","","","","","","","","","","","","","","","","","","","","","","",""
"audio-keyboard-response","132","204481","0.0-4.0-1.0-0.37","2","1","p3eyzu73f5ya7c8","","null","","sounds/induction/right/fu_SWS.wav","","null","","","","","","","","","","","","","","","","","","","","","","","","","","","","","","","","","","","","","","","","","",""
"html-button-response","133","205405","0.0-4.0-1.0-1.37","2","1","p3eyzu73f5ya7c8","","923.1999999992549","","What sound did you hear?","1","","","0","INDUCTION-JUDGMENT","right","0","","","","","","","","","","","","","","","","","","","","","","","","","","","","","","","","","","","","",""
"html-keyboard-response","134","206408","0.0-4.0-1.0-2.37","2","1","p3eyzu73f5ya7c8","","null","","<p style=""color:red;""><b>Incorrect!</b></p>","","null","","","","","","","","","","","","","","","","","","","","","","","","","","","","","","","","","","","","","","","","","",""
"audio-keyboard-response","135","207217","0.0-4.0-1.0-0.38","2","1","p3eyzu73f5ya7c8","","null","","sounds/induction/right/pu_SWS.wav","","null","","","","","","","","","","","","","","","","","","","","","","","","","","","","","","","","","","","","","","","","","",""
"html-button-response","136","209326","0.0-4.0-1.0-1.38","2","1","p3eyzu73f5ya7c8","","2108.099999997765","","What sound did you hear?","1","","","1","INDUCTION-JUDGMENT","right","1","","","","","","","","","","","","","","","","","","","","","","","","","","","","","","","","","","","","",""
"html-keyboard-response","137","210329","0.0-4.0-1.0-2.38","2","1","p3eyzu73f5ya7c8","","null","","<p style=""color:green;""><b>Correct!</b></p>","","null","","","","","","","","","","","","","","","","","","","","","","","","","","","","","","","","","","","","","","","","","",""
"audio-keyboard-response","138","211131","0.0-4.0-1.0-0.39","2","1","p3eyzu73f5ya7c8","","null","","sounds/induction/right/ko_SWS.wav","","null","","","","","","","","","","","","","","","","","","","","","","","","","","","","","","","","","","","","","","","","","",""
"html-button-response","139","212388","0.0-4.0-1.0-1.39","2","1","p3eyzu73f5ya7c8","","1256.199999999255","","What sound did you hear?","0","","","1","INDUCTION-JUDGMENT","right","0","","","","","","","","","","","","","","","","","","","","","","","","","","","","","","","","","","","","",""
"html-keyboard-response","140","213392","0.0-4.0-1.0-2.39","2","1","p3eyzu73f5ya7c8","","null","","<p style=""color:green;""><b>Correct!</b></p>","","null","","","","","","","","","","","","","","","","","","","","","","","","","","","","","","","","","","","","","","","","","",""
"audio-keyboard-response","141","214192","0.0-4.0-1.0-0.40","2","1","p3eyzu73f5ya7c8","","null","","sounds/induction/right/ni_SWS.wav","","null","","","","","","","","","","","","","","","","","","","","","","","","","","","","","","","","","","","","","","","","","",""
"html-button-response","142","215331","0.0-4.0-1.0-1.40","2","1","p3eyzu73f5ya7c8","","1137.699999999255","","What sound did you hear?","0","","","1","INDUCTION-JUDGMENT","right","0","","","","","","","","","","","","","","","","","","","","","","","","","","","","","","","","","","","","",""
"html-keyboard-response","143","216333","0.0-4.0-1.0-2.40","2","1","p3eyzu73f5ya7c8","","null","","<p style=""color:green;""><b>Correct!</b></p>","","null","","","","","","","","","","","","","","","","","","","","","","","","","","","","","","","","","","","","","","","","","",""
"audio-keyboard-response","144","217142","0.0-4.0-1.0-0.41","2","1","p3eyzu73f5ya7c8","","null","","sounds/induction/right/fu_SWS.wav","","null","","","","","","","","","","","","","","","","","","","","","","","","","","","","","","","","","","","","","","","","","",""
"html-button-response","145","220203","0.0-4.0-1.0-1.41","2","1","p3eyzu73f5ya7c8","","3060.39999999851","","What sound did you hear?","0","","","1","INDUCTION-JUDGMENT","right","0","","","","","","","","","","","","","","","","","","","","","","","","","","","","","","","","","","","","",""
"html-keyboard-response","146","221206","0.0-4.0-1.0-2.41","2","1","p3eyzu73f5ya7c8","","null","","<p style=""color:green;""><b>Correct!</b></p>","","null","","","","","","","","","","","","","","","","","","","","","","","","","","","","","","","","","","","","","","","","","",""
"audio-keyboard-response","147","222011","0.0-4.0-1.0-0.42","2","1","p3eyzu73f5ya7c8","","null","","sounds/induction/left/pu_SWS.wav","","null","","","","","","","","","","","","","","","","","","","","","","","","","","","","","","","","","","","","","","","","","",""
"html-button-response","148","222915","0.0-4.0-1.0-1.42","2","1","p3eyzu73f5ya7c8","","902.8000000007451","","What sound did you hear?","0","","","1","INDUCTION-JUDGMENT","left","0","","","","","","","","","","","","","","","","","","","","","","","","","","","","","","","","","","","","",""
"html-keyboard-response","149","223921","0.0-4.0-1.0-2.42","2","1","p3eyzu73f5ya7c8","","null","","<p style=""color:green;""><b>Correct!</b></p>","","null","","","","","","","","","","","","","","","","","","","","","","","","","","","","","","","","","","","","","","","","","",""
"audio-keyboard-response","150","224726","0.0-4.0-1.0-0.43","2","1","p3eyzu73f5ya7c8","","null","","sounds/induction/left/fe_SWS.wav","","null","","","","","","","","","","","","","","","","","","","","","","","","","","","","","","","","","","","","","","","","","",""
"html-button-response","151","225986","0.0-4.0-1.0-1.43","2","1","p3eyzu73f5ya7c8","","1259.6000000014901","","What sound did you hear?","1","","","1","INDUCTION-JUDGMENT","left","1","","","","","","","","","","","","","","","","","","","","","","","","","","","","","","","","","","","","",""
"html-keyboard-response","152","226993","0.0-4.0-1.0-2.43","2","1","p3eyzu73f5ya7c8","","null","","<p style=""color:green;""><b>Correct!</b></p>","","null","","","","","","","","","","","","","","","","","","","","","","","","","","","","","","","","","","","","","","","","","",""
"audio-keyboard-response","153","227798","0.0-4.0-1.0-0.44","2","1","p3eyzu73f5ya7c8","","null","","sounds/induction/right/ti_SWS.wav","","null","","","","","","","","","","","","","","","","","","","","","","","","","","","","","","","","","","","","","","","","","",""
"html-button-response","154","228850","0.0-4.0-1.0-1.44","2","1","p3eyzu73f5ya7c8","","1051.699999999255","","What sound did you hear?","1","","","1","INDUCTION-JUDGMENT","right","1","","","","","","","","","","","","","","","","","","","","","","","","","","","","","","","","","","","","",""
"html-keyboard-response","155","229851","0.0-4.0-1.0-2.44","2","1","p3eyzu73f5ya7c8","","null","","<p style=""color:green;""><b>Correct!</b></p>","","null","","","","","","","","","","","","","","","","","","","","","","","","","","","","","","","","","","","","","","","","","",""
"audio-keyboard-response","156","230656","0.0-4.0-1.0-0.45","2","1","p3eyzu73f5ya7c8","","null","","sounds/induction/left/me_SWS.wav","","null","","","","","","","","","","","","","","","","","","","","","","","","","","","","","","","","","","","","","","","","","",""
"html-button-response","157","232051","0.0-4.0-1.0-1.45","2","1","p3eyzu73f5ya7c8","","1394","","What sound did you hear?","1","","","1","INDUCTION-JUDGMENT","left","1","","","","","","","","","","","","","","","","","","","","","","","","","","","","","","","","","","","","",""
"html-keyboard-response","158","233056","0.0-4.0-1.0-2.45","2","1","p3eyzu73f5ya7c8","","null","","<p style=""color:green;""><b>Correct!</b></p>","","null","","","","","","","","","","","","","","","","","","","","","","","","","","","","","","","","","","","","","","","","","",""
"audio-keyboard-response","159","233862","0.0-4.0-1.0-0.46","2","1","p3eyzu73f5ya7c8","","null","","sounds/induction/right/ta_SWS.wav","","null","","","","","","","","","","","","","","","","","","","","","","","","","","","","","","","","","","","","","","","","","",""
"html-button-response","160","234787","0.0-4.0-1.0-1.46","2","1","p3eyzu73f5ya7c8","","924.5","","What sound did you hear?","1","","","1","INDUCTION-JUDGMENT","right","1","","","","","","","","","","","","","","","","","","","","","","","","","","","","","","","","","","","","",""
"html-keyboard-response","161","235792","0.0-4.0-1.0-2.46","2","1","p3eyzu73f5ya7c8","","null","","<p style=""color:green;""><b>Correct!</b></p>","","null","","","","","","","","","","","","","","","","","","","","","","","","","","","","","","","","","","","","","","","","","",""
"audio-keyboard-response","162","236598","0.0-4.0-1.0-0.47","2","1","p3eyzu73f5ya7c8","","null","","sounds/induction/left/ru_SWS.wav","","null","","","","","","","","","","","","","","","","","","","","","","","","","","","","","","","","","","","","","","","","","",""
"html-button-response","163","237842","0.0-4.0-1.0-1.47","2","1","p3eyzu73f5ya7c8","","1243.300000000745","","What sound did you hear?","0","","","1","INDUCTION-JUDGMENT","left","0","","","","","","","","","","","","","","","","","","","","","","","","","","","","","","","","","","","","",""
"html-keyboard-response","164","238843","0.0-4.0-1.0-2.47","2","1","p3eyzu73f5ya7c8","","null","","<p style=""color:green;""><b>Correct!</b></p>","","null","","","","","","","","","","","","","","","","","","","","","","","","","","","","","","","","","","","","","","","","","",""
"html-button-response","165","248025","0.0-5.0-0.0","2","1","p3eyzu73f5ya7c8","","8680.5","","<p>Thank you for your answers.</p><p>You will now listen to similar sounds. The main difference is that the sounds will be longer and will make up complete sentences.</p><p>Please listen carefully to each sentence. After each sentence, you will be asked to type back what you heard to the best of your ability. After you provide your response, you will be given feedback about the correct answer.</p><p>There are 10 sentences in total.","0","","","","","","","","","","","","","","","","","","","","","","","","","","","","","","","","","","","","","","","","","","",""
"audio-keyboard-response","166","250779","0.0-5.0-1.0-0.0","2","1","p3eyzu73f5ya7c8","","null","","sounds/sentences/right/14_08_cfSWS.wav","","null","","","","","","","","","","","","","","","","","","","","","","","","","","","","","","","","","","","","","","","","","",""
"sentence-resp","167","284702","0.0-5.0-1.0-1.0","2","1","p3eyzu73f5ya7c8","","33920","","","","","","","SWS-SENT-RESPONSE","","","{""Q0"":""absolutely no clue... I think the last word was \""man\""""}","Clothes and lodging are free to new men.","clothes,lodging,free,new,men","ABSOLUTELY NO CLUE I THINK THE LAST WORD WAS ""MAN""","0","0","0","0","0","0","0","","","","","","","","","","","","","","","","","","","","","","","","","",""
"html-keyboard-response","168","285959","0.0-5.0-1.0-2.0","2","1","p3eyzu73f5ya7c8","","null","","","","null","","","","","","","","","","","","","","","","","","","","","","","","","","","","","","","","","","","","","","","","","",""
"audio-keyboard-response","169","288460","0.0-5.0-1.0-3.0","2","1","p3eyzu73f5ya7c8","","null","","sounds/sentences/right/14_08_cfSWS.wav","","null","","","","","","","","","","","","","","","","","","","","","","","","","","","","","","","","","","","","","","","","","",""
"html-keyboard-response","170","289462","0.0-5.0-1.0-4.0","2","1","p3eyzu73f5ya7c8","","null","","","","null","","","","","","","","","","","","","","","","","","","","","","","","","","","","","","","","","","","","","","","","","",""
"html-button-response","171","291631","0.0-5.0-1.0-5.0","2","1","p3eyzu73f5ya7c8","","1666","","<p>Press the button below when you are ready to continue.</p>","0","","","","","","","","","","","","","","","","","","","","","","","","","","","","","","","","","","","","","","","","","","",""
"audio-keyboard-response","172","294450","0.0-5.0-1.0-0.1","2","1","p3eyzu73f5ya7c8","","null","","sounds/sentences/left/14_02_cfSWS.wav","","null","","","","","","","","","","","","","","","","","","","","","","","","","","","","","","","","","","","","","","","","","",""
"sentence-resp","173","303785","0.0-5.0-1.0-1.1","2","1","p3eyzu73f5ya7c8","","9334","","","","","","","SWS-SENT-RESPONSE","","","{""Q0"":""""}","He said the same phrase thirty times.","said,same,phrase,thirty,times","","0","0","0","0","0","0","0","","","","","","","","","","","","","","","","","","","","","","","","","",""
"html-keyboard-response","174","305042","0.0-5.0-1.0-2.1","2","1","p3eyzu73f5ya7c8","","null","","","","null","","","","","","","","","","","","","","","","","","","","","","","","","","","","","","","","","","","","","","","","","",""
"audio-keyboard-response","175","307362","0.0-5.0-1.0-3.1","2","1","p3eyzu73f5ya7c8","","null","","sounds/sentences/left/14_02_cfSWS.wav","","null","","","","","","","","","","","","","","","","","","","","","","","","","","","","","","","","","","","","","","","","","",""
"html-keyboard-response","176","308364","0.0-5.0-1.0-4.1","2","1","p3eyzu73f5ya7c8","","null","","","","null","","","","","","","","","","","","","","","","","","","","","","","","","","","","","","","","","","","","","","","","","",""
"html-button-response","177","311811","0.0-5.0-1.0-5.1","2","1","p3eyzu73f5ya7c8","","2944.89999999851","","<p>Press the button below when you are ready to continue.</p>","0","","","","","","","","","","","","","","","","","","","","","","","","","","","","","","","","","","","","","","","","","","",""
"audio-keyboard-response","178","314396","0.0-5.0-1.0-0.2","2","1","p3eyzu73f5ya7c8","","null","","sounds/sentences/left/14_03_cfSWS.wav","","null","","","","","","","","","","","","","","","","","","","","","","","","","","","","","","","","","","","","","","","","","",""
"sentence-resp","179","323071","0.0-5.0-1.0-1.2","2","1","p3eyzu73f5ya7c8","","8673","","","","","","","SWS-SENT-RESPONSE","","","{""Q0"":""I want to go watch the football game""}","Pluck the bright rose without leaves.","pluck,bright,rose,without,leaves","I WANT TO GO WATCH THE FOOTBALL GAME","0","0","0","0","0","0","0","","","","","","","","","","","","","","","","","","","","","","","","","",""
"html-keyboard-response","180","324327","0.0-5.0-1.0-2.2","2","1","p3eyzu73f5ya7c8","","null","","","","null","","","","","","","","","","","","","","","","","","","","","","","","","","","","","","","","","","","","","","","","","",""
"audio-keyboard-response","181","326412","0.0-5.0-1.0-3.2","2","1","p3eyzu73f5ya7c8","","null","","sounds/sentences/left/14_03_cfSWS.wav","","null","","","","","","","","","","","","","","","","","","","","","","","","","","","","","","","","","","","","","","","","","",""
"html-keyboard-response","182","327415","0.0-5.0-1.0-4.2","2","1","p3eyzu73f5ya7c8","","null","","","","null","","","","","","","","","","","","","","","","","","","","","","","","","","","","","","","","","","","","","","","","","",""
"html-button-response","183","331077","0.0-5.0-1.0-5.2","2","1","p3eyzu73f5ya7c8","","3156","","<p>Press the button below when you are ready to continue.</p>","0","","","","","","","","","","","","","","","","","","","","","","","","","","","","","","","","","","","","","","","","","","",""
"audio-keyboard-response","184","333964","0.0-5.0-1.0-0.3","2","1","p3eyzu73f5ya7c8","","null","","sounds/sentences/right/14_07_cfSWS.wav","","null","","","","","","","","","","","","","","","","","","","","","","","","","","","","","","","","","","","","","","","","","",""
"sentence-resp","185","366175","0.0-5.0-1.0-1.3","2","1","p3eyzu73f5ya7c8","","32209","","","","","","","SWS-SENT-RESPONSE","","","{""Q0"":""press the right button when you are complete""}","Write a fond note to the friend you cherish.","write,fond,note,friend,cherish","PRESS THE RIGHT BUTTON WHEN YOU ARE COMPLETE","0","0","0","0","0","0","0","","","","","","","","","","","","","","","","","","","","","","","","","",""
"html-keyboard-response","186","367434","0.0-5.0-1.0-2.3","2","1","p3eyzu73f5ya7c8","","null","","","","null","","","","","","","","","","","","","","","","","","","","","","","","","","","","","","","","","","","","","","","","","",""
"audio-keyboard-response","187","370151","0.0-5.0-1.0-3.3","2","1","p3eyzu73f5ya7c8","","null","","sounds/sentences/right/14_07_cfSWS.wav","","null","","","","","","","","","","","","","","","","","","","","","","","","","","","","","","","","","","","","","","","","","",""
"html-keyboard-response","188","371153","0.0-5.0-1.0-4.3","2","1","p3eyzu73f5ya7c8","","null","","","","null","","","","","","","","","","","","","","","","","","","","","","","","","","","","","","","","","","","","","","","","","",""
"html-button-response","189","373457","0.0-5.0-1.0-5.3","2","1","p3eyzu73f5ya7c8","","1803","","<p>Press the button below when you are ready to continue.</p>","0","","","","","","","","","","","","","","","","","","","","","","","","","","","","","","","","","","","","","","","","","","",""
"audio-keyboard-response","190","376577","0.0-5.0-1.0-0.4","2","1","p3eyzu73f5ya7c8","","null","","sounds/sentences/left/14_01_cfSWS.wav","","null","","","","","","","","","","","","","","","","","","","","","","","","","","","","","","","","","","","","","","","","","",""
"sentence-resp","191","390188","0.0-5.0-1.0-1.4","2","1","p3eyzu73f5ya7c8","","13610","","","","","","","SWS-SENT-RESPONSE","","","{""Q0"":""pick a friend to go to the baseball game with""}","A cramp is no small danger on a swim.","cramp,no,small,danger,swim","PICK A FRIEND TO GO TO THE BASEBALL GAME WITH","0","0","0","0","0","0","0","","","","","","","","","","","","","","","","","","","","","","","","","",""
"html-keyboard-response","192","391446","0.0-5.0-1.0-2.4","2","1","p3eyzu73f5ya7c8","","null","","","","null","","","","","","","","","","","","","","","","","","","","","","","","","","","","","","","","","","","","","","","","","",""
"audio-keyboard-response","193","394060","0.0-5.0-1.0-3.4","2","1","p3eyzu73f5ya7c8","","null","","sounds/sentences/left/14_01_cfSWS.wav","","null","","","","","","","","","","","","","","","","","","","","","","","","","","","","","","","","","","","","","","","","","",""
"html-keyboard-response","194","395063","0.0-5.0-1.0-4.4","2","1","p3eyzu73f5ya7c8","","null","","","","null","","","","","","","","","","","","","","","","","","","","","","","","","","","","","","","","","","","","","","","","","",""
"html-button-response","195","402932","0.0-5.0-1.0-5.4","2","1","p3eyzu73f5ya7c8","","7367","","<p>Press the button below when you are ready to continue.</p>","0","","","","","","","","","","","","","","","","","","","","","","","","","","","","","","","","","","","","","","","","","","",""
"audio-keyboard-response","196","405676","0.0-5.0-1.0-0.5","2","1","p3eyzu73f5ya7c8","","null","","sounds/sentences/right/14_06_cfSWS.wav","","null","","","","","","","","","","","","","","","","","","","","","","","","","","","","","","","","","","","","","","","","","",""
"sentence-resp","197","416323","0.0-5.0-1.0-1.5","2","1","p3eyzu73f5ya7c8","","10645","","","","","","","SWS-SENT-RESPONSE","","","{""Q0"":""Bring your problems to the wise cheif""}","Bring your problems to the wise chief.","bring,your,problems,wise,chief","BRING YOUR PROBLEMS TO THE WISE CHEIF","1","1","1","1","0","4","0.8","","","","","","","","","","","","","","","","","","","","","","","","","",""
"html-keyboard-response","198","417584","0.0-5.0-1.0-2.5","2","1","p3eyzu73f5ya7c8","","null","","","","null","","","","","","","","","","","","","","","","","","","","","","","","","","","","","","","","","","","","","","","","","",""
"audio-keyboard-response","199","419826","0.0-5.0-1.0-3.5","2","1","p3eyzu73f5ya7c8","","null","","sounds/sentences/right/14_06_cfSWS.wav","","null","","","","","","","","","","","","","","","","","","","","","","","","","","","","","","","","","","","","","","","","","",""
"html-keyboard-response","200","420828","0.0-5.0-1.0-4.5","2","1","p3eyzu73f5ya7c8","","null","","","","null","","","","","","","","","","","","","","","","","","","","","","","","","","","","","","","","","","","","","","","","","",""
"html-button-response","201","437249","0.0-5.0-1.0-5.5","2","1","p3eyzu73f5ya7c8","","15919","","<p>Press the button below when you are ready to continue.</p>","0","","","","","","","","","","","","","","","","","","","","","","","","","","","","","","","","","","","","","","","","","","",""
"audio-keyboard-response","202","440268","0.0-5.0-1.0-0.6","2","1","p3eyzu73f5ya7c8","","null","","sounds/sentences/right/14_10_cfSWS.wav","","null","","","","","","","","","","","","","","","","","","","","","","","","","","","","","","","","","","","","","","","","","",""
"sentence-resp","203","465520","0.0-5.0-1.0-1.6","2","1","p3eyzu73f5ya7c8","","25251","","","","","","","SWS-SENT-RESPONSE","","","{""Q0"":""those with a strong mind will make the chase""}","Port is a strong wine with a smoky taste.","port,strong,wine,smoky,taste","THOSE WITH A STRONG MIND WILL MAKE THE CHASE","0","1","0","0","0","1","0.2","","","","","","","","","","","","","","","","","","","","","","","","","",""
"html-keyboard-response","204","466783","0.0-5.0-1.0-2.6","2","1","p3eyzu73f5ya7c8","","null","","","","null","","","","","","","","","","","","","","","","","","","","","","","","","","","","","","","","","","","","","","","","","",""
"audio-keyboard-response","205","469297","0.0-5.0-1.0-3.6","2","1","p3eyzu73f5ya7c8","","null","","sounds/sentences/right/14_10_cfSWS.wav","","null","","","","","","","","","","","","","","","","","","","","","","","","","","","","","","","","","","","","","","","","","",""
"html-keyboard-response","206","470300","0.0-5.0-1.0-4.6","2","1","p3eyzu73f5ya7c8","","null","","","","null","","","","","","","","","","","","","","","","","","","","","","","","","","","","","","","","","","","","","","","","","",""
"html-button-response","207","477189","0.0-5.0-1.0-5.6","2","1","p3eyzu73f5ya7c8","","6385","","<p>Press the button below when you are ready to continue.</p>","0","","","","","","","","","","","","","","","","","","","","","","","","","","","","","","","","","","","","","","","","","","",""
"audio-keyboard-response","208","479745","0.0-5.0-1.0-0.7","2","1","p3eyzu73f5ya7c8","","null","","sounds/sentences/left/14_04_cfSWS.wav","","null","","","","","","","","","","","","","","","","","","","","","","","","","","","","","","","","","","","","","","","","","",""
"sentence-resp","209","514940","0.0-5.0-1.0-1.7","2","1","p3eyzu73f5ya7c8","","35193","","","","","","","SWS-SENT-RESPONSE","","","{""Q0"":""You will find strength when you look within ""}","Two plus seven is less than ten.","two,plus,seven,less,ten","YOU WILL FIND STRENGTH WHEN YOU LOOK WITHIN ","0","0","0","0","0","0","0","","","","","","","","","","","","","","","","","","","","","","","","","",""
"html-keyboard-response","210","516200","0.0-5.0-1.0-2.7","2","1","p3eyzu73f5ya7c8","","null","","","","null","","","","","","","","","","","","","","","","","","","","","","","","","","","","","","","","","","","","","","","","","",""
"audio-keyboard-response","211","518639","0.0-5.0-1.0-3.7","2","1","p3eyzu73f5ya7c8","","null","","sounds/sentences/left/14_04_cfSWS.wav","","null","","","","","","","","","","","","","","","","","","","","","","","","","","","","","","","","","","","","","","","","","",""
"html-keyboard-response","212","519645","0.0-5.0-1.0-4.7","2","1","p3eyzu73f5ya7c8","","null","","","","null","","","","","","","","","","","","","","","","","","","","","","","","","","","","","","","","","","","","","","","","","",""
"html-button-response","213","525909","0.0-5.0-1.0-5.7","2","1","p3eyzu73f5ya7c8","","5761.5","","<p>Press the button below when you are ready to continue.</p>","0","","","","","","","","","","","","","","","","","","","","","","","","","","","","","","","","","","","","","","","","","","",""
"audio-keyboard-response","214","528900","0.0-5.0-1.0-0.8","2","1","p3eyzu73f5ya7c8","","null","","sounds/sentences/left/14_05_cfSWS.wav","","null","","","","","","","","","","","","","","","","","","","","","","","","","","","","","","","","","","","","","","","","","",""
"sentence-resp","215","552615","0.0-5.0-1.0-1.8","2","1","p3eyzu73f5ya7c8","","23713","","","","","","","SWS-SENT-RESPONSE","","","{""Q0"":""deep eyes of the sweet girl""}","The glow deepened in the eyes of the sweet girl.","glow,deepened,eyes,sweet,girl","DEEP EYES OF THE SWEET GIRL","0","0","1","1","1","3","0.6","","","","","","","","","","","","","","","","","","","","","","","","","",""
"html-keyboard-response","216","553874","0.0-5.0-1.0-2.8","2","1","p3eyzu73f5ya7c8","","null","","","","null","","","","","","","","","","","","","","","","","","","","","","","","","","","","","","","","","","","","","","","","","",""
"audio-keyboard-response","217","556362","0.0-5.0-1.0-3.8","2","1","p3eyzu73f5ya7c8","","null","","sounds/sentences/left/14_05_cfSWS.wav","","null","","","","","","","","","","","","","","","","","","","","","","","","","","","","","","","","","","","","","","","","","",""
"html-keyboard-response","218","557364","0.0-5.0-1.0-4.8","2","1","p3eyzu73f5ya7c8","","null","","","","null","","","","","","","","","","","","","","","","","","","","","","","","","","","","","","","","","","","","","","","","","",""
"html-button-response","219","562086","0.0-5.0-1.0-5.8","2","1","p3eyzu73f5ya7c8","","4220.10000000149","","<p>Press the button below when you are ready to continue.</p>","0","","","","","","","","","","","","","","","","","","","","","","","","","","","","","","","","","","","","","","","","","","",""
"audio-keyboard-response","220","564815","0.0-5.0-1.0-0.9","2","1","p3eyzu73f5ya7c8","","null","","sounds/sentences/right/14_09_cfSWS.wav","","null","","","","","","","","","","","","","","","","","","","","","","","","","","","","","","","","","","","","","","","","","",""
"sentence-resp","221","578439","0.0-5.0-1.0-1.9","2","1","p3eyzu73f5ya7c8","","13623","","","","","","","SWS-SENT-RESPONSE","","","{""Q0"":""we frown when things take a bad turn""}","We frown when events take a bad turn.","frown,events,take,bad,turn","WE FROWN WHEN THINGS TAKE A BAD TURN","1","0","1","1","1","4","0.8","","","","","","","","","","","","","","","","","","","","","","","","","",""
"html-keyboard-response","222","579695","0.0-5.0-1.0-2.9","2","1","p3eyzu73f5ya7c8","","null","","","","null","","","","","","","","","","","","","","","","","","","","","","","","","","","","","","","","","","","","","","","","","",""
"audio-keyboard-response","223","581924","0.0-5.0-1.0-3.9","2","1","p3eyzu73f5ya7c8","","null","","sounds/sentences/right/14_09_cfSWS.wav","","null","","","","","","","","","","","","","","","","","","","","","","","","","","","","","","","","","","","","","","","","","",""
"html-keyboard-response","224","582927","0.0-5.0-1.0-4.9","2","1","p3eyzu73f5ya7c8","","null","","","","null","","","","","","","","","","","","","","","","","","","","","","","","","","","","","","","","","","","","","","","","","",""
"html-button-response","225","591929","0.0-5.0-1.0-5.9","2","1","p3eyzu73f5ya7c8","","8500","","<p>Press the button below when you are ready to continue.</p>","0","","","","","","","","","","","","","","","","","","","","","","","","","","","","","","","","","","","","","","","","","","",""
"html-keyboard-response","226","603532","0.0-6.0-0.0","2","1","p3eyzu73f5ya7c8","","11102","","<p>In this part of the study, you will hear sounds similar to those you just heard.</p><p>Please focus on these sounds, as you may be asked questions about them later.</p><p>Occasionally, the sounds will pause for up to two seconds. When this happens, please press SPACEBAR as quickly as you can.</br>This helps ensure that you are paying attention to the sounds.</p><p>This part of the study will take about 12 minutes to complete, and you will be given the opportunity to take a couple of short breaks every few minutes.</p><p><strong>Press SPACEBAR to begin</strong></p>","","32","","","","","","","","","","","","","","","","","","","","","","","","","","","","","","","","","","","","","","","","","",""
"html-keyboard-response","227","604535","0.0-6.0-1.0-0.0","2","1","p3eyzu73f5ya7c8","","null","","<p style=""font-size: 40px;"">+</p>","","null","","","","","","","","","","","","","","","","","","","","","","","","","","","","","","","","","","","","","","","","","",""
"html-keyboard-response","228","789540","0.0-6.0-1.0-1.0","2","1","p3eyzu73f5ya7c8","","null","","","","null","","","SL-TRAIN","","","","","","","","","","","","","","0","735.1000000014901","698.5","sounds/B/TRAIN/SEQ__07.mp3","2","","","","","","","","","","","","","","","","","","","","",""
"html-button-response","229","792069","0.0-6.0-1.0-2.0","2","1","p3eyzu73f5ya7c8","","2528","","<p>You may take a short break if you wish.</p>","0","","","","","","","","","","","","","","","","","","","","","","","","","","","","","","","","","","","","","","","","","","",""
"html-keyboard-response","230","793071","0.0-6.0-1.0-3.0","2","1","p3eyzu73f5ya7c8","","null","","<p style=""font-size: 40px;"">+</p>","","null","","","","","","","","","","","","","","","","","","","","","","","","","","","","","","","","","","","","","","","","","",""
"html-keyboard-response","231","978078","0.0-6.0-1.0-4.0","2","1","p3eyzu73f5ya7c8","","null","","","","null","","","SL-TRAIN","","","","","","","","","","","","","","0","887.1999999992549","764.3999999985099","sounds/B/TRAIN/SEQ__09.mp3","5","","","","","","","","","","","","","","","","","","","","",""
"html-button-response","232","980075","0.0-6.0-1.0-5.0","2","1","p3eyzu73f5ya7c8","","1995.1999999955297","","<p>You may take a short break if you wish.</p>","0","","","","","","","","","","","","","","","","","","","","","","","","","","","","","","","","","","","","","","","","","","",""
"html-keyboard-response","233","981081","0.0-6.0-1.0-6.0","2","1","p3eyzu73f5ya7c8","","null","","<p style=""font-size: 40px;"">+</p>","","null","","","","","","","","","","","","","","","","","","","","","","","","","","","","","","","","","","","","","","","","","",""
"html-keyboard-response","234","1166089","0.0-6.0-1.0-7.0","2","1","p3eyzu73f5ya7c8","","null","","","","null","","","SL-TRAIN","","","","","","","","","","","","","","0","643","874.7999999970198","sounds/B/TRAIN/SEQ__06.mp3","8","","","","","","","","","","","","","","","","","","","","",""
"html-button-response","235","1168045","0.0-6.0-1.0-8.0","2","1","p3eyzu73f5ya7c8","","1952.8000000044703","","<p>You may take a short break if you wish.</p>","0","","","","","","","","","","","","","","","","","","","","","","","","","","","","","","","","","","","","","","","","","","",""
"html-keyboard-response","236","1169048","0.0-6.0-1.0-9.0","2","1","p3eyzu73f5ya7c8","","null","","<p style=""font-size: 40px;"">+</p>","","null","","","","","","","","","","","","","","","","","","","","","","","","","","","","","","","","","","","","","","","","","",""
"html-keyboard-response","237","1354058","0.0-6.0-1.0-10.0","2","1","p3eyzu73f5ya7c8","","null","","","","null","","","SL-TRAIN","","","","","","","","","","","","","","0","1015.9000000059605","1273","sounds/B/TRAIN/SEQ__03.mp3","15","","","","","","","","","","","","","","","","","","","","",""
"html-button-response","238","1361814","0.0-6.0-1.0-11.0","2","1","p3eyzu73f5ya7c8","","7753.69999999553","","<p>You may take a short break if you wish.</p>","0","","","","","","","","","","","","","","","","","","","","","","","","","","","","","","","","","","","","","","","","","","",""
"html-button-response","239","1460976","0.0-7.0-0.0","2","1","p3eyzu73f5ya7c8","","99158.69999999553","","<p>Welcome to the second part of the study. This is a <u>familiarity task</u>.</p><p>You will now hear short sounds and will be asked to rate how familiar they sound to you <b>based on what you heard in the previous part of the study</b>.</p><p>You will rate 12 sounds in total.</p>","0","","","","","","","","","","","","","","","","","","","","","","","","","","","","","","","","","","","","","","","","","","",""
"html-keyboard-response","240","1461980","0.0-7.0-1.0-0.0","2","1","p3eyzu73f5ya7c8","","null","","","","null","","","","","","","","","","","","","","","","","","","","","","","","","","","","","","","","","","","","","","","","","",""
"audio-keyboard-response","241","1463329","0.0-7.0-1.0-1.0","2","1","p3eyzu73f5ya7c8","","null","","sounds/B/FAM/W004.mp3","","null","","","","","","","","","","","","","","","","","","","","","","","","","","","","","","","","","","","","","","","","","",""
"html-keyboard-response","242","1467000","0.0-7.0-1.0-2.0","2","1","p3eyzu73f5ya7c8","","3169","","<p>How familiar did this sound to you?</p><p>1&nbsp;&nbsp;&nbsp;&nbsp;&nbsp;&nbsp;&nbsp;&nbsp;&nbsp;&nbsp;&nbsp;&nbsp;&nbsp;&nbsp;&nbsp;&nbsp;&nbsp;&nbsp;&nbsp;2&nbsp;&nbsp;&nbsp;&nbsp;&nbsp;&nbsp;&nbsp;&nbsp;&nbsp;&nbsp;&nbsp;&nbsp;&nbsp;&nbsp;&nbsp;&nbsp;&nbsp;&nbsp;&nbsp;3&nbsp;&nbsp;&nbsp;&nbsp;&nbsp;&nbsp;&nbsp;&nbsp;&nbsp;&nbsp;&nbsp;&nbsp;&nbsp;&nbsp;&nbsp;&nbsp;&nbsp;&nbsp;&nbsp;4</p><p style=""font-size:14px"">Not at all familiar&nbsp;&nbsp;&nbsp;&nbsp;A little familiar&nbsp;&nbsp;&nbsp;Moderately familiar&nbsp;&nbsp;&nbsp;Extremely familiar</p><p>(press the corresponding number on your keyboard)</p>","","52","","","FAM-RESPONSE","","","","","","","","","","","","","","","","","","","sounds/B/FAM/W004.mp3","word","","","","","","","","","","","","","","","","","","",""
"html-keyboard-response","243","1469006","0.0-7.0-1.0-0.1","2","1","p3eyzu73f5ya7c8","","null","","","","null","","","","","","","","","","","","","","","","","","","","","","","","","","","","","","","","","","","","","","","","","",""
"audio-keyboard-response","244","1469947","0.0-7.0-1.0-1.1","2","1","p3eyzu73f5ya7c8","","null","","sounds/B/FAM/N002.mp3","","null","","","","","","","","","","","","","","","","","","","","","","","","","","","","","","","","","","","","","","","","","",""
"html-keyboard-response","245","1472055","0.0-7.0-1.0-2.1","2","1","p3eyzu73f5ya7c8","","1605.6000000014901","","<p>How familiar did this sound to you?</p><p>1&nbsp;&nbsp;&nbsp;&nbsp;&nbsp;&nbsp;&nbsp;&nbsp;&nbsp;&nbsp;&nbsp;&nbsp;&nbsp;&nbsp;&nbsp;&nbsp;&nbsp;&nbsp;&nbsp;2&nbsp;&nbsp;&nbsp;&nbsp;&nbsp;&nbsp;&nbsp;&nbsp;&nbsp;&nbsp;&nbsp;&nbsp;&nbsp;&nbsp;&nbsp;&nbsp;&nbsp;&nbsp;&nbsp;3&nbsp;&nbsp;&nbsp;&nbsp;&nbsp;&nbsp;&nbsp;&nbsp;&nbsp;&nbsp;&nbsp;&nbsp;&nbsp;&nbsp;&nbsp;&nbsp;&nbsp;&nbsp;&nbsp;4</p><p style=""font-size:14px"">Not at all familiar&nbsp;&nbsp;&nbsp;&nbsp;A little familiar&nbsp;&nbsp;&nbsp;Moderately familiar&nbsp;&nbsp;&nbsp;Extremely familiar</p><p>(press the corresponding number on your keyboard)</p>","","51","","","FAM-RESPONSE","","","","","","","","","","","","","","","","","","","sounds/B/FAM/N002.mp3","nonword","","","","","","","","","","","","","","","","","","",""
"html-keyboard-response","246","1474065","0.0-7.0-1.0-0.2","2","1","p3eyzu73f5ya7c8","","null","","","","null","","","","","","","","","","","","","","","","","","","","","","","","","","","","","","","","","","","","","","","","","",""
"audio-keyboard-response","247","1475009","0.0-7.0-1.0-1.2","2","1","p3eyzu73f5ya7c8","","null","","sounds/B/FAM/P001.mp3","","null","","","","","","","","","","","","","","","","","","","","","","","","","","","","","","","","","","","","","","","","","",""
"html-keyboard-response","248","1477104","0.0-7.0-1.0-2.2","2","1","p3eyzu73f5ya7c8","","1593.8000000044703","","<p>How familiar did this sound to you?</p><p>1&nbsp;&nbsp;&nbsp;&nbsp;&nbsp;&nbsp;&nbsp;&nbsp;&nbsp;&nbsp;&nbsp;&nbsp;&nbsp;&nbsp;&nbsp;&nbsp;&nbsp;&nbsp;&nbsp;2&nbsp;&nbsp;&nbsp;&nbsp;&nbsp;&nbsp;&nbsp;&nbsp;&nbsp;&nbsp;&nbsp;&nbsp;&nbsp;&nbsp;&nbsp;&nbsp;&nbsp;&nbsp;&nbsp;3&nbsp;&nbsp;&nbsp;&nbsp;&nbsp;&nbsp;&nbsp;&nbsp;&nbsp;&nbsp;&nbsp;&nbsp;&nbsp;&nbsp;&nbsp;&nbsp;&nbsp;&nbsp;&nbsp;4</p><p style=""font-size:14px"">Not at all familiar&nbsp;&nbsp;&nbsp;&nbsp;A little familiar&nbsp;&nbsp;&nbsp;Moderately familiar&nbsp;&nbsp;&nbsp;Extremely familiar</p><p>(press the corresponding number on your keyboard)</p>","","52","","","FAM-RESPONSE","","","","","","","","","","","","","","","","","","","sounds/B/FAM/P001.mp3","partword","","","","","","","","","","","","","","","","","","",""
"html-keyboard-response","249","1479115","0.0-7.0-1.0-0.3","2","1","p3eyzu73f5ya7c8","","null","","","","null","","","","","","","","","","","","","","","","","","","","","","","","","","","","","","","","","","","","","","","","","",""
"audio-keyboard-response","250","1480059","0.0-7.0-1.0-1.3","2","1","p3eyzu73f5ya7c8","","null","","sounds/B/FAM/N003.mp3","","null","","","","","","","","","","","","","","","","","","","","","","","","","","","","","","","","","","","","","","","","","",""
"html-keyboard-response","251","1481405","0.0-7.0-1.0-2.3","2","1","p3eyzu73f5ya7c8","","840.7999999970198","","<p>How familiar did this sound to you?</p><p>1&nbsp;&nbsp;&nbsp;&nbsp;&nbsp;&nbsp;&nbsp;&nbsp;&nbsp;&nbsp;&nbsp;&nbsp;&nbsp;&nbsp;&nbsp;&nbsp;&nbsp;&nbsp;&nbsp;2&nbsp;&nbsp;&nbsp;&nbsp;&nbsp;&nbsp;&nbsp;&nbsp;&nbsp;&nbsp;&nbsp;&nbsp;&nbsp;&nbsp;&nbsp;&nbsp;&nbsp;&nbsp;&nbsp;3&nbsp;&nbsp;&nbsp;&nbsp;&nbsp;&nbsp;&nbsp;&nbsp;&nbsp;&nbsp;&nbsp;&nbsp;&nbsp;&nbsp;&nbsp;&nbsp;&nbsp;&nbsp;&nbsp;4</p><p style=""font-size:14px"">Not at all familiar&nbsp;&nbsp;&nbsp;&nbsp;A little familiar&nbsp;&nbsp;&nbsp;Moderately familiar&nbsp;&nbsp;&nbsp;Extremely familiar</p><p>(press the corresponding number on your keyboard)</p>","","49","","","FAM-RESPONSE","","","","","","","","","","","","","","","","","","","sounds/B/FAM/N003.mp3","nonword","","","","","","","","","","","","","","","","","","",""
"html-keyboard-response","252","1483408","0.0-7.0-1.0-0.4","2","1","p3eyzu73f5ya7c8","","null","","","","null","","","","","","","","","","","","","","","","","","","","","","","","","","","","","","","","","","","","","","","","","",""
"audio-keyboard-response","253","1484353","0.0-7.0-1.0-1.4","2","1","p3eyzu73f5ya7c8","","null","","sounds/B/FAM/N001.mp3","","null","","","","","","","","","","","","","","","","","","","","","","","","","","","","","","","","","","","","","","","","","",""
"html-keyboard-response","254","1485494","0.0-7.0-1.0-2.4","2","1","p3eyzu73f5ya7c8","","639.9000000059605","","<p>How familiar did this sound to you?</p><p>1&nbsp;&nbsp;&nbsp;&nbsp;&nbsp;&nbsp;&nbsp;&nbsp;&nbsp;&nbsp;&nbsp;&nbsp;&nbsp;&nbsp;&nbsp;&nbsp;&nbsp;&nbsp;&nbsp;2&nbsp;&nbsp;&nbsp;&nbsp;&nbsp;&nbsp;&nbsp;&nbsp;&nbsp;&nbsp;&nbsp;&nbsp;&nbsp;&nbsp;&nbsp;&nbsp;&nbsp;&nbsp;&nbsp;3&nbsp;&nbsp;&nbsp;&nbsp;&nbsp;&nbsp;&nbsp;&nbsp;&nbsp;&nbsp;&nbsp;&nbsp;&nbsp;&nbsp;&nbsp;&nbsp;&nbsp;&nbsp;&nbsp;4</p><p style=""font-size:14px"">Not at all familiar&nbsp;&nbsp;&nbsp;&nbsp;A little familiar&nbsp;&nbsp;&nbsp;Moderately familiar&nbsp;&nbsp;&nbsp;Extremely familiar</p><p>(press the corresponding number on your keyboard)</p>","","51","","","FAM-RESPONSE","","","","","","","","","","","","","","","","","","","sounds/B/FAM/N001.mp3","nonword","","","","","","","","","","","","","","","","","","",""
"html-keyboard-response","255","1487500","0.0-7.0-1.0-0.5","2","1","p3eyzu73f5ya7c8","","null","","","","null","","","","","","","","","","","","","","","","","","","","","","","","","","","","","","","","","","","","","","","","","",""
"audio-keyboard-response","256","1488443","0.0-7.0-1.0-1.5","2","1","p3eyzu73f5ya7c8","","null","","sounds/B/FAM/W003.mp3","","null","","","","","","","","","","","","","","","","","","","","","","","","","","","","","","","","","","","","","","","","","",""
"html-keyboard-response","257","1492478","0.0-7.0-1.0-2.5","2","1","p3eyzu73f5ya7c8","","3531.8000000044703","","<p>How familiar did this sound to you?</p><p>1&nbsp;&nbsp;&nbsp;&nbsp;&nbsp;&nbsp;&nbsp;&nbsp;&nbsp;&nbsp;&nbsp;&nbsp;&nbsp;&nbsp;&nbsp;&nbsp;&nbsp;&nbsp;&nbsp;2&nbsp;&nbsp;&nbsp;&nbsp;&nbsp;&nbsp;&nbsp;&nbsp;&nbsp;&nbsp;&nbsp;&nbsp;&nbsp;&nbsp;&nbsp;&nbsp;&nbsp;&nbsp;&nbsp;3&nbsp;&nbsp;&nbsp;&nbsp;&nbsp;&nbsp;&nbsp;&nbsp;&nbsp;&nbsp;&nbsp;&nbsp;&nbsp;&nbsp;&nbsp;&nbsp;&nbsp;&nbsp;&nbsp;4</p><p style=""font-size:14px"">Not at all familiar&nbsp;&nbsp;&nbsp;&nbsp;A little familiar&nbsp;&nbsp;&nbsp;Moderately familiar&nbsp;&nbsp;&nbsp;Extremely familiar</p><p>(press the corresponding number on your keyboard)</p>","","51","","","FAM-RESPONSE","","","","","","","","","","","","","","","","","","","sounds/B/FAM/W003.mp3","word","","","","","","","","","","","","","","","","","","",""
"html-keyboard-response","258","1494484","0.0-7.0-1.0-0.6","2","1","p3eyzu73f5ya7c8","","null","","","","null","","","","","","","","","","","","","","","","","","","","","","","","","","","","","","","","","","","","","","","","","",""
"audio-keyboard-response","259","1495430","0.0-7.0-1.0-1.6","2","1","p3eyzu73f5ya7c8","","null","","sounds/B/FAM/N004.mp3","","null","","","","","","","","","","","","","","","","","","","","","","","","","","","","","","","","","","","","","","","","","",""
"html-keyboard-response","260","1496627","0.0-7.0-1.0-2.6","2","1","p3eyzu73f5ya7c8","","695.6000000014901","","<p>How familiar did this sound to you?</p><p>1&nbsp;&nbsp;&nbsp;&nbsp;&nbsp;&nbsp;&nbsp;&nbsp;&nbsp;&nbsp;&nbsp;&nbsp;&nbsp;&nbsp;&nbsp;&nbsp;&nbsp;&nbsp;&nbsp;2&nbsp;&nbsp;&nbsp;&nbsp;&nbsp;&nbsp;&nbsp;&nbsp;&nbsp;&nbsp;&nbsp;&nbsp;&nbsp;&nbsp;&nbsp;&nbsp;&nbsp;&nbsp;&nbsp;3&nbsp;&nbsp;&nbsp;&nbsp;&nbsp;&nbsp;&nbsp;&nbsp;&nbsp;&nbsp;&nbsp;&nbsp;&nbsp;&nbsp;&nbsp;&nbsp;&nbsp;&nbsp;&nbsp;4</p><p style=""font-size:14px"">Not at all familiar&nbsp;&nbsp;&nbsp;&nbsp;A little familiar&nbsp;&nbsp;&nbsp;Moderately familiar&nbsp;&nbsp;&nbsp;Extremely familiar</p><p>(press the corresponding number on your keyboard)</p>","","52","","","FAM-RESPONSE","","","","","","","","","","","","","","","","","","","sounds/B/FAM/N004.mp3","nonword","","","","","","","","","","","","","","","","","","",""
"html-keyboard-response","261","1498630","0.0-7.0-1.0-0.7","2","1","p3eyzu73f5ya7c8","","null","","","","null","","","","","","","","","","","","","","","","","","","","","","","","","","","","","","","","","","","","","","","","","",""
"audio-keyboard-response","262","1499574","0.0-7.0-1.0-1.7","2","1","p3eyzu73f5ya7c8","","null","","sounds/B/FAM/P004.mp3","","null","","","","","","","","","","","","","","","","","","","","","","","","","","","","","","","","","","","","","","","","","",""
"html-keyboard-response","263","1502771","0.0-7.0-1.0-2.7","2","1","p3eyzu73f5ya7c8","","2694.7999999970198","","<p>How familiar did this sound to you?</p><p>1&nbsp;&nbsp;&nbsp;&nbsp;&nbsp;&nbsp;&nbsp;&nbsp;&nbsp;&nbsp;&nbsp;&nbsp;&nbsp;&nbsp;&nbsp;&nbsp;&nbsp;&nbsp;&nbsp;2&nbsp;&nbsp;&nbsp;&nbsp;&nbsp;&nbsp;&nbsp;&nbsp;&nbsp;&nbsp;&nbsp;&nbsp;&nbsp;&nbsp;&nbsp;&nbsp;&nbsp;&nbsp;&nbsp;3&nbsp;&nbsp;&nbsp;&nbsp;&nbsp;&nbsp;&nbsp;&nbsp;&nbsp;&nbsp;&nbsp;&nbsp;&nbsp;&nbsp;&nbsp;&nbsp;&nbsp;&nbsp;&nbsp;4</p><p style=""font-size:14px"">Not at all familiar&nbsp;&nbsp;&nbsp;&nbsp;A little familiar&nbsp;&nbsp;&nbsp;Moderately familiar&nbsp;&nbsp;&nbsp;Extremely familiar</p><p>(press the corresponding number on your keyboard)</p>","","52","","","FAM-RESPONSE","","","","","","","","","","","","","","","","","","","sounds/B/FAM/P004.mp3","partword","","","","","","","","","","","","","","","","","","",""
"html-keyboard-response","264","1504774","0.0-7.0-1.0-0.8","2","1","p3eyzu73f5ya7c8","","null","","","","null","","","","","","","","","","","","","","","","","","","","","","","","","","","","","","","","","","","","","","","","","",""
"audio-keyboard-response","265","1505718","0.0-7.0-1.0-1.8","2","1","p3eyzu73f5ya7c8","","null","","sounds/B/FAM/W002.mp3","","null","","","","","","","","","","","","","","","","","","","","","","","","","","","","","","","","","","","","","","","","","",""
"html-keyboard-response","266","1507532","0.0-7.0-1.0-2.8","2","1","p3eyzu73f5ya7c8","","1312.3999999985099","","<p>How familiar did this sound to you?</p><p>1&nbsp;&nbsp;&nbsp;&nbsp;&nbsp;&nbsp;&nbsp;&nbsp;&nbsp;&nbsp;&nbsp;&nbsp;&nbsp;&nbsp;&nbsp;&nbsp;&nbsp;&nbsp;&nbsp;2&nbsp;&nbsp;&nbsp;&nbsp;&nbsp;&nbsp;&nbsp;&nbsp;&nbsp;&nbsp;&nbsp;&nbsp;&nbsp;&nbsp;&nbsp;&nbsp;&nbsp;&nbsp;&nbsp;3&nbsp;&nbsp;&nbsp;&nbsp;&nbsp;&nbsp;&nbsp;&nbsp;&nbsp;&nbsp;&nbsp;&nbsp;&nbsp;&nbsp;&nbsp;&nbsp;&nbsp;&nbsp;&nbsp;4</p><p style=""font-size:14px"">Not at all familiar&nbsp;&nbsp;&nbsp;&nbsp;A little familiar&nbsp;&nbsp;&nbsp;Moderately familiar&nbsp;&nbsp;&nbsp;Extremely familiar</p><p>(press the corresponding number on your keyboard)</p>","","52","","","FAM-RESPONSE","","","","","","","","","","","","","","","","","","","sounds/B/FAM/W002.mp3","word","","","","","","","","","","","","","","","","","","",""
"html-keyboard-response","267","1509538","0.0-7.0-1.0-0.9","2","1","p3eyzu73f5ya7c8","","null","","","","null","","","","","","","","","","","","","","","","","","","","","","","","","","","","","","","","","","","","","","","","","",""
"audio-keyboard-response","268","1510480","0.0-7.0-1.0-1.9","2","1","p3eyzu73f5ya7c8","","null","","sounds/B/FAM/W001.mp3","","null","","","","","","","","","","","","","","","","","","","","","","","","","","","","","","","","","","","","","","","","","",""
"html-keyboard-response","269","1512000","0.0-7.0-1.0-2.9","2","1","p3eyzu73f5ya7c8","","1017.5","","<p>How familiar did this sound to you?</p><p>1&nbsp;&nbsp;&nbsp;&nbsp;&nbsp;&nbsp;&nbsp;&nbsp;&nbsp;&nbsp;&nbsp;&nbsp;&nbsp;&nbsp;&nbsp;&nbsp;&nbsp;&nbsp;&nbsp;2&nbsp;&nbsp;&nbsp;&nbsp;&nbsp;&nbsp;&nbsp;&nbsp;&nbsp;&nbsp;&nbsp;&nbsp;&nbsp;&nbsp;&nbsp;&nbsp;&nbsp;&nbsp;&nbsp;3&nbsp;&nbsp;&nbsp;&nbsp;&nbsp;&nbsp;&nbsp;&nbsp;&nbsp;&nbsp;&nbsp;&nbsp;&nbsp;&nbsp;&nbsp;&nbsp;&nbsp;&nbsp;&nbsp;4</p><p style=""font-size:14px"">Not at all familiar&nbsp;&nbsp;&nbsp;&nbsp;A little familiar&nbsp;&nbsp;&nbsp;Moderately familiar&nbsp;&nbsp;&nbsp;Extremely familiar</p><p>(press the corresponding number on your keyboard)</p>","","51","","","FAM-RESPONSE","","","","","","","","","","","","","","","","","","","sounds/B/FAM/W001.mp3","word","","","","","","","","","","","","","","","","","","",""
"html-keyboard-response","270","1514010","0.0-7.0-1.0-0.10","2","1","p3eyzu73f5ya7c8","","null","","","","null","","","","","","","","","","","","","","","","","","","","","","","","","","","","","","","","","","","","","","","","","",""
"audio-keyboard-response","271","1514950","0.0-7.0-1.0-1.10","2","1","p3eyzu73f5ya7c8","","null","","sounds/B/FAM/P002.mp3","","null","","","","","","","","","","","","","","","","","","","","","","","","","","","","","","","","","","","","","","","","","",""
"html-keyboard-response","272","1517285","0.0-7.0-1.0-2.10","2","1","p3eyzu73f5ya7c8","","1830","","<p>How familiar did this sound to you?</p><p>1&nbsp;&nbsp;&nbsp;&nbsp;&nbsp;&nbsp;&nbsp;&nbsp;&nbsp;&nbsp;&nbsp;&nbsp;&nbsp;&nbsp;&nbsp;&nbsp;&nbsp;&nbsp;&nbsp;2&nbsp;&nbsp;&nbsp;&nbsp;&nbsp;&nbsp;&nbsp;&nbsp;&nbsp;&nbsp;&nbsp;&nbsp;&nbsp;&nbsp;&nbsp;&nbsp;&nbsp;&nbsp;&nbsp;3&nbsp;&nbsp;&nbsp;&nbsp;&nbsp;&nbsp;&nbsp;&nbsp;&nbsp;&nbsp;&nbsp;&nbsp;&nbsp;&nbsp;&nbsp;&nbsp;&nbsp;&nbsp;&nbsp;4</p><p style=""font-size:14px"">Not at all familiar&nbsp;&nbsp;&nbsp;&nbsp;A little familiar&nbsp;&nbsp;&nbsp;Moderately familiar&nbsp;&nbsp;&nbsp;Extremely familiar</p><p>(press the corresponding number on your keyboard)</p>","","52","","","FAM-RESPONSE","","","","","","","","","","","","","","","","","","","sounds/B/FAM/P002.mp3","partword","","","","","","","","","","","","","","","","","","",""
"html-keyboard-response","273","1519291","0.0-7.0-1.0-0.11","2","1","p3eyzu73f5ya7c8","","null","","","","null","","","","","","","","","","","","","","","","","","","","","","","","","","","","","","","","","","","","","","","","","",""
"audio-keyboard-response","274","1520235","0.0-7.0-1.0-1.11","2","1","p3eyzu73f5ya7c8","","null","","sounds/B/FAM/P003.mp3","","null","","","","","","","","","","","","","","","","","","","","","","","","","","","","","","","","","","","","","","","","","",""
"html-keyboard-response","275","1522670","0.0-7.0-1.0-2.11","2","1","p3eyzu73f5ya7c8","","1932.8999999985099","","<p>How familiar did this sound to you?</p><p>1&nbsp;&nbsp;&nbsp;&nbsp;&nbsp;&nbsp;&nbsp;&nbsp;&nbsp;&nbsp;&nbsp;&nbsp;&nbsp;&nbsp;&nbsp;&nbsp;&nbsp;&nbsp;&nbsp;2&nbsp;&nbsp;&nbsp;&nbsp;&nbsp;&nbsp;&nbsp;&nbsp;&nbsp;&nbsp;&nbsp;&nbsp;&nbsp;&nbsp;&nbsp;&nbsp;&nbsp;&nbsp;&nbsp;3&nbsp;&nbsp;&nbsp;&nbsp;&nbsp;&nbsp;&nbsp;&nbsp;&nbsp;&nbsp;&nbsp;&nbsp;&nbsp;&nbsp;&nbsp;&nbsp;&nbsp;&nbsp;&nbsp;4</p><p style=""font-size:14px"">Not at all familiar&nbsp;&nbsp;&nbsp;&nbsp;A little familiar&nbsp;&nbsp;&nbsp;Moderately familiar&nbsp;&nbsp;&nbsp;Extremely familiar</p><p>(press the corresponding number on your keyboard)</p>","","51","","","FAM-RESPONSE","","","","","","","","","","","","","","","","","","","sounds/B/FAM/P003.mp3","partword","","","","","","","","","","","","","","","","","","",""
"html-button-response","276","1537511","0.0-8.0-0.0","2","1","p3eyzu73f5ya7c8","","13838.30000000447","","<p>You will now listen to longer sound sequences.</p><p>Each sound sequence will last about 16 seconds.</p><p>On each trial, you will be given a <u>TARGET SOUND</u>. Your task is to listen very carefully for this sound.</p><p>Every time you hear the <u>TARGET SOUND</u>, you will press the <b>SPACEBAR</b> as quickly and accurately as you can.</p>","0","","","","","","","","","","","","","","","","","","","","","","","","","","","","","","","","","","","","","","","","","","",""
"html-button-response","277","1545257","0.0-8.0-1.0","2","1","p3eyzu73f5ya7c8","","7488.69999999553","","<p>It is very important that you make your responses as quickly and accurately as possible.</p><p>To help you make your responses, you will be able to listen to the <u>TARGET SOUND</u> at the beginning of each trial.</p><p>There will be 36 total trials.</p><p><b>Note: This is meant to be a difficult task. We simply want you to try your best.</p>","0","","","","","","","","","","","","","","","","","","","","","","","","","","","","","","","","","","","","","","","","","","",""
"html-button-response","278","1546874","0.0-8.0-2.0-0.0","2","1","p3eyzu73f5ya7c8","","1362.3999999985099","","<p>Trial 1 of 36</p>","0","","","","","","","","","","","","","","","","","","","","","","","","","ME","sounds/syllables/me_SWS.wav","1200,6600,8400,11100","2","","","","","","","","","","","","","","",""
"html-keyboard-response","279","1550794","0.0-8.0-2.0-1.0","2","1","p3eyzu73f5ya7c8","","3918.0999999940395","","","","80","","","","","","","","","","","","","","","","","","","","","","","","ME","","1200,6600,8400,11100","2","","","","","","","","","","","","","","",""
"audio-keyboard-response","280","1551118","0.0-8.0-2.0-2.0-0.0","2","1","p3eyzu73f5ya7c8","","null","","sounds/syllables/me_SWS.wav","","null","","","","","","","","","","","","","","","","","","","","","","","","","","","","","","","","","","","","","","","","","",""
"html-keyboard-response","281","1553521","0.0-8.0-2.0-2.0-1.0","2","1","p3eyzu73f5ya7c8","","2402.2000000029802","","<p>To replay the <u>TARGET SOUND</u>, press P.</p> When you are ready to begin, press SPACEBAR.","","80","","","","","","","","","","","","","","","","","","","","","","","","","","","","","","","","","","","","","","","","","",""
"audio-keyboard-response","282","1554323","0.0-8.0-2.0-2.1-0.1","2","1","p3eyzu73f5ya7c8","","null","","sounds/syllables/me_SWS.wav","","null","","","","","","","","","","","","","","","","","","","","","","","","","","","","","","","","","","","","","","","","","",""
"html-keyboard-response","283","1554862","0.0-8.0-2.0-2.1-1.1","2","1","p3eyzu73f5ya7c8","","537.5","","<p>To replay the <u>TARGET SOUND</u>, press P.</p> When you are ready to begin, press SPACEBAR.","","80","","","","","","","","","","","","","","","","","","","","","","","","","","","","","","","","","","","","","","","","","",""
"audio-keyboard-response","284","1555667","0.0-8.0-2.0-2.2-0.2","2","1","p3eyzu73f5ya7c8","","null","","sounds/syllables/me_SWS.wav","","null","","","","","","","","","","","","","","","","","","","","","","","","","","","","","","","","","","","","","","","","","",""
"html-keyboard-response","285","1556696","0.0-8.0-2.0-2.2-1.2","2","1","p3eyzu73f5ya7c8","","1027.5","","<p>To replay the <u>TARGET SOUND</u>, press P.</p> When you are ready to begin, press SPACEBAR.","","80","","","","","","","","","","","","","","","","","","","","","","","","","","","","","","","","","","","","","","","","","",""
"audio-keyboard-response","286","1557502","0.0-8.0-2.0-2.3-0.3","2","1","p3eyzu73f5ya7c8","","null","","sounds/syllables/me_SWS.wav","","null","","","","","","","","","","","","","","","","","","","","","","","","","","","","","","","","","","","","","","","","","",""
"html-keyboard-response","287","1557969","0.0-8.0-2.0-2.3-1.3","2","1","p3eyzu73f5ya7c8","","466.1000000014901","","<p>To replay the <u>TARGET SOUND</u>, press P.</p> When you are ready to begin, press SPACEBAR.","","32","","","","","","","","","","","","","","","","","","","","","","","","","","","","","","","","","","","","","","","","","",""
"audio-keyboard-response","288","1572916","0.0-8.0-2.0-3.0","2","1","p3eyzu73f5ya7c8","","1531","","sounds/B/TD/ME_01_TD.mp3","","32","","","TD_SUMMARY","","","","","","","","","","","","","","","","","","","","","ME","","1200,6600,8400,11100","2","1200","6600","8400","11100","920.5","625.2999999970198","986.2000000029802","899.1000000014901","1528.7999999970198_2120.5_3101.60000000149_3347.60000000149_4363.5_6708.29999999702_7225.29999999702_8704.39999999851_9078.89999999851_9386.20000000298_10877.5_11292.20000000298_11653.10000000149_11999.10000000149_13587.10000000149_14045.10000000149","4","","","","",""
"html-button-response","289","1574251","0.0-8.0-2.0-0.1","2","1","p3eyzu73f5ya7c8","","1331.8000000044703","","<p>Trial 2 of 36</p>","0","","","","","","","","","","","","","","","","","","","","","","","","","TA","sounds/syllables/ta_SWS.wav","4200,6000,7800,13200","3","","","","","","","","","","","","","","",""
"html-keyboard-response","290","1575290","0.0-8.0-2.0-1.1","2","1","p3eyzu73f5ya7c8","","1038.2999999970198","","","","80","","","","","","","","","","","","","","","","","","","","","","","","TA","","4200,6000,7800,13200","3","","","","","","","","","","","","","","",""
"audio-keyboard-response","291","1575592","0.0-8.0-2.0-2.4-0.4","2","1","p3eyzu73f5ya7c8","","null","","sounds/syllables/ta_SWS.wav","","null","","","","","","","","","","","","","","","","","","","","","","","","","","","","","","","","","","","","","","","","","",""
"html-keyboard-response","292","1576302","0.0-8.0-2.0-2.4-1.4","2","1","p3eyzu73f5ya7c8","","709","","<p>To replay the <u>TARGET SOUND</u>, press P.</p> When you are ready to begin, press SPACEBAR.","","80","","","","","","","","","","","","","","","","","","","","","","","","","","","","","","","","","","","","","","","","","",""
"audio-keyboard-response","293","1577107","0.0-8.0-2.0-2.5-0.5","2","1","p3eyzu73f5ya7c8","","null","","sounds/syllables/ta_SWS.wav","","null","","","","","","","","","","","","","","","","","","","","","","","","","","","","","","","","","","","","","","","","","",""
"html-keyboard-response","294","1577621","0.0-8.0-2.0-2.5-1.5","2","1","p3eyzu73f5ya7c8","","513","","<p>To replay the <u>TARGET SOUND</u>, press P.</p> When you are ready to begin, press SPACEBAR.","","80","","","","","","","","","","","","","","","","","","","","","","","","","","","","","","","","","","","","","","","","","",""
"audio-keyboard-response","295","1578425","0.0-8.0-2.0-2.6-0.6","2","1","p3eyzu73f5ya7c8","","null","","sounds/syllables/ta_SWS.wav","","null","","","","","","","","","","","","","","","","","","","","","","","","","","","","","","","","","","","","","","","","","",""
"html-keyboard-response","296","1578759","0.0-8.0-2.0-2.6-1.6","2","1","p3eyzu73f5ya7c8","","333.79999999701977","","<p>To replay the <u>TARGET SOUND</u>, press P.</p> When you are ready to begin, press SPACEBAR.","","32","","","","","","","","","","","","","","","","","","","","","","","","","","","","","","","","","","","","","","","","","",""
"audio-keyboard-response","297","1593705","0.0-8.0-2.0-3.1","2","1","p3eyzu73f5ya7c8","","2379","","sounds/B/TD/TA_10_TD.mp3","","32","","","TD_SUMMARY","","","","","","","","","","","","","","","","","","","","","TA","","4200,6000,7800,13200","3","4200","6000","7800","13200","1181.2000000029802","417.6000000014901","1174.1000000014901","null","________________2373.9000000059605_3630.2000000029802_4837.30000000447_5381.20000000298_6417.60000000149_7735.4000000059605_8974.10000000149_10928.40000000596_13153.30000000447","3","","","","",""
"html-button-response","298","1594746","0.0-8.0-2.0-0.2","2","1","p3eyzu73f5ya7c8","","1038.2000000029802","","<p>Trial 3 of 36</p>","0","","","","","","","","","","","","","","","","","","","","","","","","","RU","sounds/syllables/ru_SWS.wav","1500,4200,6900,12300","3","","","","","","","","","","","","","","",""
"html-keyboard-response","299","1595867","0.0-8.0-2.0-1.2","2","1","p3eyzu73f5ya7c8","","1118.3999999985099","","","","80","","","","","","","","","","","","","","","","","","","","","","","","RU","","1500,4200,6900,12300","3","","","","","","","","","","","","","","",""
"audio-keyboard-response","300","1596169","0.0-8.0-2.0-2.7-0.7","2","1","p3eyzu73f5ya7c8","","null","","sounds/syllables/ru_SWS.wav","","null","","","","","","","","","","","","","","","","","","","","","","","","","","","","","","","","","","","","","","","","","",""
"html-keyboard-response","301","1596789","0.0-8.0-2.0-2.7-1.7","2","1","p3eyzu73f5ya7c8","","619.8999999985099","","<p>To replay the <u>TARGET SOUND</u>, press P.</p> When you are ready to begin, press SPACEBAR.","","80","","","","","","","","","","","","","","","","","","","","","","","","","","","","","","","","","","","","","","","","","",""
"audio-keyboard-response","302","1597592","0.0-8.0-2.0-2.8-0.8","2","1","p3eyzu73f5ya7c8","","null","","sounds/syllables/ru_SWS.wav","","null","","","","","","","","","","","","","","","","","","","","","","","","","","","","","","","","","","","","","","","","","",""
"html-keyboard-response","303","1598087","0.0-8.0-2.0-2.8-1.8","2","1","p3eyzu73f5ya7c8","","494.1000000014901","","<p>To replay the <u>TARGET SOUND</u>, press P.</p> When you are ready to begin, press SPACEBAR.","","80","","","","","","","","","","","","","","","","","","","","","","","","","","","","","","","","","","","","","","","","","",""
"audio-keyboard-response","304","1598894","0.0-8.0-2.0-2.9-0.9","2","1","p3eyzu73f5ya7c8","","null","","sounds/syllables/ru_SWS.wav","","null","","","","","","","","","","","","","","","","","","","","","","","","","","","","","","","","","","","","","","","","","",""
"html-keyboard-response","305","1599294","0.0-8.0-2.0-2.9-1.9","2","1","p3eyzu73f5ya7c8","","399.5","","<p>To replay the <u>TARGET SOUND</u>, press P.</p> When you are ready to begin, press SPACEBAR.","","32","","","","","","","","","","","","","","","","","","","","","","","","","","","","","","","","","","","","","","","","","",""
"audio-keyboard-response","306","1614243","0.0-8.0-2.0-3.2","2","1","p3eyzu73f5ya7c8","","1520","","sounds/B/TD/RU_02_TD.mp3","","32","","","TD_SUMMARY","","","","","","","","","","","","","","","","","","","","","RU","","1500,4200,6900,12300","3","1500","4200","6900","12300","804.1999999955297","542","481.8999999985099","543.6999999955297","_________________________1523.5_2304.1999999955297_4170.29999999702_4742_7017.29999999702_7381.89999999851_10685_12310.89999999851_12843.69999999553_14319.69999999553","3","","","","",""
"html-button-response","307","1615129","0.0-8.0-2.0-0.3","2","1","p3eyzu73f5ya7c8","","883.5","","<p>Trial 4 of 36</p>","0","","","","","","","","","","","","","","","","","","","","","","","","","TA","sounds/syllables/ta_SWS.wav","1500,4200,6900,9600","3","","","","","","","","","","","","","","",""
"html-keyboard-response","308","1615788","0.0-8.0-2.0-1.3","2","1","p3eyzu73f5ya7c8","","656.8999999985099","","","","80","","","","","","","","","","","","","","","","","","","","","","","","TA","","1500,4200,6900,9600","3","","","","","","","","","","","","","","",""
"audio-keyboard-response","309","1616088","0.0-8.0-2.0-2.10-0.10","2","1","p3eyzu73f5ya7c8","","null","","sounds/syllables/ta_SWS.wav","","null","","","","","","","","","","","","","","","","","","","","","","","","","","","","","","","","","","","","","","","","","",""
"html-keyboard-response","310","1616571","0.0-8.0-2.0-2.10-1.10","2","1","p3eyzu73f5ya7c8","","481.8999999985099","","<p>To replay the <u>TARGET SOUND</u>, press P.</p> When you are ready to begin, press SPACEBAR.","","80","","","","","","","","","","","","","","","","","","","","","","","","","","","","","","","","","","","","","","","","","",""
"audio-keyboard-response","311","1617379","0.0-8.0-2.0-2.11-0.11","2","1","p3eyzu73f5ya7c8","","null","","sounds/syllables/ta_SWS.wav","","null","","","","","","","","","","","","","","","","","","","","","","","","","","","","","","","","","","","","","","","","","",""
"html-keyboard-response","312","1617805","0.0-8.0-2.0-2.11-1.11","2","1","p3eyzu73f5ya7c8","","424.40000000596046","","<p>To replay the <u>TARGET SOUND</u>, press P.</p> When you are ready to begin, press SPACEBAR.","","32","","","","","","","","","","","","","","","","","","","","","","","","","","","","","","","","","","","","","","","","","",""
"audio-keyboard-response","313","1632755","0.0-8.0-2.0-3.3","2","1","p3eyzu73f5ya7c8","","2123","","sounds/B/TD/TA_04_TD.mp3","","32","","","TD_SUMMARY","","","","","","","","","","","","","","","","","","","","","TA","","1500,4200,6900,9600","3","1500","4200","6900","9600","621.5","566.2999999970198","818","834.1999999955297","___________________________________2121.5_4766.29999999702_6763.29999999702_7718_10434.19999999553_11400.69999999553_12369.89999999851_13962.39999999851","2","","","","",""
