"trial_type","trial_index","time_elapsed","internal_node_id","counterbalance","lang_instruct","ParticipantID","view_history","rt","url","stimulus","button_pressed","key_press","correctRESP","correct","designation","location","correctanswer","timeouts","pause_rt01","pause_rt02","train_file","numKeyPress","sound","fam_type","SYLLABLE","EXEMPLAR","TD_LOCS","TD_TYPE","TDLOC_01","TDLOC_02","TDLOC_03","TDLOC_04","TD_RT_01","TD_RT_02","TD_RT_03","TD_RT_04","TD_SUBJ_RTs","number_of_plays","responses","slider_start","response","question_order","syllable","syllable_type"
"pavlovia","0","3","0.0-0.0","3","0","k1fl0ocvgl8144f","","","","","","","","","","","","","","","","","","","","","","","","","","","","","","","","","","","","","",""
"instructions","1","31871","0.0-1.0","3","0","k1fl0ocvgl8144f","[{""page_index"":0,""viewing_time"":8207.5},{""page_index"":1,""viewing_time"":23654.600000023842}]","31867.400000035763","","","","","","","","","","","","","","","","","","","","","","","","","","","","","","","","","","","",""
"external-html","2","38568","0.0-2.0","3","0","k1fl0ocvgl8144f","","6553.199999988079","consent/consent.html","","","","","","","","","","","","","","","","","","","","","","","","","","","","","","","","","","",""
"html-button-response","3","56942","0.0-3.0-0.0-0.0","3","0","k1fl0ocvgl8144f","","18370.5","","<p>Welcome to the study. You will first complete a short volume calibration and headphone check.</p><p>Please make sure you are in a quiet listening environment, that you are wearing headphones, and that your computer's volume is turned on.<p></p>","0","","","","","","","","","","","","","","","","","","","","","","","","","","","","","","","","",""
"html-button-response","4","59274","0.0-3.0-0.0-1.0","3","0","k1fl0ocvgl8144f","","2075","","<p>The volume calibration will be first.</p><p>You will hear a thirty-second noise. Please adjust your computer's volume so that this noise is being presented at a comfortable level.<p></p>","0","","","","","","","","","","","","","","","","","","","","","","","","","","","","","","","","",""
"audio-button-response","5","78709","0.0-3.0-0.0-2.0","3","0","k1fl0ocvgl8144f","","17195","","audCalib/volumetest.mp3","0","","","","","","","","","","","","","","","","","","","","","","","","","","","","","","","","",""
"html-button-response","6","86853","0.0-3.0-1.0-0.0","3","0","k1fl0ocvgl8144f","","8142.899999976158","","<p>You will now complete a short headphone check.</p><p>On each trial, you will hear three tones. One of these tones will be quieter than the others. Your task is to identify whether the quiet tone occured first, second, or third.</p><p>There are six trials in total.<p></p>","0","","","","","","","","","","","","","","","","","","","","","","","","","","","","","","","","",""
"html-keyboard-response","7","87613","0.0-3.0-1.0-1.0-0.0","3","0","k1fl0ocvgl8144f","","null","","<div style=""font-size:60px;"">+</div>","","null","","","","","","","","","","","","","","","","","","","","","","","","","","","","","","","",""
"audio-button-response","8","92576","0.0-3.0-1.0-1.0-1.0","3","0","k1fl0ocvgl8144f","","4960","","audCalib/t3_1.mp3","2","","2","1","headphone-test","","","","","","","","","","","","","","","","","","","","","","","","","","","","",""
"html-keyboard-response","9","93335","0.0-3.0-1.0-1.0-0.1","3","0","k1fl0ocvgl8144f","","null","","<div style=""font-size:60px;"">+</div>","","null","","","","","","","","","","","","","","","","","","","","","","","","","","","","","","","",""
"audio-button-response","10","98087","0.0-3.0-1.0-1.0-1.1","3","0","k1fl0ocvgl8144f","","4747","","audCalib/t3_2.mp3","2","","2","1","headphone-test","","","","","","","","","","","","","","","","","","","","","","","","","","","","",""
"html-keyboard-response","11","98840","0.0-3.0-1.0-1.0-0.2","3","0","k1fl0ocvgl8144f","","null","","<div style=""font-size:60px;"">+</div>","","null","","","","","","","","","","","","","","","","","","","","","","","","","","","","","","","",""
"audio-button-response","12","103647","0.0-3.0-1.0-1.0-1.2","3","0","k1fl0ocvgl8144f","","4805","","audCalib/t2_1.mp3","1","","1","1","headphone-test","","","","","","","","","","","","","","","","","","","","","","","","","","","","",""
"html-keyboard-response","13","104402","0.0-3.0-1.0-1.0-0.3","3","0","k1fl0ocvgl8144f","","null","","<div style=""font-size:60px;"">+</div>","","null","","","","","","","","","","","","","","","","","","","","","","","","","","","","","","","",""
"audio-button-response","14","109230","0.0-3.0-1.0-1.0-1.3","3","0","k1fl0ocvgl8144f","","4827","","audCalib/t2_2.mp3","1","","1","1","headphone-test","","","","","","","","","","","","","","","","","","","","","","","","","","","","",""
"html-keyboard-response","15","109991","0.0-3.0-1.0-1.0-0.4","3","0","k1fl0ocvgl8144f","","null","","<div style=""font-size:60px;"">+</div>","","null","","","","","","","","","","","","","","","","","","","","","","","","","","","","","","","",""
"audio-button-response","16","114523","0.0-3.0-1.0-1.0-1.4","3","0","k1fl0ocvgl8144f","","4528","","audCalib/t1_2.mp3","0","","0","1","headphone-test","","","","","","","","","","","","","","","","","","","","","","","","","","","","",""
"html-keyboard-response","17","115277","0.0-3.0-1.0-1.0-0.5","3","0","k1fl0ocvgl8144f","","null","","<div style=""font-size:60px;"">+</div>","","null","","","","","","","","","","","","","","","","","","","","","","","","","","","","","","","",""
"audio-button-response","18","119927","0.0-3.0-1.0-1.0-1.5","3","0","k1fl0ocvgl8144f","","4645","","audCalib/t1_1.mp3","0","","0","1","headphone-test","","","","","","","","","","","","","","","","","","","","","","","","","","","","",""
"html-button-response","19","122284","0.0-3.0-2.0","3","0","k1fl0ocvgl8144f","","2103.600000023842","","<p>The volume calibration and headphone check are now complete.</p>","0","","","","","","","","","","","","","","","","","","","","","","","","","","","","","","","","",""
"instructions","20","138059","0.0-4.0-0.0","3","0","k1fl0ocvgl8144f","[{""page_index"":0,""viewing_time"":1794.1000000238419},{""page_index"":1,""viewing_time"":9828.899999976158},{""page_index"":2,""viewing_time"":4150.200000047684}]","15773.800000011921","","","","","","","","","","","","","","","","","","","","","","","","","","","","","","","","","","","",""
"audio-keyboard-response","21","138366","0.0-4.0-1.0-0.0","3","0","k1fl0ocvgl8144f","","null","","sounds/induction/left_rev/su_SWS.wav","","null","","","","","","","","","","","","","","","","","","","","","","","","","","","","","","","",""
"html-button-response","22","140208","0.0-4.0-1.0-1.0","3","0","k1fl0ocvgl8144f","","1840.199999988079","","Was the sound coming from the left or the right?","0","","","1","INDUCTION-JUDGMENT","left","0","","","","","","","","","","","","","","","","","","","","","","","","","","",""
"html-keyboard-response","23","141212","0.0-4.0-1.0-2.0","3","0","k1fl0ocvgl8144f","","null","","<p style=""color:#054d00;""><b>Correct!</b></p>","","null","","","","","","","","","","","","","","","","","","","","","","","","","","","","","","","",""
"audio-keyboard-response","24","142013","0.0-4.0-1.0-0.1","3","0","k1fl0ocvgl8144f","","null","","sounds/induction/right_rev/re_SWS.wav","","null","","","","","","","","","","","","","","","","","","","","","","","","","","","","","","","",""
"html-button-response","25","143045","0.0-4.0-1.0-1.1","3","0","k1fl0ocvgl8144f","","1029.3999999761581","","Was the sound coming from the left or the right?","1","","","1","INDUCTION-JUDGMENT","right","1","","","","","","","","","","","","","","","","","","","","","","","","","","",""
"html-keyboard-response","26","144050","0.0-4.0-1.0-2.1","3","0","k1fl0ocvgl8144f","","null","","<p style=""color:#054d00;""><b>Correct!</b></p>","","null","","","","","","","","","","","","","","","","","","","","","","","","","","","","","","","",""
"audio-keyboard-response","27","144856","0.0-4.0-1.0-0.2","3","0","k1fl0ocvgl8144f","","null","","sounds/induction/left_rev/ti_SWS.wav","","null","","","","","","","","","","","","","","","","","","","","","","","","","","","","","","","",""
"html-button-response","28","146141","0.0-4.0-1.0-1.2","3","0","k1fl0ocvgl8144f","","1283","","Was the sound coming from the left or the right?","0","","","1","INDUCTION-JUDGMENT","left","0","","","","","","","","","","","","","","","","","","","","","","","","","","",""
"html-keyboard-response","29","147146","0.0-4.0-1.0-2.2","3","0","k1fl0ocvgl8144f","","null","","<p style=""color:#054d00;""><b>Correct!</b></p>","","null","","","","","","","","","","","","","","","","","","","","","","","","","","","","","","","",""
"audio-keyboard-response","30","147949","0.0-4.0-1.0-0.3","3","0","k1fl0ocvgl8144f","","null","","sounds/induction/right_rev/fu_SWS.wav","","null","","","","","","","","","","","","","","","","","","","","","","","","","","","","","","","",""
"html-button-response","31","148866","0.0-4.0-1.0-1.3","3","0","k1fl0ocvgl8144f","","913.0999999642372","","Was the sound coming from the left or the right?","1","","","1","INDUCTION-JUDGMENT","right","1","","","","","","","","","","","","","","","","","","","","","","","","","","",""
"html-keyboard-response","32","149869","0.0-4.0-1.0-2.3","3","0","k1fl0ocvgl8144f","","null","","<p style=""color:#054d00;""><b>Correct!</b></p>","","null","","","","","","","","","","","","","","","","","","","","","","","","","","","","","","","",""
"audio-keyboard-response","33","150674","0.0-4.0-1.0-0.4","3","0","k1fl0ocvgl8144f","","null","","sounds/induction/right_rev/pu_SWS.wav","","null","","","","","","","","","","","","","","","","","","","","","","","","","","","","","","","",""
"html-button-response","34","151521","0.0-4.0-1.0-1.4","3","0","k1fl0ocvgl8144f","","845.3999999761581","","Was the sound coming from the left or the right?","1","","","1","INDUCTION-JUDGMENT","right","1","","","","","","","","","","","","","","","","","","","","","","","","","","",""
"html-keyboard-response","35","152524","0.0-4.0-1.0-2.4","3","0","k1fl0ocvgl8144f","","null","","<p style=""color:#054d00;""><b>Correct!</b></p>","","null","","","","","","","","","","","","","","","","","","","","","","","","","","","","","","","",""
"audio-keyboard-response","36","153325","0.0-4.0-1.0-0.5","3","0","k1fl0ocvgl8144f","","null","","sounds/induction/right_rev/fu_SWS.wav","","null","","","","","","","","","","","","","","","","","","","","","","","","","","","","","","","",""
"html-button-response","37","154236","0.0-4.0-1.0-1.5","3","0","k1fl0ocvgl8144f","","910.0999999642372","","Was the sound coming from the left or the right?","1","","","1","INDUCTION-JUDGMENT","right","1","","","","","","","","","","","","","","","","","","","","","","","","","","",""
"html-keyboard-response","38","155239","0.0-4.0-1.0-2.5","3","0","k1fl0ocvgl8144f","","null","","<p style=""color:#054d00;""><b>Correct!</b></p>","","null","","","","","","","","","","","","","","","","","","","","","","","","","","","","","","","",""
"audio-keyboard-response","39","156040","0.0-4.0-1.0-0.6","3","0","k1fl0ocvgl8144f","","null","","sounds/induction/left_rev/re_SWS.wav","","null","","","","","","","","","","","","","","","","","","","","","","","","","","","","","","","",""
"html-button-response","40","157423","0.0-4.0-1.0-1.6","3","0","k1fl0ocvgl8144f","","1381.8999999761581","","Was the sound coming from the left or the right?","0","","","1","INDUCTION-JUDGMENT","left","0","","","","","","","","","","","","","","","","","","","","","","","","","","",""
"html-keyboard-response","41","158429","0.0-4.0-1.0-2.6","3","0","k1fl0ocvgl8144f","","null","","<p style=""color:#054d00;""><b>Correct!</b></p>","","null","","","","","","","","","","","","","","","","","","","","","","","","","","","","","","","",""
"audio-keyboard-response","42","159234","0.0-4.0-1.0-0.7","3","0","k1fl0ocvgl8144f","","null","","sounds/induction/right_rev/pu_SWS.wav","","null","","","","","","","","","","","","","","","","","","","","","","","","","","","","","","","",""
"html-button-response","43","160106","0.0-4.0-1.0-1.7","3","0","k1fl0ocvgl8144f","","870.1999999880791","","Was the sound coming from the left or the right?","1","","","1","INDUCTION-JUDGMENT","right","1","","","","","","","","","","","","","","","","","","","","","","","","","","",""
"html-keyboard-response","44","161111","0.0-4.0-1.0-2.7","3","0","k1fl0ocvgl8144f","","null","","<p style=""color:#054d00;""><b>Correct!</b></p>","","null","","","","","","","","","","","","","","","","","","","","","","","","","","","","","","","",""
"audio-keyboard-response","45","161912","0.0-4.0-1.0-0.8","3","0","k1fl0ocvgl8144f","","null","","sounds/induction/right_rev/ge_SWS.wav","","null","","","","","","","","","","","","","","","","","","","","","","","","","","","","","","","",""
"html-button-response","46","162779","0.0-4.0-1.0-1.8","3","0","k1fl0ocvgl8144f","","865","","Was the sound coming from the left or the right?","1","","","1","INDUCTION-JUDGMENT","right","1","","","","","","","","","","","","","","","","","","","","","","","","","","",""
"html-keyboard-response","47","163783","0.0-4.0-1.0-2.8","3","0","k1fl0ocvgl8144f","","null","","<p style=""color:#054d00;""><b>Correct!</b></p>","","null","","","","","","","","","","","","","","","","","","","","","","","","","","","","","","","",""
"audio-keyboard-response","48","164589","0.0-4.0-1.0-0.9","3","0","k1fl0ocvgl8144f","","null","","sounds/induction/left_rev/ta_SWS.wav","","null","","","","","","","","","","","","","","","","","","","","","","","","","","","","","","","",""
"html-button-response","49","165592","0.0-4.0-1.0-1.9","3","0","k1fl0ocvgl8144f","","1000.8999999761581","","Was the sound coming from the left or the right?","0","","","1","INDUCTION-JUDGMENT","left","0","","","","","","","","","","","","","","","","","","","","","","","","","","",""
"html-keyboard-response","50","166593","0.0-4.0-1.0-2.9","3","0","k1fl0ocvgl8144f","","null","","<p style=""color:#054d00;""><b>Correct!</b></p>","","null","","","","","","","","","","","","","","","","","","","","","","","","","","","","","","","",""
"audio-keyboard-response","51","167395","0.0-4.0-1.0-0.10","3","0","k1fl0ocvgl8144f","","null","","sounds/induction/right_rev/me_SWS.wav","","null","","","","","","","","","","","","","","","","","","","","","","","","","","","","","","","",""
"html-button-response","52","168185","0.0-4.0-1.0-1.10","3","0","k1fl0ocvgl8144f","","788.5","","Was the sound coming from the left or the right?","1","","","1","INDUCTION-JUDGMENT","right","1","","","","","","","","","","","","","","","","","","","","","","","","","","",""
"html-keyboard-response","53","169186","0.0-4.0-1.0-2.10","3","0","k1fl0ocvgl8144f","","null","","<p style=""color:#054d00;""><b>Correct!</b></p>","","null","","","","","","","","","","","","","","","","","","","","","","","","","","","","","","","",""
"audio-keyboard-response","54","169992","0.0-4.0-1.0-0.11","3","0","k1fl0ocvgl8144f","","null","","sounds/induction/right_rev/ni_SWS.wav","","null","","","","","","","","","","","","","","","","","","","","","","","","","","","","","","","",""
"html-button-response","55","170826","0.0-4.0-1.0-1.11","3","0","k1fl0ocvgl8144f","","833.1000000238419","","Was the sound coming from the left or the right?","1","","","1","INDUCTION-JUDGMENT","right","1","","","","","","","","","","","","","","","","","","","","","","","","","","",""
"html-keyboard-response","56","171831","0.0-4.0-1.0-2.11","3","0","k1fl0ocvgl8144f","","null","","<p style=""color:#054d00;""><b>Correct!</b></p>","","null","","","","","","","","","","","","","","","","","","","","","","","","","","","","","","","",""
"audio-keyboard-response","57","172637","0.0-4.0-1.0-0.12","3","0","k1fl0ocvgl8144f","","null","","sounds/induction/right_rev/fe_SWS.wav","","null","","","","","","","","","","","","","","","","","","","","","","","","","","","","","","","",""
"html-button-response","58","173378","0.0-4.0-1.0-1.12","3","0","k1fl0ocvgl8144f","","739","","Was the sound coming from the left or the right?","1","","","1","INDUCTION-JUDGMENT","right","1","","","","","","","","","","","","","","","","","","","","","","","","","","",""
"html-keyboard-response","59","174380","0.0-4.0-1.0-2.12","3","0","k1fl0ocvgl8144f","","null","","<p style=""color:#054d00;""><b>Correct!</b></p>","","null","","","","","","","","","","","","","","","","","","","","","","","","","","","","","","","",""
"audio-keyboard-response","60","175181","0.0-4.0-1.0-0.13","3","0","k1fl0ocvgl8144f","","null","","sounds/induction/left_rev/ge_SWS.wav","","null","","","","","","","","","","","","","","","","","","","","","","","","","","","","","","","",""
"html-button-response","61","176207","0.0-4.0-1.0-1.13","3","0","k1fl0ocvgl8144f","","1023.8999999761581","","Was the sound coming from the left or the right?","0","","","1","INDUCTION-JUDGMENT","left","0","","","","","","","","","","","","","","","","","","","","","","","","","","",""
"html-keyboard-response","62","177212","0.0-4.0-1.0-2.13","3","0","k1fl0ocvgl8144f","","null","","<p style=""color:#054d00;""><b>Correct!</b></p>","","null","","","","","","","","","","","","","","","","","","","","","","","","","","","","","","","",""
"audio-keyboard-response","63","178019","0.0-4.0-1.0-0.14","3","0","k1fl0ocvgl8144f","","null","","sounds/induction/right_rev/ni_SWS.wav","","null","","","","","","","","","","","","","","","","","","","","","","","","","","","","","","","",""
"html-button-response","64","178768","0.0-4.0-1.0-1.14","3","0","k1fl0ocvgl8144f","","747.5","","Was the sound coming from the left or the right?","1","","","1","INDUCTION-JUDGMENT","right","1","","","","","","","","","","","","","","","","","","","","","","","","","","",""
"html-keyboard-response","65","179771","0.0-4.0-1.0-2.14","3","0","k1fl0ocvgl8144f","","null","","<p style=""color:#054d00;""><b>Correct!</b></p>","","null","","","","","","","","","","","","","","","","","","","","","","","","","","","","","","","",""
"audio-keyboard-response","66","180578","0.0-4.0-1.0-0.15","3","0","k1fl0ocvgl8144f","","null","","sounds/induction/left_rev/ge_SWS.wav","","null","","","","","","","","","","","","","","","","","","","","","","","","","","","","","","","",""
"html-button-response","67","181417","0.0-4.0-1.0-1.15","3","0","k1fl0ocvgl8144f","","837.3000000119209","","Was the sound coming from the left or the right?","0","","","1","INDUCTION-JUDGMENT","left","0","","","","","","","","","","","","","","","","","","","","","","","","","","",""
"html-keyboard-response","68","182420","0.0-4.0-1.0-2.15","3","0","k1fl0ocvgl8144f","","null","","<p style=""color:#054d00;""><b>Correct!</b></p>","","null","","","","","","","","","","","","","","","","","","","","","","","","","","","","","","","",""
"audio-keyboard-response","69","183223","0.0-4.0-1.0-0.16","3","0","k1fl0ocvgl8144f","","null","","sounds/induction/left_rev/ko_SWS.wav","","null","","","","","","","","","","","","","","","","","","","","","","","","","","","","","","","",""
"html-button-response","70","184229","0.0-4.0-1.0-1.16","3","0","k1fl0ocvgl8144f","","1002.8999999761581","","Was the sound coming from the left or the right?","0","","","1","INDUCTION-JUDGMENT","left","0","","","","","","","","","","","","","","","","","","","","","","","","","","",""
"html-keyboard-response","71","185231","0.0-4.0-1.0-2.16","3","0","k1fl0ocvgl8144f","","null","","<p style=""color:#054d00;""><b>Correct!</b></p>","","null","","","","","","","","","","","","","","","","","","","","","","","","","","","","","","","",""
"audio-keyboard-response","72","186039","0.0-4.0-1.0-0.17","3","0","k1fl0ocvgl8144f","","null","","sounds/induction/left_rev/ni_SWS.wav","","null","","","","","","","","","","","","","","","","","","","","","","","","","","","","","","","",""
"html-button-response","73","186773","0.0-4.0-1.0-1.17","3","0","k1fl0ocvgl8144f","","732.0999999642372","","Was the sound coming from the left or the right?","0","","","1","INDUCTION-JUDGMENT","left","0","","","","","","","","","","","","","","","","","","","","","","","","","","",""
"html-keyboard-response","74","187777","0.0-4.0-1.0-2.17","3","0","k1fl0ocvgl8144f","","null","","<p style=""color:#054d00;""><b>Correct!</b></p>","","null","","","","","","","","","","","","","","","","","","","","","","","","","","","","","","","",""
"audio-keyboard-response","75","188584","0.0-4.0-1.0-0.18","3","0","k1fl0ocvgl8144f","","null","","sounds/induction/left_rev/me_SWS.wav","","null","","","","","","","","","","","","","","","","","","","","","","","","","","","","","","","",""
"html-button-response","76","189301","0.0-4.0-1.0-1.18","3","0","k1fl0ocvgl8144f","","715.6000000238419","","Was the sound coming from the left or the right?","0","","","1","INDUCTION-JUDGMENT","left","0","","","","","","","","","","","","","","","","","","","","","","","","","","",""
"html-keyboard-response","77","190306","0.0-4.0-1.0-2.18","3","0","k1fl0ocvgl8144f","","null","","<p style=""color:#054d00;""><b>Correct!</b></p>","","null","","","","","","","","","","","","","","","","","","","","","","","","","","","","","","","",""
"audio-keyboard-response","78","191106","0.0-4.0-1.0-0.19","3","0","k1fl0ocvgl8144f","","null","","sounds/induction/right_rev/ge_SWS.wav","","null","","","","","","","","","","","","","","","","","","","","","","","","","","","","","","","",""
"html-button-response","79","191975","0.0-4.0-1.0-1.19","3","0","k1fl0ocvgl8144f","","866.6999999880791","","Was the sound coming from the left or the right?","1","","","1","INDUCTION-JUDGMENT","right","1","","","","","","","","","","","","","","","","","","","","","","","","","","",""
"html-keyboard-response","80","192977","0.0-4.0-1.0-2.19","3","0","k1fl0ocvgl8144f","","null","","<p style=""color:#054d00;""><b>Correct!</b></p>","","null","","","","","","","","","","","","","","","","","","","","","","","","","","","","","","","",""
"audio-keyboard-response","81","193778","0.0-4.0-1.0-0.20","3","0","k1fl0ocvgl8144f","","null","","sounds/induction/left_rev/ta_SWS.wav","","null","","","","","","","","","","","","","","","","","","","","","","","","","","","","","","","",""
"html-button-response","82","194592","0.0-4.0-1.0-1.20","3","0","k1fl0ocvgl8144f","","812.3999999761581","","Was the sound coming from the left or the right?","0","","","1","INDUCTION-JUDGMENT","left","0","","","","","","","","","","","","","","","","","","","","","","","","","","",""
"html-keyboard-response","83","195594","0.0-4.0-1.0-2.20","3","0","k1fl0ocvgl8144f","","null","","<p style=""color:#054d00;""><b>Correct!</b></p>","","null","","","","","","","","","","","","","","","","","","","","","","","","","","","","","","","",""
"audio-keyboard-response","84","196397","0.0-4.0-1.0-0.21","3","0","k1fl0ocvgl8144f","","null","","sounds/induction/left_rev/fe_SWS.wav","","null","","","","","","","","","","","","","","","","","","","","","","","","","","","","","","","",""
"html-button-response","85","197453","0.0-4.0-1.0-1.21","3","0","k1fl0ocvgl8144f","","1054.199999988079","","Was the sound coming from the left or the right?","0","","","1","INDUCTION-JUDGMENT","left","0","","","","","","","","","","","","","","","","","","","","","","","","","","",""
"html-keyboard-response","86","198455","0.0-4.0-1.0-2.21","3","0","k1fl0ocvgl8144f","","null","","<p style=""color:#054d00;""><b>Correct!</b></p>","","null","","","","","","","","","","","","","","","","","","","","","","","","","","","","","","","",""
"audio-keyboard-response","87","199256","0.0-4.0-1.0-0.22","3","0","k1fl0ocvgl8144f","","null","","sounds/induction/right_rev/ko_SWS.wav","","null","","","","","","","","","","","","","","","","","","","","","","","","","","","","","","","",""
"html-button-response","88","200144","0.0-4.0-1.0-1.22","3","0","k1fl0ocvgl8144f","","886.3000000119209","","Was the sound coming from the left or the right?","1","","","1","INDUCTION-JUDGMENT","right","1","","","","","","","","","","","","","","","","","","","","","","","","","","",""
"html-keyboard-response","89","201148","0.0-4.0-1.0-2.22","3","0","k1fl0ocvgl8144f","","null","","<p style=""color:#054d00;""><b>Correct!</b></p>","","null","","","","","","","","","","","","","","","","","","","","","","","","","","","","","","","",""
"audio-keyboard-response","90","201949","0.0-4.0-1.0-0.23","3","0","k1fl0ocvgl8144f","","null","","sounds/induction/left_rev/pu_SWS.wav","","null","","","","","","","","","","","","","","","","","","","","","","","","","","","","","","","",""
"html-button-response","91","203638","0.0-4.0-1.0-1.23","3","0","k1fl0ocvgl8144f","","1687.5","","Was the sound coming from the left or the right?","0","","","1","INDUCTION-JUDGMENT","left","0","","","","","","","","","","","","","","","","","","","","","","","","","","",""
"html-keyboard-response","92","204642","0.0-4.0-1.0-2.23","3","0","k1fl0ocvgl8144f","","null","","<p style=""color:#054d00;""><b>Correct!</b></p>","","null","","","","","","","","","","","","","","","","","","","","","","","","","","","","","","","",""
"audio-keyboard-response","93","205448","0.0-4.0-1.0-0.24","3","0","k1fl0ocvgl8144f","","null","","sounds/induction/left_rev/fu_SWS.wav","","null","","","","","","","","","","","","","","","","","","","","","","","","","","","","","","","",""
"html-button-response","94","206653","0.0-4.0-1.0-1.24","3","0","k1fl0ocvgl8144f","","1203.699999988079","","Was the sound coming from the left or the right?","0","","","1","INDUCTION-JUDGMENT","left","0","","","","","","","","","","","","","","","","","","","","","","","","","","",""
"html-keyboard-response","95","207660","0.0-4.0-1.0-2.24","3","0","k1fl0ocvgl8144f","","null","","<p style=""color:#054d00;""><b>Correct!</b></p>","","null","","","","","","","","","","","","","","","","","","","","","","","","","","","","","","","",""
"audio-keyboard-response","96","208461","0.0-4.0-1.0-0.25","3","0","k1fl0ocvgl8144f","","null","","sounds/induction/left_rev/ni_SWS.wav","","null","","","","","","","","","","","","","","","","","","","","","","","","","","","","","","","",""
"html-button-response","97","209263","0.0-4.0-1.0-1.25","3","0","k1fl0ocvgl8144f","","801.1999999880791","","Was the sound coming from the left or the right?","0","","","1","INDUCTION-JUDGMENT","left","0","","","","","","","","","","","","","","","","","","","","","","","","","","",""
"html-keyboard-response","98","210268","0.0-4.0-1.0-2.25","3","0","k1fl0ocvgl8144f","","null","","<p style=""color:#054d00;""><b>Correct!</b></p>","","null","","","","","","","","","","","","","","","","","","","","","","","","","","","","","","","",""
"audio-keyboard-response","99","211069","0.0-4.0-1.0-0.26","3","0","k1fl0ocvgl8144f","","null","","sounds/induction/left_rev/fe_SWS.wav","","null","","","","","","","","","","","","","","","","","","","","","","","","","","","","","","","",""
"html-button-response","100","211914","0.0-4.0-1.0-1.26","3","0","k1fl0ocvgl8144f","","842.6000000238419","","Was the sound coming from the left or the right?","0","","","1","INDUCTION-JUDGMENT","left","0","","","","","","","","","","","","","","","","","","","","","","","","","","",""
"html-keyboard-response","101","212919","0.0-4.0-1.0-2.26","3","0","k1fl0ocvgl8144f","","null","","<p style=""color:#054d00;""><b>Correct!</b></p>","","null","","","","","","","","","","","","","","","","","","","","","","","","","","","","","","","",""
"audio-keyboard-response","102","213720","0.0-4.0-1.0-0.27","3","0","k1fl0ocvgl8144f","","null","","sounds/induction/right_rev/ko_SWS.wav","","null","","","","","","","","","","","","","","","","","","","","","","","","","","","","","","","",""
"html-button-response","103","214571","0.0-4.0-1.0-1.27","3","0","k1fl0ocvgl8144f","","849.1999999880791","","Was the sound coming from the left or the right?","1","","","1","INDUCTION-JUDGMENT","right","1","","","","","","","","","","","","","","","","","","","","","","","","","","",""
"html-keyboard-response","104","215575","0.0-4.0-1.0-2.27","3","0","k1fl0ocvgl8144f","","null","","<p style=""color:#054d00;""><b>Correct!</b></p>","","null","","","","","","","","","","","","","","","","","","","","","","","","","","","","","","","",""
"audio-keyboard-response","105","216375","0.0-4.0-1.0-0.28","3","0","k1fl0ocvgl8144f","","null","","sounds/induction/right_rev/ti_SWS.wav","","null","","","","","","","","","","","","","","","","","","","","","","","","","","","","","","","",""
"html-button-response","106","217301","0.0-4.0-1.0-1.28","3","0","k1fl0ocvgl8144f","","924.1000000238419","","Was the sound coming from the left or the right?","1","","","1","INDUCTION-JUDGMENT","right","1","","","","","","","","","","","","","","","","","","","","","","","","","","",""
"html-keyboard-response","107","218305","0.0-4.0-1.0-2.28","3","0","k1fl0ocvgl8144f","","null","","<p style=""color:#054d00;""><b>Correct!</b></p>","","null","","","","","","","","","","","","","","","","","","","","","","","","","","","","","","","",""
"audio-keyboard-response","108","219106","0.0-4.0-1.0-0.29","3","0","k1fl0ocvgl8144f","","null","","sounds/induction/right_rev/fe_SWS.wav","","null","","","","","","","","","","","","","","","","","","","","","","","","","","","","","","","",""
"html-button-response","109","220033","0.0-4.0-1.0-1.29","3","0","k1fl0ocvgl8144f","","924.8000000119209","","Was the sound coming from the left or the right?","1","","","1","INDUCTION-JUDGMENT","right","1","","","","","","","","","","","","","","","","","","","","","","","","","","",""
"html-keyboard-response","110","221037","0.0-4.0-1.0-2.29","3","0","k1fl0ocvgl8144f","","null","","<p style=""color:#054d00;""><b>Correct!</b></p>","","null","","","","","","","","","","","","","","","","","","","","","","","","","","","","","","","",""
"audio-keyboard-response","111","221842","0.0-4.0-1.0-0.30","3","0","k1fl0ocvgl8144f","","null","","sounds/induction/right_rev/ti_SWS.wav","","null","","","","","","","","","","","","","","","","","","","","","","","","","","","","","","","",""
"html-button-response","112","222650","0.0-4.0-1.0-1.30","3","0","k1fl0ocvgl8144f","","805.5999999642372","","Was the sound coming from the left or the right?","1","","","1","INDUCTION-JUDGMENT","right","1","","","","","","","","","","","","","","","","","","","","","","","","","","",""
"html-keyboard-response","113","223656","0.0-4.0-1.0-2.30","3","0","k1fl0ocvgl8144f","","null","","<p style=""color:#054d00;""><b>Correct!</b></p>","","null","","","","","","","","","","","","","","","","","","","","","","","","","","","","","","","",""
"audio-keyboard-response","114","224461","0.0-4.0-1.0-0.31","3","0","k1fl0ocvgl8144f","","null","","sounds/induction/right_rev/ru_SWS.wav","","null","","","","","","","","","","","","","","","","","","","","","","","","","","","","","","","",""
"html-button-response","115","225340","0.0-4.0-1.0-1.31","3","0","k1fl0ocvgl8144f","","877","","Was the sound coming from the left or the right?","1","","","1","INDUCTION-JUDGMENT","right","1","","","","","","","","","","","","","","","","","","","","","","","","","","",""
"html-keyboard-response","116","226343","0.0-4.0-1.0-2.31","3","0","k1fl0ocvgl8144f","","null","","<p style=""color:#054d00;""><b>Correct!</b></p>","","null","","","","","","","","","","","","","","","","","","","","","","","","","","","","","","","",""
"audio-keyboard-response","117","227149","0.0-4.0-1.0-0.32","3","0","k1fl0ocvgl8144f","","null","","sounds/induction/right_rev/ta_SWS.wav","","null","","","","","","","","","","","","","","","","","","","","","","","","","","","","","","","",""
"html-button-response","118","228060","0.0-4.0-1.0-1.32","3","0","k1fl0ocvgl8144f","","909.5","","Was the sound coming from the left or the right?","1","","","1","INDUCTION-JUDGMENT","right","1","","","","","","","","","","","","","","","","","","","","","","","","","","",""
"html-keyboard-response","119","229063","0.0-4.0-1.0-2.32","3","0","k1fl0ocvgl8144f","","null","","<p style=""color:#054d00;""><b>Correct!</b></p>","","null","","","","","","","","","","","","","","","","","","","","","","","","","","","","","","","",""
"audio-keyboard-response","120","229864","0.0-4.0-1.0-0.33","3","0","k1fl0ocvgl8144f","","null","","sounds/induction/left_rev/me_SWS.wav","","null","","","","","","","","","","","","","","","","","","","","","","","","","","","","","","","",""
"html-button-response","121","230814","0.0-4.0-1.0-1.33","3","0","k1fl0ocvgl8144f","","949.2999999523163","","Was the sound coming from the left or the right?","0","","","1","INDUCTION-JUDGMENT","left","0","","","","","","","","","","","","","","","","","","","","","","","","","","",""
"html-keyboard-response","122","231815","0.0-4.0-1.0-2.33","3","0","k1fl0ocvgl8144f","","null","","<p style=""color:#054d00;""><b>Correct!</b></p>","","null","","","","","","","","","","","","","","","","","","","","","","","","","","","","","","","",""
"audio-keyboard-response","123","232621","0.0-4.0-1.0-0.34","3","0","k1fl0ocvgl8144f","","null","","sounds/induction/right_rev/su_SWS.wav","","null","","","","","","","","","","","","","","","","","","","","","","","","","","","","","","","",""
"html-button-response","124","233712","0.0-4.0-1.0-1.34","3","0","k1fl0ocvgl8144f","","1089.800000011921","","Was the sound coming from the left or the right?","1","","","1","INDUCTION-JUDGMENT","right","1","","","","","","","","","","","","","","","","","","","","","","","","","","",""
"html-keyboard-response","125","234714","0.0-4.0-1.0-2.34","3","0","k1fl0ocvgl8144f","","null","","<p style=""color:#054d00;""><b>Correct!</b></p>","","null","","","","","","","","","","","","","","","","","","","","","","","","","","","","","","","",""
"audio-keyboard-response","126","235517","0.0-4.0-1.0-0.35","3","0","k1fl0ocvgl8144f","","null","","sounds/induction/right_rev/ta_SWS.wav","","null","","","","","","","","","","","","","","","","","","","","","","","","","","","","","","","",""
"html-button-response","127","236858","0.0-4.0-1.0-1.35","3","0","k1fl0ocvgl8144f","","1339.9000000357628","","Was the sound coming from the left or the right?","1","","","1","INDUCTION-JUDGMENT","right","1","","","","","","","","","","","","","","","","","","","","","","","","","","",""
"html-keyboard-response","128","237861","0.0-4.0-1.0-2.35","3","0","k1fl0ocvgl8144f","","null","","<p style=""color:#054d00;""><b>Correct!</b></p>","","null","","","","","","","","","","","","","","","","","","","","","","","","","","","","","","","",""
"audio-keyboard-response","129","238669","0.0-4.0-1.0-0.36","3","0","k1fl0ocvgl8144f","","null","","sounds/induction/right_rev/re_SWS.wav","","null","","","","","","","","","","","","","","","","","","","","","","","","","","","","","","","",""
"html-button-response","130","239443","0.0-4.0-1.0-1.36","3","0","k1fl0ocvgl8144f","","772","","Was the sound coming from the left or the right?","1","","","1","INDUCTION-JUDGMENT","right","1","","","","","","","","","","","","","","","","","","","","","","","","","","",""
"html-keyboard-response","131","240449","0.0-4.0-1.0-2.36","3","0","k1fl0ocvgl8144f","","null","","<p style=""color:#054d00;""><b>Correct!</b></p>","","null","","","","","","","","","","","","","","","","","","","","","","","","","","","","","","","",""
"audio-keyboard-response","132","241250","0.0-4.0-1.0-0.37","3","0","k1fl0ocvgl8144f","","null","","sounds/induction/left_rev/ko_SWS.wav","","null","","","","","","","","","","","","","","","","","","","","","","","","","","","","","","","",""
"html-button-response","133","241995","0.0-4.0-1.0-1.37","3","0","k1fl0ocvgl8144f","","743.1999999880791","","Was the sound coming from the left or the right?","0","","","1","INDUCTION-JUDGMENT","left","0","","","","","","","","","","","","","","","","","","","","","","","","","","",""
"html-keyboard-response","134","242998","0.0-4.0-1.0-2.37","3","0","k1fl0ocvgl8144f","","null","","<p style=""color:#054d00;""><b>Correct!</b></p>","","null","","","","","","","","","","","","","","","","","","","","","","","","","","","","","","","",""
"audio-keyboard-response","135","243805","0.0-4.0-1.0-0.38","3","0","k1fl0ocvgl8144f","","null","","sounds/induction/left_rev/re_SWS.wav","","null","","","","","","","","","","","","","","","","","","","","","","","","","","","","","","","",""
"html-button-response","136","244677","0.0-4.0-1.0-1.38","3","0","k1fl0ocvgl8144f","","870.3000000119209","","Was the sound coming from the left or the right?","0","","","1","INDUCTION-JUDGMENT","left","0","","","","","","","","","","","","","","","","","","","","","","","","","","",""
"html-keyboard-response","137","245681","0.0-4.0-1.0-2.38","3","0","k1fl0ocvgl8144f","","null","","<p style=""color:#054d00;""><b>Correct!</b></p>","","null","","","","","","","","","","","","","","","","","","","","","","","","","","","","","","","",""
"audio-keyboard-response","138","246482","0.0-4.0-1.0-0.39","3","0","k1fl0ocvgl8144f","","null","","sounds/induction/left_rev/pu_SWS.wav","","null","","","","","","","","","","","","","","","","","","","","","","","","","","","","","","","",""
"html-button-response","139","247490","0.0-4.0-1.0-1.39","3","0","k1fl0ocvgl8144f","","1006.3999999761581","","Was the sound coming from the left or the right?","0","","","1","INDUCTION-JUDGMENT","left","0","","","","","","","","","","","","","","","","","","","","","","","","","","",""
"html-keyboard-response","140","248492","0.0-4.0-1.0-2.39","3","0","k1fl0ocvgl8144f","","null","","<p style=""color:#054d00;""><b>Correct!</b></p>","","null","","","","","","","","","","","","","","","","","","","","","","","","","","","","","","","",""
"audio-keyboard-response","141","249293","0.0-4.0-1.0-0.40","3","0","k1fl0ocvgl8144f","","null","","sounds/induction/right_rev/ru_SWS.wav","","null","","","","","","","","","","","","","","","","","","","","","","","","","","","","","","","",""
"html-button-response","142","250310","0.0-4.0-1.0-1.40","3","0","k1fl0ocvgl8144f","","1015.6999999880791","","Was the sound coming from the left or the right?","1","","","1","INDUCTION-JUDGMENT","right","1","","","","","","","","","","","","","","","","","","","","","","","","","","",""
"html-keyboard-response","143","251313","0.0-4.0-1.0-2.40","3","0","k1fl0ocvgl8144f","","null","","<p style=""color:#054d00;""><b>Correct!</b></p>","","null","","","","","","","","","","","","","","","","","","","","","","","","","","","","","","","",""
"audio-keyboard-response","144","252114","0.0-4.0-1.0-0.41","3","0","k1fl0ocvgl8144f","","null","","sounds/induction/left_rev/ti_SWS.wav","","null","","","","","","","","","","","","","","","","","","","","","","","","","","","","","","","",""
"html-button-response","145","252928","0.0-4.0-1.0-1.41","3","0","k1fl0ocvgl8144f","","811.8000000119209","","Was the sound coming from the left or the right?","0","","","1","INDUCTION-JUDGMENT","left","0","","","","","","","","","","","","","","","","","","","","","","","","","","",""
"html-keyboard-response","146","253930","0.0-4.0-1.0-2.41","3","0","k1fl0ocvgl8144f","","null","","<p style=""color:#054d00;""><b>Correct!</b></p>","","null","","","","","","","","","","","","","","","","","","","","","","","","","","","","","","","",""
"audio-keyboard-response","147","254733","0.0-4.0-1.0-0.42","3","0","k1fl0ocvgl8144f","","null","","sounds/induction/left_rev/fu_SWS.wav","","null","","","","","","","","","","","","","","","","","","","","","","","","","","","","","","","",""
"html-button-response","148","255675","0.0-4.0-1.0-1.42","3","0","k1fl0ocvgl8144f","","940.5","","Was the sound coming from the left or the right?","0","","","1","INDUCTION-JUDGMENT","left","0","","","","","","","","","","","","","","","","","","","","","","","","","","",""
"html-keyboard-response","149","256679","0.0-4.0-1.0-2.42","3","0","k1fl0ocvgl8144f","","null","","<p style=""color:#054d00;""><b>Correct!</b></p>","","null","","","","","","","","","","","","","","","","","","","","","","","","","","","","","","","",""
"audio-keyboard-response","150","257480","0.0-4.0-1.0-0.43","3","0","k1fl0ocvgl8144f","","null","","sounds/induction/right_rev/su_SWS.wav","","null","","","","","","","","","","","","","","","","","","","","","","","","","","","","","","","",""
"html-button-response","151","258325","0.0-4.0-1.0-1.43","3","0","k1fl0ocvgl8144f","","844.3000000119209","","Was the sound coming from the left or the right?","1","","","1","INDUCTION-JUDGMENT","right","1","","","","","","","","","","","","","","","","","","","","","","","","","","",""
"html-keyboard-response","152","259330","0.0-4.0-1.0-2.43","3","0","k1fl0ocvgl8144f","","null","","<p style=""color:#054d00;""><b>Correct!</b></p>","","null","","","","","","","","","","","","","","","","","","","","","","","","","","","","","","","",""
"audio-keyboard-response","153","260136","0.0-4.0-1.0-0.44","3","0","k1fl0ocvgl8144f","","null","","sounds/induction/left_rev/ru_SWS.wav","","null","","","","","","","","","","","","","","","","","","","","","","","","","","","","","","","",""
"html-button-response","154","260959","0.0-4.0-1.0-1.44","3","0","k1fl0ocvgl8144f","","822.0999999642372","","Was the sound coming from the left or the right?","0","","","1","INDUCTION-JUDGMENT","left","0","","","","","","","","","","","","","","","","","","","","","","","","","","",""
"html-keyboard-response","155","261964","0.0-4.0-1.0-2.44","3","0","k1fl0ocvgl8144f","","null","","<p style=""color:#054d00;""><b>Correct!</b></p>","","null","","","","","","","","","","","","","","","","","","","","","","","","","","","","","","","",""
"audio-keyboard-response","156","262770","0.0-4.0-1.0-0.45","3","0","k1fl0ocvgl8144f","","null","","sounds/induction/left_rev/ru_SWS.wav","","null","","","","","","","","","","","","","","","","","","","","","","","","","","","","","","","",""
"html-button-response","157","263706","0.0-4.0-1.0-1.45","3","0","k1fl0ocvgl8144f","","934.5","","Was the sound coming from the left or the right?","0","","","1","INDUCTION-JUDGMENT","left","0","","","","","","","","","","","","","","","","","","","","","","","","","","",""
"html-keyboard-response","158","264710","0.0-4.0-1.0-2.45","3","0","k1fl0ocvgl8144f","","null","","<p style=""color:#054d00;""><b>Correct!</b></p>","","null","","","","","","","","","","","","","","","","","","","","","","","","","","","","","","","",""
"audio-keyboard-response","159","265511","0.0-4.0-1.0-0.46","3","0","k1fl0ocvgl8144f","","null","","sounds/induction/right_rev/me_SWS.wav","","null","","","","","","","","","","","","","","","","","","","","","","","","","","","","","","","",""
"html-button-response","160","266454","0.0-4.0-1.0-1.46","3","0","k1fl0ocvgl8144f","","941.0999999642372","","Was the sound coming from the left or the right?","1","","","1","INDUCTION-JUDGMENT","right","1","","","","","","","","","","","","","","","","","","","","","","","","","","",""
"html-keyboard-response","161","267457","0.0-4.0-1.0-2.46","3","0","k1fl0ocvgl8144f","","null","","<p style=""color:#054d00;""><b>Correct!</b></p>","","null","","","","","","","","","","","","","","","","","","","","","","","","","","","","","","","",""
"audio-keyboard-response","162","268258","0.0-4.0-1.0-0.47","3","0","k1fl0ocvgl8144f","","null","","sounds/induction/left_rev/su_SWS.wav","","null","","","","","","","","","","","","","","","","","","","","","","","","","","","","","","","",""
"html-button-response","163","268908","0.0-4.0-1.0-1.47","3","0","k1fl0ocvgl8144f","","648.5","","Was the sound coming from the left or the right?","0","","","1","INDUCTION-JUDGMENT","left","0","","","","","","","","","","","","","","","","","","","","","","","","","","",""
"html-keyboard-response","164","269910","0.0-4.0-1.0-2.47","3","0","k1fl0ocvgl8144f","","null","","<p style=""color:#054d00;""><b>Correct!</b></p>","","null","","","","","","","","","","","","","","","","","","","","","","","","","","","","","","","",""
"html-button-response","165","277046","0.0-5.0-0.0","3","0","k1fl0ocvgl8144f","","6632.900000035763","","<p>Thank you for your answers.</p><p>You will now listen to similar sounds. The main difference is that the sounds will be longer.</p><p>Just as before, you will be asked to judge whether the sound was coming from the left or the right.</p><p>There are 10 of these longer sounds in total.","0","","","","","","","","","","","","","","","","","","","","","","","","","","","","","","","","",""
"audio-keyboard-response","166","279794","0.0-5.0-1.0-0.0","3","0","k1fl0ocvgl8144f","","null","","sounds/sentences/right_rev/14_06_cfSWS.wav","","null","","","","","","","","","","","","","","","","","","","","","","","","","","","","","","","",""
"html-button-response","167","280899","0.0-5.0-1.0-1.0","3","0","k1fl0ocvgl8144f","","1102.699999988079","","Was the sound coming from the left or the right?","1","","","1","INDUCTION-JUDGMENT","right","1","","","","","","","","","","","","","","","","","","","","","","","","","","",""
"html-keyboard-response","168","281906","0.0-5.0-1.0-2.0","3","0","k1fl0ocvgl8144f","","null","","<p style=""color:#054d00;""><b>Correct!</b></p>","","null","","","","","","","","","","","","","","","","","","","","","","","","","","","","","","","",""
"html-button-response","169","283696","0.0-5.0-1.0-3.0","3","0","k1fl0ocvgl8144f","","1286.800000011921","","<p>Press the button below when you are ready to continue.</p>","0","","","","","","","","","","","","","","","","","","","","","","","","","","","","","","","","",""
"audio-keyboard-response","170","286589","0.0-5.0-1.0-0.1","3","0","k1fl0ocvgl8144f","","null","","sounds/sentences/right_rev/14_07_cfSWS.wav","","null","","","","","","","","","","","","","","","","","","","","","","","","","","","","","","","",""
"html-button-response","171","287296","0.0-5.0-1.0-1.1","3","0","k1fl0ocvgl8144f","","703.8999999761581","","Was the sound coming from the left or the right?","1","","","1","INDUCTION-JUDGMENT","right","1","","","","","","","","","","","","","","","","","","","","","","","","","","",""
"html-keyboard-response","172","288300","0.0-5.0-1.0-2.1","3","0","k1fl0ocvgl8144f","","null","","<p style=""color:#054d00;""><b>Correct!</b></p>","","null","","","","","","","","","","","","","","","","","","","","","","","","","","","","","","","",""
"html-button-response","173","289620","0.0-5.0-1.0-3.1","3","0","k1fl0ocvgl8144f","","817.6000000238419","","<p>Press the button below when you are ready to continue.</p>","0","","","","","","","","","","","","","","","","","","","","","","","","","","","","","","","","",""
"audio-keyboard-response","174","292744","0.0-5.0-1.0-0.2","3","0","k1fl0ocvgl8144f","","null","","sounds/sentences/left_rev/14_01_cfSWS.wav","","null","","","","","","","","","","","","","","","","","","","","","","","","","","","","","","","",""
"html-button-response","175","293523","0.0-5.0-1.0-1.2","3","0","k1fl0ocvgl8144f","","776.3999999761581","","Was the sound coming from the left or the right?","0","","","1","INDUCTION-JUDGMENT","left","0","","","","","","","","","","","","","","","","","","","","","","","","","","",""
"html-keyboard-response","176","294525","0.0-5.0-1.0-2.2","3","0","k1fl0ocvgl8144f","","null","","<p style=""color:#054d00;""><b>Correct!</b></p>","","null","","","","","","","","","","","","","","","","","","","","","","","","","","","","","","","",""
"html-button-response","177","295786","0.0-5.0-1.0-3.2","3","0","k1fl0ocvgl8144f","","754.6000000238419","","<p>Press the button below when you are ready to continue.</p>","0","","","","","","","","","","","","","","","","","","","","","","","","","","","","","","","","",""
"audio-keyboard-response","178","298781","0.0-5.0-1.0-0.3","3","0","k1fl0ocvgl8144f","","null","","sounds/sentences/left_rev/14_05_cfSWS.wav","","null","","","","","","","","","","","","","","","","","","","","","","","","","","","","","","","",""
"html-button-response","179","299579","0.0-5.0-1.0-1.3","3","0","k1fl0ocvgl8144f","","795.5999999642372","","Was the sound coming from the left or the right?","0","","","1","INDUCTION-JUDGMENT","left","0","","","","","","","","","","","","","","","","","","","","","","","","","","",""
"html-keyboard-response","180","300582","0.0-5.0-1.0-2.3","3","0","k1fl0ocvgl8144f","","null","","<p style=""color:#054d00;""><b>Correct!</b></p>","","null","","","","","","","","","","","","","","","","","","","","","","","","","","","","","","","",""
"html-button-response","181","301680","0.0-5.0-1.0-3.3","3","0","k1fl0ocvgl8144f","","595","","<p>Press the button below when you are ready to continue.</p>","0","","","","","","","","","","","","","","","","","","","","","","","","","","","","","","","","",""
"audio-keyboard-response","182","304701","0.0-5.0-1.0-0.4","3","0","k1fl0ocvgl8144f","","null","","sounds/sentences/right_rev/14_10_cfSWS.wav","","null","","","","","","","","","","","","","","","","","","","","","","","","","","","","","","","",""
"html-button-response","183","305301","0.0-5.0-1.0-1.4","3","0","k1fl0ocvgl8144f","","597","","Was the sound coming from the left or the right?","1","","","1","INDUCTION-JUDGMENT","right","1","","","","","","","","","","","","","","","","","","","","","","","","","","",""
"html-keyboard-response","184","306306","0.0-5.0-1.0-2.4","3","0","k1fl0ocvgl8144f","","null","","<p style=""color:#054d00;""><b>Correct!</b></p>","","null","","","","","","","","","","","","","","","","","","","","","","","","","","","","","","","",""
"html-button-response","185","307331","0.0-5.0-1.0-3.4","3","0","k1fl0ocvgl8144f","","517.5","","<p>Press the button below when you are ready to continue.</p>","0","","","","","","","","","","","","","","","","","","","","","","","","","","","","","","","","",""
"audio-keyboard-response","186","309885","0.0-5.0-1.0-0.5","3","0","k1fl0ocvgl8144f","","null","","sounds/sentences/left_rev/14_04_cfSWS.wav","","null","","","","","","","","","","","","","","","","","","","","","","","","","","","","","","","",""
"html-button-response","187","310624","0.0-5.0-1.0-1.5","3","0","k1fl0ocvgl8144f","","737.0999999642372","","Was the sound coming from the left or the right?","0","","","1","INDUCTION-JUDGMENT","left","0","","","","","","","","","","","","","","","","","","","","","","","","","","",""
"html-keyboard-response","188","311628","0.0-5.0-1.0-2.5","3","0","k1fl0ocvgl8144f","","null","","<p style=""color:#054d00;""><b>Correct!</b></p>","","null","","","","","","","","","","","","","","","","","","","","","","","","","","","","","","","",""
"html-button-response","189","312684","0.0-5.0-1.0-3.5","3","0","k1fl0ocvgl8144f","","553.6999999880791","","<p>Press the button below when you are ready to continue.</p>","0","","","","","","","","","","","","","","","","","","","","","","","","","","","","","","","","",""
"audio-keyboard-response","190","315442","0.0-5.0-1.0-0.6","3","0","k1fl0ocvgl8144f","","null","","sounds/sentences/right_rev/14_08_cfSWS.wav","","null","","","","","","","","","","","","","","","","","","","","","","","","","","","","","","","",""
"html-button-response","191","316111","0.0-5.0-1.0-1.6","3","0","k1fl0ocvgl8144f","","666.8000000119209","","Was the sound coming from the left or the right?","1","","","1","INDUCTION-JUDGMENT","right","1","","","","","","","","","","","","","","","","","","","","","","","","","","",""
"html-keyboard-response","192","317115","0.0-5.0-1.0-2.6","3","0","k1fl0ocvgl8144f","","null","","<p style=""color:#054d00;""><b>Correct!</b></p>","","null","","","","","","","","","","","","","","","","","","","","","","","","","","","","","","","",""
"html-button-response","193","318067","0.0-5.0-1.0-3.6","3","0","k1fl0ocvgl8144f","","447.5","","<p>Press the button below when you are ready to continue.</p>","0","","","","","","","","","","","","","","","","","","","","","","","","","","","","","","","","",""
"audio-keyboard-response","194","320658","0.0-5.0-1.0-0.7","3","0","k1fl0ocvgl8144f","","null","","sounds/sentences/left_rev/14_03_cfSWS.wav","","null","","","","","","","","","","","","","","","","","","","","","","","","","","","","","","","",""
"html-button-response","195","321353","0.0-5.0-1.0-1.7","3","0","k1fl0ocvgl8144f","","693.9000000357628","","Was the sound coming from the left or the right?","0","","","1","INDUCTION-JUDGMENT","left","0","","","","","","","","","","","","","","","","","","","","","","","","","","",""
"html-keyboard-response","196","322358","0.0-5.0-1.0-2.7","3","0","k1fl0ocvgl8144f","","null","","<p style=""color:#054d00;""><b>Correct!</b></p>","","null","","","","","","","","","","","","","","","","","","","","","","","","","","","","","","","",""
"html-button-response","197","323471","0.0-5.0-1.0-3.7","3","0","k1fl0ocvgl8144f","","611.5","","<p>Press the button below when you are ready to continue.</p>","0","","","","","","","","","","","","","","","","","","","","","","","","","","","","","","","","",""
"audio-keyboard-response","198","326204","0.0-5.0-1.0-0.8","3","0","k1fl0ocvgl8144f","","null","","sounds/sentences/right_rev/14_09_cfSWS.wav","","null","","","","","","","","","","","","","","","","","","","","","","","","","","","","","","","",""
"html-button-response","199","326749","0.0-5.0-1.0-1.8","3","0","k1fl0ocvgl8144f","","543.3000000119209","","Was the sound coming from the left or the right?","1","","","1","INDUCTION-JUDGMENT","right","1","","","","","","","","","","","","","","","","","","","","","","","","","","",""
"html-keyboard-response","200","327753","0.0-5.0-1.0-2.8","3","0","k1fl0ocvgl8144f","","null","","<p style=""color:#054d00;""><b>Correct!</b></p>","","null","","","","","","","","","","","","","","","","","","","","","","","","","","","","","","","",""
"html-button-response","201","328839","0.0-5.0-1.0-3.8","3","0","k1fl0ocvgl8144f","","585","","<p>Press the button below when you are ready to continue.</p>","0","","","","","","","","","","","","","","","","","","","","","","","","","","","","","","","","",""
"audio-keyboard-response","202","331661","0.0-5.0-1.0-0.9","3","0","k1fl0ocvgl8144f","","null","","sounds/sentences/left_rev/14_02_cfSWS.wav","","null","","","","","","","","","","","","","","","","","","","","","","","","","","","","","","","",""
"html-button-response","203","332457","0.0-5.0-1.0-1.9","3","0","k1fl0ocvgl8144f","","794.8000000119209","","Was the sound coming from the left or the right?","0","","","1","INDUCTION-JUDGMENT","left","0","","","","","","","","","","","","","","","","","","","","","","","","","","",""
"html-keyboard-response","204","333462","0.0-5.0-1.0-2.9","3","0","k1fl0ocvgl8144f","","null","","<p style=""color:#054d00;""><b>Correct!</b></p>","","null","","","","","","","","","","","","","","","","","","","","","","","","","","","","","","","",""
"html-button-response","205","334659","0.0-5.0-1.0-3.9","3","0","k1fl0ocvgl8144f","","695.1999999880791","","<p>Press the button below when you are ready to continue.</p>","0","","","","","","","","","","","","","","","","","","","","","","","","","","","","","","","","",""
"html-keyboard-response","206","351126","0.0-6.0-0.0","3","0","k1fl0ocvgl8144f","","15965.199999988079","","<p>In this part of the study, you will hear sounds similar to those you just heard.</p><p>Please focus on these sounds, as you may be asked questions about them later.</p><p>Occasionally, the sounds will pause for up to two seconds. When this happens, please press SPACEBAR as quickly as you can.</br>This helps ensure that you are paying attention to the sounds.</p><p>This part of the study will take about 12 minutes to complete, and you will be given the opportunity to take a couple of short breaks every few minutes.</p><p><strong>Press SPACEBAR to begin</strong></p>","","32","","","","","","","","","","","","","","","","","","","","","","","","","","","","","","","",""
"html-keyboard-response","207","352129","0.0-6.0-1.0-0.0","3","0","k1fl0ocvgl8144f","","null","","<p style=""font-size: 40px;"">+</p>","","null","","","","","","","","","","","","","","","","","","","","","","","","","","","","","","","",""
"html-keyboard-response","208","537139","0.0-6.0-1.0-1.0","3","0","k1fl0ocvgl8144f","","null","","","","null","","","SL-TRAIN","","","0","649.8999999761581","1205.199999988079","sounds/C/TRAIN/SEQ__05.mp3","2","","","","","","","","","","","","","","","","","","","","","",""
"html-button-response","209","540120","0.0-6.0-1.0-2.0","3","0","k1fl0ocvgl8144f","","2978.899999976158","","<p>You may take a short break if you wish.</p>","0","","","","","","","","","","","","","","","","","","","","","","","","","","","","","","","","",""
"html-keyboard-response","210","541126","0.0-6.0-1.0-3.0","3","0","k1fl0ocvgl8144f","","null","","<p style=""font-size: 40px;"">+</p>","","null","","","","","","","","","","","","","","","","","","","","","","","","","","","","","","","",""
"html-keyboard-response","211","726134","0.0-6.0-1.0-4.0","3","0","k1fl0ocvgl8144f","","null","","","","null","","","SL-TRAIN","","","0","1716","1117.300000011921","sounds/C/TRAIN/SEQ__08.mp3","5","","","","","","","","","","","","","","","","","","","","","",""
"html-button-response","212","728115","0.0-6.0-1.0-5.0","3","0","k1fl0ocvgl8144f","","1980","","<p>You may take a short break if you wish.</p>","0","","","","","","","","","","","","","","","","","","","","","","","","","","","","","","","","",""
"html-keyboard-response","213","729121","0.0-6.0-1.0-6.0","3","0","k1fl0ocvgl8144f","","null","","<p style=""font-size: 40px;"">+</p>","","null","","","","","","","","","","","","","","","","","","","","","","","","","","","","","","","",""
"html-keyboard-response","214","914094","0.0-6.0-1.0-7.0","3","0","k1fl0ocvgl8144f","","null","","","","null","","","SL-TRAIN","","","0","1140.5","1163.800000011921","sounds/C/TRAIN/SEQ__07.mp3","6","","","","","","","","","","","","","","","","","","","","","",""
"html-button-response","215","916722","0.0-6.0-1.0-8.0","3","0","k1fl0ocvgl8144f","","2625.800000011921","","<p>You may take a short break if you wish.</p>","0","","","","","","","","","","","","","","","","","","","","","","","","","","","","","","","","",""
"html-keyboard-response","216","917728","0.0-6.0-1.0-9.0","3","0","k1fl0ocvgl8144f","","null","","<p style=""font-size: 40px;"">+</p>","","null","","","","","","","","","","","","","","","","","","","","","","","","","","","","","","","",""
"html-keyboard-response","217","1102735","0.0-6.0-1.0-10.0","3","0","k1fl0ocvgl8144f","","null","","","","null","","","SL-TRAIN","","","0","1196.3999999761581","1663.699999988079","sounds/C/TRAIN/SEQ__06.mp3","8","","","","","","","","","","","","","","","","","","","","","",""
"html-button-response","218","1105105","0.0-6.0-1.0-11.0","3","0","k1fl0ocvgl8144f","","2367.100000023842","","<p>You may take a short break if you wish.</p>","0","","","","","","","","","","","","","","","","","","","","","","","","","","","","","","","","",""
"html-button-response","219","1112337","0.0-7.0-0.0","3","0","k1fl0ocvgl8144f","","7230.300000011921","","<p>Welcome to the second part of the study. This is a <u>familiarity task</u>.</p><p>You will now hear short sounds and will be asked to rate how familiar they sound to you <b>based on what you heard in the previous part of the study</b>.</p><p>You will rate 12 sounds in total.</p>","0","","","","","","","","","","","","","","","","","","","","","","","","","","","","","","","","",""
"html-keyboard-response","220","1113343","0.0-7.0-1.0-0.0","3","0","k1fl0ocvgl8144f","","null","","","","null","","","","","","","","","","","","","","","","","","","","","","","","","","","","","","","",""
"audio-keyboard-response","221","1114291","0.0-7.0-1.0-1.0","3","0","k1fl0ocvgl8144f","","null","","sounds/C/FAM/N003.mp3","","null","","","","","","","","","","","","","","","","","","","","","","","","","","","","","","","",""
"html-keyboard-response","222","1118606","0.0-7.0-1.0-2.0","3","0","k1fl0ocvgl8144f","","3808.199999988079","","<p>How familiar did this sound to you?</p><p>1&nbsp;&nbsp;&nbsp;&nbsp;&nbsp;&nbsp;&nbsp;&nbsp;&nbsp;&nbsp;&nbsp;&nbsp;&nbsp;&nbsp;&nbsp;&nbsp;&nbsp;&nbsp;&nbsp;2&nbsp;&nbsp;&nbsp;&nbsp;&nbsp;&nbsp;&nbsp;&nbsp;&nbsp;&nbsp;&nbsp;&nbsp;&nbsp;&nbsp;&nbsp;&nbsp;&nbsp;&nbsp;&nbsp;3&nbsp;&nbsp;&nbsp;&nbsp;&nbsp;&nbsp;&nbsp;&nbsp;&nbsp;&nbsp;&nbsp;&nbsp;&nbsp;&nbsp;&nbsp;&nbsp;&nbsp;&nbsp;&nbsp;4</p><p style=""font-size:14px"">Not at all familiar&nbsp;&nbsp;&nbsp;&nbsp;A little familiar&nbsp;&nbsp;&nbsp;Moderately familiar&nbsp;&nbsp;&nbsp;Extremely familiar</p><p>(press the corresponding number on your keyboard)</p>","","52","","","FAM-RESPONSE","","","","","","","","sounds/C/FAM/N003.mp3","nonword","","","","","","","","","","","","","","","","","","","",""
"html-keyboard-response","223","1120614","0.0-7.0-1.0-0.1","3","0","k1fl0ocvgl8144f","","null","","","","null","","","","","","","","","","","","","","","","","","","","","","","","","","","","","","","",""
"audio-keyboard-response","224","1121561","0.0-7.0-1.0-1.1","3","0","k1fl0ocvgl8144f","","null","","sounds/C/FAM/N004.mp3","","null","","","","","","","","","","","","","","","","","","","","","","","","","","","","","","","",""
"html-keyboard-response","225","1123339","0.0-7.0-1.0-2.1","3","0","k1fl0ocvgl8144f","","1272","","<p>How familiar did this sound to you?</p><p>1&nbsp;&nbsp;&nbsp;&nbsp;&nbsp;&nbsp;&nbsp;&nbsp;&nbsp;&nbsp;&nbsp;&nbsp;&nbsp;&nbsp;&nbsp;&nbsp;&nbsp;&nbsp;&nbsp;2&nbsp;&nbsp;&nbsp;&nbsp;&nbsp;&nbsp;&nbsp;&nbsp;&nbsp;&nbsp;&nbsp;&nbsp;&nbsp;&nbsp;&nbsp;&nbsp;&nbsp;&nbsp;&nbsp;3&nbsp;&nbsp;&nbsp;&nbsp;&nbsp;&nbsp;&nbsp;&nbsp;&nbsp;&nbsp;&nbsp;&nbsp;&nbsp;&nbsp;&nbsp;&nbsp;&nbsp;&nbsp;&nbsp;4</p><p style=""font-size:14px"">Not at all familiar&nbsp;&nbsp;&nbsp;&nbsp;A little familiar&nbsp;&nbsp;&nbsp;Moderately familiar&nbsp;&nbsp;&nbsp;Extremely familiar</p><p>(press the corresponding number on your keyboard)</p>","","50","","","FAM-RESPONSE","","","","","","","","sounds/C/FAM/N004.mp3","nonword","","","","","","","","","","","","","","","","","","","",""
"html-keyboard-response","226","1125347","0.0-7.0-1.0-0.2","3","0","k1fl0ocvgl8144f","","null","","","","null","","","","","","","","","","","","","","","","","","","","","","","","","","","","","","","",""
"audio-keyboard-response","227","1126291","0.0-7.0-1.0-1.2","3","0","k1fl0ocvgl8144f","","null","","sounds/C/FAM/P003.mp3","","null","","","","","","","","","","","","","","","","","","","","","","","","","","","","","","","",""
"html-keyboard-response","228","1127493","0.0-7.0-1.0-2.2","3","0","k1fl0ocvgl8144f","","695.5","","<p>How familiar did this sound to you?</p><p>1&nbsp;&nbsp;&nbsp;&nbsp;&nbsp;&nbsp;&nbsp;&nbsp;&nbsp;&nbsp;&nbsp;&nbsp;&nbsp;&nbsp;&nbsp;&nbsp;&nbsp;&nbsp;&nbsp;2&nbsp;&nbsp;&nbsp;&nbsp;&nbsp;&nbsp;&nbsp;&nbsp;&nbsp;&nbsp;&nbsp;&nbsp;&nbsp;&nbsp;&nbsp;&nbsp;&nbsp;&nbsp;&nbsp;3&nbsp;&nbsp;&nbsp;&nbsp;&nbsp;&nbsp;&nbsp;&nbsp;&nbsp;&nbsp;&nbsp;&nbsp;&nbsp;&nbsp;&nbsp;&nbsp;&nbsp;&nbsp;&nbsp;4</p><p style=""font-size:14px"">Not at all familiar&nbsp;&nbsp;&nbsp;&nbsp;A little familiar&nbsp;&nbsp;&nbsp;Moderately familiar&nbsp;&nbsp;&nbsp;Extremely familiar</p><p>(press the corresponding number on your keyboard)</p>","","50","","","FAM-RESPONSE","","","","","","","","sounds/C/FAM/P003.mp3","partword","","","","","","","","","","","","","","","","","","","",""
"html-keyboard-response","229","1129501","0.0-7.0-1.0-0.3","3","0","k1fl0ocvgl8144f","","null","","","","null","","","","","","","","","","","","","","","","","","","","","","","","","","","","","","","",""
"audio-keyboard-response","230","1130446","0.0-7.0-1.0-1.3","3","0","k1fl0ocvgl8144f","","null","","sounds/C/FAM/P004.mp3","","null","","","","","","","","","","","","","","","","","","","","","","","","","","","","","","","",""
"html-keyboard-response","231","1132258","0.0-7.0-1.0-2.3","3","0","k1fl0ocvgl8144f","","1305.3999999761581","","<p>How familiar did this sound to you?</p><p>1&nbsp;&nbsp;&nbsp;&nbsp;&nbsp;&nbsp;&nbsp;&nbsp;&nbsp;&nbsp;&nbsp;&nbsp;&nbsp;&nbsp;&nbsp;&nbsp;&nbsp;&nbsp;&nbsp;2&nbsp;&nbsp;&nbsp;&nbsp;&nbsp;&nbsp;&nbsp;&nbsp;&nbsp;&nbsp;&nbsp;&nbsp;&nbsp;&nbsp;&nbsp;&nbsp;&nbsp;&nbsp;&nbsp;3&nbsp;&nbsp;&nbsp;&nbsp;&nbsp;&nbsp;&nbsp;&nbsp;&nbsp;&nbsp;&nbsp;&nbsp;&nbsp;&nbsp;&nbsp;&nbsp;&nbsp;&nbsp;&nbsp;4</p><p style=""font-size:14px"">Not at all familiar&nbsp;&nbsp;&nbsp;&nbsp;A little familiar&nbsp;&nbsp;&nbsp;Moderately familiar&nbsp;&nbsp;&nbsp;Extremely familiar</p><p>(press the corresponding number on your keyboard)</p>","","51","","","FAM-RESPONSE","","","","","","","","sounds/C/FAM/P004.mp3","partword","","","","","","","","","","","","","","","","","","","",""
"html-keyboard-response","232","1134264","0.0-7.0-1.0-0.4","3","0","k1fl0ocvgl8144f","","null","","","","null","","","","","","","","","","","","","","","","","","","","","","","","","","","","","","","",""
"audio-keyboard-response","233","1135209","0.0-7.0-1.0-1.4","3","0","k1fl0ocvgl8144f","","null","","sounds/C/FAM/W002.mp3","","null","","","","","","","","","","","","","","","","","","","","","","","","","","","","","","","",""
"html-keyboard-response","234","1136044","0.0-7.0-1.0-2.4","3","0","k1fl0ocvgl8144f","","329.0999999642372","","<p>How familiar did this sound to you?</p><p>1&nbsp;&nbsp;&nbsp;&nbsp;&nbsp;&nbsp;&nbsp;&nbsp;&nbsp;&nbsp;&nbsp;&nbsp;&nbsp;&nbsp;&nbsp;&nbsp;&nbsp;&nbsp;&nbsp;2&nbsp;&nbsp;&nbsp;&nbsp;&nbsp;&nbsp;&nbsp;&nbsp;&nbsp;&nbsp;&nbsp;&nbsp;&nbsp;&nbsp;&nbsp;&nbsp;&nbsp;&nbsp;&nbsp;3&nbsp;&nbsp;&nbsp;&nbsp;&nbsp;&nbsp;&nbsp;&nbsp;&nbsp;&nbsp;&nbsp;&nbsp;&nbsp;&nbsp;&nbsp;&nbsp;&nbsp;&nbsp;&nbsp;4</p><p style=""font-size:14px"">Not at all familiar&nbsp;&nbsp;&nbsp;&nbsp;A little familiar&nbsp;&nbsp;&nbsp;Moderately familiar&nbsp;&nbsp;&nbsp;Extremely familiar</p><p>(press the corresponding number on your keyboard)</p>","","52","","","FAM-RESPONSE","","","","","","","","sounds/C/FAM/W002.mp3","word","","","","","","","","","","","","","","","","","","","",""
"html-keyboard-response","235","1138050","0.0-7.0-1.0-0.5","3","0","k1fl0ocvgl8144f","","null","","","","null","","","","","","","","","","","","","","","","","","","","","","","","","","","","","","","",""
"audio-keyboard-response","236","1138995","0.0-7.0-1.0-1.5","3","0","k1fl0ocvgl8144f","","null","","sounds/C/FAM/N002.mp3","","null","","","","","","","","","","","","","","","","","","","","","","","","","","","","","","","",""
"html-keyboard-response","237","1140080","0.0-7.0-1.0-2.5","3","0","k1fl0ocvgl8144f","","582.5999999642372","","<p>How familiar did this sound to you?</p><p>1&nbsp;&nbsp;&nbsp;&nbsp;&nbsp;&nbsp;&nbsp;&nbsp;&nbsp;&nbsp;&nbsp;&nbsp;&nbsp;&nbsp;&nbsp;&nbsp;&nbsp;&nbsp;&nbsp;2&nbsp;&nbsp;&nbsp;&nbsp;&nbsp;&nbsp;&nbsp;&nbsp;&nbsp;&nbsp;&nbsp;&nbsp;&nbsp;&nbsp;&nbsp;&nbsp;&nbsp;&nbsp;&nbsp;3&nbsp;&nbsp;&nbsp;&nbsp;&nbsp;&nbsp;&nbsp;&nbsp;&nbsp;&nbsp;&nbsp;&nbsp;&nbsp;&nbsp;&nbsp;&nbsp;&nbsp;&nbsp;&nbsp;4</p><p style=""font-size:14px"">Not at all familiar&nbsp;&nbsp;&nbsp;&nbsp;A little familiar&nbsp;&nbsp;&nbsp;Moderately familiar&nbsp;&nbsp;&nbsp;Extremely familiar</p><p>(press the corresponding number on your keyboard)</p>","","49","","","FAM-RESPONSE","","","","","","","","sounds/C/FAM/N002.mp3","nonword","","","","","","","","","","","","","","","","","","","",""
"html-keyboard-response","238","1142087","0.0-7.0-1.0-0.6","3","0","k1fl0ocvgl8144f","","null","","","","null","","","","","","","","","","","","","","","","","","","","","","","","","","","","","","","",""
"audio-keyboard-response","239","1143033","0.0-7.0-1.0-1.6","3","0","k1fl0ocvgl8144f","","null","","sounds/C/FAM/W004.mp3","","null","","","","","","","","","","","","","","","","","","","","","","","","","","","","","","","",""
"html-keyboard-response","240","1148639","0.0-7.0-1.0-2.6","3","0","k1fl0ocvgl8144f","","5100.400000035763","","<p>How familiar did this sound to you?</p><p>1&nbsp;&nbsp;&nbsp;&nbsp;&nbsp;&nbsp;&nbsp;&nbsp;&nbsp;&nbsp;&nbsp;&nbsp;&nbsp;&nbsp;&nbsp;&nbsp;&nbsp;&nbsp;&nbsp;2&nbsp;&nbsp;&nbsp;&nbsp;&nbsp;&nbsp;&nbsp;&nbsp;&nbsp;&nbsp;&nbsp;&nbsp;&nbsp;&nbsp;&nbsp;&nbsp;&nbsp;&nbsp;&nbsp;3&nbsp;&nbsp;&nbsp;&nbsp;&nbsp;&nbsp;&nbsp;&nbsp;&nbsp;&nbsp;&nbsp;&nbsp;&nbsp;&nbsp;&nbsp;&nbsp;&nbsp;&nbsp;&nbsp;4</p><p style=""font-size:14px"">Not at all familiar&nbsp;&nbsp;&nbsp;&nbsp;A little familiar&nbsp;&nbsp;&nbsp;Moderately familiar&nbsp;&nbsp;&nbsp;Extremely familiar</p><p>(press the corresponding number on your keyboard)</p>","","52","","","FAM-RESPONSE","","","","","","","","sounds/C/FAM/W004.mp3","word","","","","","","","","","","","","","","","","","","","",""
"html-keyboard-response","241","1150649","0.0-7.0-1.0-0.7","3","0","k1fl0ocvgl8144f","","null","","","","null","","","","","","","","","","","","","","","","","","","","","","","","","","","","","","","",""
"audio-keyboard-response","242","1151593","0.0-7.0-1.0-1.7","3","0","k1fl0ocvgl8144f","","null","","sounds/C/FAM/N001.mp3","","null","","","","","","","","","","","","","","","","","","","","","","","","","","","","","","","",""
"html-keyboard-response","243","1152863","0.0-7.0-1.0-2.7","3","0","k1fl0ocvgl8144f","","764","","<p>How familiar did this sound to you?</p><p>1&nbsp;&nbsp;&nbsp;&nbsp;&nbsp;&nbsp;&nbsp;&nbsp;&nbsp;&nbsp;&nbsp;&nbsp;&nbsp;&nbsp;&nbsp;&nbsp;&nbsp;&nbsp;&nbsp;2&nbsp;&nbsp;&nbsp;&nbsp;&nbsp;&nbsp;&nbsp;&nbsp;&nbsp;&nbsp;&nbsp;&nbsp;&nbsp;&nbsp;&nbsp;&nbsp;&nbsp;&nbsp;&nbsp;3&nbsp;&nbsp;&nbsp;&nbsp;&nbsp;&nbsp;&nbsp;&nbsp;&nbsp;&nbsp;&nbsp;&nbsp;&nbsp;&nbsp;&nbsp;&nbsp;&nbsp;&nbsp;&nbsp;4</p><p style=""font-size:14px"">Not at all familiar&nbsp;&nbsp;&nbsp;&nbsp;A little familiar&nbsp;&nbsp;&nbsp;Moderately familiar&nbsp;&nbsp;&nbsp;Extremely familiar</p><p>(press the corresponding number on your keyboard)</p>","","52","","","FAM-RESPONSE","","","","","","","","sounds/C/FAM/N001.mp3","nonword","","","","","","","","","","","","","","","","","","","",""
"html-keyboard-response","244","1154871","0.0-7.0-1.0-0.8","3","0","k1fl0ocvgl8144f","","null","","","","null","","","","","","","","","","","","","","","","","","","","","","","","","","","","","","","",""
"audio-keyboard-response","245","1155817","0.0-7.0-1.0-1.8","3","0","k1fl0ocvgl8144f","","null","","sounds/C/FAM/P001.mp3","","null","","","","","","","","","","","","","","","","","","","","","","","","","","","","","","","",""
"html-keyboard-response","246","1156627","0.0-7.0-1.0-2.8","3","0","k1fl0ocvgl8144f","","303.7000000476837","","<p>How familiar did this sound to you?</p><p>1&nbsp;&nbsp;&nbsp;&nbsp;&nbsp;&nbsp;&nbsp;&nbsp;&nbsp;&nbsp;&nbsp;&nbsp;&nbsp;&nbsp;&nbsp;&nbsp;&nbsp;&nbsp;&nbsp;2&nbsp;&nbsp;&nbsp;&nbsp;&nbsp;&nbsp;&nbsp;&nbsp;&nbsp;&nbsp;&nbsp;&nbsp;&nbsp;&nbsp;&nbsp;&nbsp;&nbsp;&nbsp;&nbsp;3&nbsp;&nbsp;&nbsp;&nbsp;&nbsp;&nbsp;&nbsp;&nbsp;&nbsp;&nbsp;&nbsp;&nbsp;&nbsp;&nbsp;&nbsp;&nbsp;&nbsp;&nbsp;&nbsp;4</p><p style=""font-size:14px"">Not at all familiar&nbsp;&nbsp;&nbsp;&nbsp;A little familiar&nbsp;&nbsp;&nbsp;Moderately familiar&nbsp;&nbsp;&nbsp;Extremely familiar</p><p>(press the corresponding number on your keyboard)</p>","","51","","","FAM-RESPONSE","","","","","","","","sounds/C/FAM/P001.mp3","partword","","","","","","","","","","","","","","","","","","","",""
"html-keyboard-response","247","1158632","0.0-7.0-1.0-0.9","3","0","k1fl0ocvgl8144f","","null","","","","null","","","","","","","","","","","","","","","","","","","","","","","","","","","","","","","",""
"audio-keyboard-response","248","1159577","0.0-7.0-1.0-1.9","3","0","k1fl0ocvgl8144f","","null","","sounds/C/FAM/P002.mp3","","null","","","","","","","","","","","","","","","","","","","","","","","","","","","","","","","",""
"html-keyboard-response","249","1160306","0.0-7.0-1.0-2.9","3","0","k1fl0ocvgl8144f","","222.20000004768372","","<p>How familiar did this sound to you?</p><p>1&nbsp;&nbsp;&nbsp;&nbsp;&nbsp;&nbsp;&nbsp;&nbsp;&nbsp;&nbsp;&nbsp;&nbsp;&nbsp;&nbsp;&nbsp;&nbsp;&nbsp;&nbsp;&nbsp;2&nbsp;&nbsp;&nbsp;&nbsp;&nbsp;&nbsp;&nbsp;&nbsp;&nbsp;&nbsp;&nbsp;&nbsp;&nbsp;&nbsp;&nbsp;&nbsp;&nbsp;&nbsp;&nbsp;3&nbsp;&nbsp;&nbsp;&nbsp;&nbsp;&nbsp;&nbsp;&nbsp;&nbsp;&nbsp;&nbsp;&nbsp;&nbsp;&nbsp;&nbsp;&nbsp;&nbsp;&nbsp;&nbsp;4</p><p style=""font-size:14px"">Not at all familiar&nbsp;&nbsp;&nbsp;&nbsp;A little familiar&nbsp;&nbsp;&nbsp;Moderately familiar&nbsp;&nbsp;&nbsp;Extremely familiar</p><p>(press the corresponding number on your keyboard)</p>","","52","","","FAM-RESPONSE","","","","","","","","sounds/C/FAM/P002.mp3","partword","","","","","","","","","","","","","","","","","","","",""
"html-keyboard-response","250","1162315","0.0-7.0-1.0-0.10","3","0","k1fl0ocvgl8144f","","null","","","","null","","","","","","","","","","","","","","","","","","","","","","","","","","","","","","","",""
"audio-keyboard-response","251","1163257","0.0-7.0-1.0-1.10","3","0","k1fl0ocvgl8144f","","null","","sounds/C/FAM/W001.mp3","","null","","","","","","","","","","","","","","","","","","","","","","","","","","","","","","","",""
"html-keyboard-response","252","1163902","0.0-7.0-1.0-2.10","3","0","k1fl0ocvgl8144f","","139.80000001192093","","<p>How familiar did this sound to you?</p><p>1&nbsp;&nbsp;&nbsp;&nbsp;&nbsp;&nbsp;&nbsp;&nbsp;&nbsp;&nbsp;&nbsp;&nbsp;&nbsp;&nbsp;&nbsp;&nbsp;&nbsp;&nbsp;&nbsp;2&nbsp;&nbsp;&nbsp;&nbsp;&nbsp;&nbsp;&nbsp;&nbsp;&nbsp;&nbsp;&nbsp;&nbsp;&nbsp;&nbsp;&nbsp;&nbsp;&nbsp;&nbsp;&nbsp;3&nbsp;&nbsp;&nbsp;&nbsp;&nbsp;&nbsp;&nbsp;&nbsp;&nbsp;&nbsp;&nbsp;&nbsp;&nbsp;&nbsp;&nbsp;&nbsp;&nbsp;&nbsp;&nbsp;4</p><p style=""font-size:14px"">Not at all familiar&nbsp;&nbsp;&nbsp;&nbsp;A little familiar&nbsp;&nbsp;&nbsp;Moderately familiar&nbsp;&nbsp;&nbsp;Extremely familiar</p><p>(press the corresponding number on your keyboard)</p>","","49","","","FAM-RESPONSE","","","","","","","","sounds/C/FAM/W001.mp3","word","","","","","","","","","","","","","","","","","","","",""
"html-keyboard-response","253","1165906","0.0-7.0-1.0-0.11","3","0","k1fl0ocvgl8144f","","null","","","","null","","","","","","","","","","","","","","","","","","","","","","","","","","","","","","","",""
"audio-keyboard-response","254","1166851","0.0-7.0-1.0-1.11","3","0","k1fl0ocvgl8144f","","null","","sounds/C/FAM/W003.mp3","","null","","","","","","","","","","","","","","","","","","","","","","","","","","","","","","","",""
"html-keyboard-response","255","1168142","0.0-7.0-1.0-2.11","3","0","k1fl0ocvgl8144f","","784.6999999880791","","<p>How familiar did this sound to you?</p><p>1&nbsp;&nbsp;&nbsp;&nbsp;&nbsp;&nbsp;&nbsp;&nbsp;&nbsp;&nbsp;&nbsp;&nbsp;&nbsp;&nbsp;&nbsp;&nbsp;&nbsp;&nbsp;&nbsp;2&nbsp;&nbsp;&nbsp;&nbsp;&nbsp;&nbsp;&nbsp;&nbsp;&nbsp;&nbsp;&nbsp;&nbsp;&nbsp;&nbsp;&nbsp;&nbsp;&nbsp;&nbsp;&nbsp;3&nbsp;&nbsp;&nbsp;&nbsp;&nbsp;&nbsp;&nbsp;&nbsp;&nbsp;&nbsp;&nbsp;&nbsp;&nbsp;&nbsp;&nbsp;&nbsp;&nbsp;&nbsp;&nbsp;4</p><p style=""font-size:14px"">Not at all familiar&nbsp;&nbsp;&nbsp;&nbsp;A little familiar&nbsp;&nbsp;&nbsp;Moderately familiar&nbsp;&nbsp;&nbsp;Extremely familiar</p><p>(press the corresponding number on your keyboard)</p>","","51","","","FAM-RESPONSE","","","","","","","","sounds/C/FAM/W003.mp3","word","","","","","","","","","","","","","","","","","","","",""
"html-button-response","256","1183927","0.0-8.0-0.0","3","0","k1fl0ocvgl8144f","","14780.599999964237","","<p>You will now listen to longer sound sequences.</p><p>Each sound sequence will last about 16 seconds.</p><p>On each trial, you will be given a <u>TARGET SOUND</u>. Your task is to listen very carefully for this sound.</p><p>Every time you hear the <u>TARGET SOUND</u>, you will press the <b>SPACEBAR</b> as quickly and accurately as you can.</p>","0","","","","","","","","","","","","","","","","","","","","","","","","","","","","","","","","",""
"html-button-response","257","1193192","0.0-8.0-1.0","3","0","k1fl0ocvgl8144f","","9011.199999988079","","<p>It is very important that you make your responses as quickly and accurately as possible.</p><p>To help you make your responses, you will be able to listen to the <u>TARGET SOUND</u> at the beginning of each trial.</p><p>There will be 36 total trials.</p><p><b>Note: This is meant to be a difficult task. We simply want you to try your best.</p>","0","","","","","","","","","","","","","","","","","","","","","","","","","","","","","","","","",""
"html-button-response","258","1195459","0.0-8.0-2.0-0.0","3","0","k1fl0ocvgl8144f","","2012.5","","<p>Trial 1 of 36</p>","0","","","","","","","","","","","","","","SU","sounds/syllables/su_SWS.wav","2700,7200,9000,10800","1","","","","","","","","","","","","","","","",""
"html-keyboard-response","259","1198968","0.0-8.0-2.0-1.0","3","0","k1fl0ocvgl8144f","","3506.600000023842","","","","80","","","","","","","","","","","","","SU","","2700,7200,9000,10800","1","","","","","","","","","","","","","","","",""
"audio-keyboard-response","260","1199633","0.0-8.0-2.0-2.0-0.0","3","0","k1fl0ocvgl8144f","","null","","sounds/syllables/su_SWS.wav","","null","","","","","","","","","","","","","","","","","","","","","","","","","","","","","","","",""
"html-keyboard-response","261","1203215","0.0-8.0-2.0-2.0-1.0","3","0","k1fl0ocvgl8144f","","3580.7000000476837","","<p>To replay the <u>TARGET SOUND</u>, press P.</p> When you are ready to begin, press SPACEBAR.","","80","","","","","","","","","","","","","","","","","","","","","","","","","","","","","","","",""
"audio-keyboard-response","262","1204023","0.0-8.0-2.0-2.1-0.1","3","0","k1fl0ocvgl8144f","","null","","sounds/syllables/su_SWS.wav","","null","","","","","","","","","","","","","","","","","","","","","","","","","","","","","","","",""
"html-keyboard-response","263","1204572","0.0-8.0-2.0-2.1-1.1","3","0","k1fl0ocvgl8144f","","547.3999999761581","","<p>To replay the <u>TARGET SOUND</u>, press P.</p> When you are ready to begin, press SPACEBAR.","","32","","","","","","","","","","","","","","","","","","","","","","","","","","","","","","","",""
"audio-keyboard-response","264","1219522","0.0-8.0-2.0-3.0","3","0","k1fl0ocvgl8144f","","3237","","sounds/C/TD/SU_07_TD.mp3","","32","","","TD_SUMMARY","","","","","","","","","","SU","","2700,7200,9000,10800","1","2700","7200","9000","10800","535.5","552.6999999880791","840.9000000357628","644.9000000357628","3235.5_7752.699999988079_9840.900000035763_11444.900000035763_13006.800000011921","2","","","","","",""
"html-button-response","265","1221237","0.0-8.0-2.0-0.1","3","0","k1fl0ocvgl8144f","","1710.199999988079","","<p>Trial 2 of 36</p>","0","","","","","","","","","","","","","","GE","sounds/syllables/ge_SWS.wav","3300,5100,6900,12300","3","","","","","","","","","","","","","","","",""
"html-keyboard-response","266","1222054","0.0-8.0-2.0-1.1","3","0","k1fl0ocvgl8144f","","814.5999999642372","","","","80","","","","","","","","","","","","","GE","","3300,5100,6900,12300","3","","","","","","","","","","","","","","","",""
"audio-keyboard-response","267","1222359","0.0-8.0-2.0-2.2-0.2","3","0","k1fl0ocvgl8144f","","null","","sounds/syllables/ge_SWS.wav","","null","","","","","","","","","","","","","","","","","","","","","","","","","","","","","","","",""
"html-keyboard-response","268","1223671","0.0-8.0-2.0-2.2-1.2","3","0","k1fl0ocvgl8144f","","1311.199999988079","","<p>To replay the <u>TARGET SOUND</u>, press P.</p> When you are ready to begin, press SPACEBAR.","","80","","","","","","","","","","","","","","","","","","","","","","","","","","","","","","","",""
"audio-keyboard-response","269","1224476","0.0-8.0-2.0-2.3-0.3","3","0","k1fl0ocvgl8144f","","null","","sounds/syllables/ge_SWS.wav","","null","","","","","","","","","","","","","","","","","","","","","","","","","","","","","","","",""
"html-keyboard-response","270","1225268","0.0-8.0-2.0-2.3-1.3","3","0","k1fl0ocvgl8144f","","790.6000000238419","","<p>To replay the <u>TARGET SOUND</u>, press P.</p> When you are ready to begin, press SPACEBAR.","","32","","","","","","","","","","","","","","","","","","","","","","","","","","","","","","","",""
"audio-keyboard-response","271","1240221","0.0-8.0-2.0-3.1","3","0","k1fl0ocvgl8144f","","656","","sounds/C/TD/GE_09_TD.mp3","","32","","","TD_SUMMARY","","","","","","","","","","GE","","3300,5100,6900,12300","3","3300","5100","6900","12300","null","null","null","null","_____659.5_2749.400000035763_6747.900000035763_9741.699999988079","2","","","","","",""
"html-button-response","272","1242630","0.0-8.0-2.0-0.2","3","0","k1fl0ocvgl8144f","","2405.600000023842","","<p>Trial 3 of 36</p>","0","","","","","","","","","","","","","","RU","sounds/syllables/ru_SWS.wav","1200,3000,4800,8400","2","","","","","","","","","","","","","","","",""
"html-keyboard-response","273","1246554","0.0-8.0-2.0-1.2","3","0","k1fl0ocvgl8144f","","3922.400000035763","","","","80","","","","","","","","","","","","","RU","","1200,3000,4800,8400","2","","","","","","","","","","","","","","","",""
"audio-keyboard-response","274","1246860","0.0-8.0-2.0-2.4-0.4","3","0","k1fl0ocvgl8144f","","null","","sounds/syllables/ru_SWS.wav","","null","","","","","","","","","","","","","","","","","","","","","","","","","","","","","","","",""
"html-keyboard-response","275","1248697","0.0-8.0-2.0-2.4-1.4","3","0","k1fl0ocvgl8144f","","1835.300000011921","","<p>To replay the <u>TARGET SOUND</u>, press P.</p> When you are ready to begin, press SPACEBAR.","","32","","","","","","","","","","","","","","","","","","","","","","","","","","","","","","","",""
"audio-keyboard-response","276","1263650","0.0-8.0-2.0-3.2","3","0","k1fl0ocvgl8144f","","2011","","sounds/C/TD/RU_02_TD.mp3","","32","","","TD_SUMMARY","","","","","","","","","","RU","","1200,3000,4800,8400","2","1200","3000","4800","8400","815.1000000238419","685.8000000119209","701.8000000119209","801.3999999761581","_________2015.1000000238419_3685.800000011921_5501.800000011921_6730.199999988079_9201.399999976158_11510.100000023842","1","","","","","",""
"html-button-response","277","1264857","0.0-8.0-2.0-0.3","3","0","k1fl0ocvgl8144f","","1203.699999988079","","<p>Trial 4 of 36</p>","0","","","","","","","","","","","","","","PU","sounds/syllables/pu_SWS.wav","2400,4200,8700,10500","3","","","","","","","","","","","","","","","",""
"html-keyboard-response","278","1267318","0.0-8.0-2.0-1.3","3","0","k1fl0ocvgl8144f","","2457.899999976158","","","","80","","","","","","","","","","","","","PU","","2400,4200,8700,10500","3","","","","","","","","","","","","","","","",""
"audio-keyboard-response","279","1267623","0.0-8.0-2.0-2.5-0.5","3","0","k1fl0ocvgl8144f","","null","","sounds/syllables/pu_SWS.wav","","null","","","","","","","","","","","","","","","","","","","","","","","","","","","","","","","",""
"html-keyboard-response","280","1268638","0.0-8.0-2.0-2.5-1.5","3","0","k1fl0ocvgl8144f","","1013.5","","<p>To replay the <u>TARGET SOUND</u>, press P.</p> When you are ready to begin, press SPACEBAR.","","80","","","","","","","","","","","","","","","","","","","","","","","","","","","","","","","",""
"audio-keyboard-response","281","1269441","0.0-8.0-2.0-2.6-0.6","3","0","k1fl0ocvgl8144f","","null","","sounds/syllables/pu_SWS.wav","","null","","","","","","","","","","","","","","","","","","","","","","","","","","","","","","","",""
"html-keyboard-response","282","1269885","0.0-8.0-2.0-2.6-1.6","3","0","k1fl0ocvgl8144f","","442","","<p>To replay the <u>TARGET SOUND</u>, press P.</p> When you are ready to begin, press SPACEBAR.","","32","","","","","","","","","","","","","","","","","","","","","","","","","","","","","","","",""
"audio-keyboard-response","283","1284834","0.0-8.0-2.0-3.3","3","0","k1fl0ocvgl8144f","","2763","","sounds/C/TD/PU_06_TD.mp3","","32","","","TD_SUMMARY","","","","","","","","","","PU","","2400,4200,8700,10500","3","2400","4200","8700","10500","365.80000001192093","358","330.89999997615814","625.8000000119209","_______________2765.800000011921_4558_7557.5_9030.899999976158_11125.800000011921","2","","","","","",""
"html-button-response","284","1286202","0.0-8.0-2.0-0.4","3","0","k1fl0ocvgl8144f","","1364.8999999761581","","<p>Trial 5 of 36</p>","0","","","","","","","","","","","","","","NI","sounds/syllables/ni_SWS.wav","2700,5400,7200,12600","1","","","","","","","","","","","","","","","",""
"html-keyboard-response","285","1288877","0.0-8.0-2.0-1.4","3","0","k1fl0ocvgl8144f","","2672.600000023842","","","","80","","","","","","","","","","","","","NI","","2700,5400,7200,12600","1","","","","","","","","","","","","","","","",""
"audio-keyboard-response","286","1289180","0.0-8.0-2.0-2.7-0.7","3","0","k1fl0ocvgl8144f","","null","","sounds/syllables/ni_SWS.wav","","null","","","","","","","","","","","","","","","","","","","","","","","","","","","","","","","",""
"html-keyboard-response","287","1290830","0.0-8.0-2.0-2.7-1.7","3","0","k1fl0ocvgl8144f","","1648.300000011921","","<p>To replay the <u>TARGET SOUND</u>, press P.</p> When you are ready to begin, press SPACEBAR.","","80","","","","","","","","","","","","","","","","","","","","","","","","","","","","","","","",""
"audio-keyboard-response","288","1291633","0.0-8.0-2.0-2.8-0.8","3","0","k1fl0ocvgl8144f","","null","","sounds/syllables/ni_SWS.wav","","null","","","","","","","","","","","","","","","","","","","","","","","","","","","","","","","",""
"html-keyboard-response","289","1292132","0.0-8.0-2.0-2.8-1.8","3","0","k1fl0ocvgl8144f","","497.30000001192093","","<p>To replay the <u>TARGET SOUND</u>, press P.</p> When you are ready to begin, press SPACEBAR.","","32","","","","","","","","","","","","","","","","","","","","","","","","","","","","","","","",""
"audio-keyboard-response","290","1307084","0.0-8.0-2.0-3.4","3","0","k1fl0ocvgl8144f","","3221","","sounds/C/TD/NI_03_TD.mp3","","32","","","TD_SUMMARY","","","","","","","","","","NI","","2700,5400,7200,12600","1","2700","5400","7200","12600","521.6999999880791","1133.7999999523163","null","292","____________________3221.699999988079_5842.799999952316_6120.899999976158_6346.5_6533.799999952316_10234_11248.699999988079_12892","2","","","","","",""
"html-button-response","291","1308479","0.0-8.0-2.0-0.5","3","0","k1fl0ocvgl8144f","","1390.199999988079","","<p>Trial 6 of 36</p>","0","","","","","","","","","","","","","","ME","sounds/syllables/me_SWS.wav","2700,4500,7200,11700","1","","","","","","","","","","","","","","","",""
"html-keyboard-response","292","1309847","0.0-8.0-2.0-1.5","3","0","k1fl0ocvgl8144f","","1365.8999999761581","","","","80","","","","","","","","","","","","","ME","","2700,4500,7200,11700","1","","","","","","","","","","","","","","","",""
"audio-keyboard-response","293","1310151","0.0-8.0-2.0-2.9-0.9","3","0","k1fl0ocvgl8144f","","null","","sounds/syllables/me_SWS.wav","","null","","","","","","","","","","","","","","","","","","","","","","","","","","","","","","","",""
"html-keyboard-response","294","1311115","0.0-8.0-2.0-2.9-1.9","3","0","k1fl0ocvgl8144f","","963.1000000238419","","<p>To replay the <u>TARGET SOUND</u>, press P.</p> When you are ready to begin, press SPACEBAR.","","32","","","","","","","","","","","","","","","","","","","","","","","","","","","","","","","",""
"audio-keyboard-response","295","1326066","0.0-8.0-2.0-3.5","3","0","k1fl0ocvgl8144f","","2448","","sounds/C/TD/ME_03_TD.mp3","","32","","","TD_SUMMARY","","","","","","","","","","ME","","2700,4500,7200,11700","1","2700","4500","7200","11700","782.9000000357628","908.8000000119209","null","null","____________________________2449.7000000476837_3482.900000035763_5091.800000011921_5408.800000011921_7203.800000011921_11777.200000047684_13980.300000011921","1","","","","","",""
"html-button-response","296","1326851","0.0-8.0-2.0-0.6","3","0","k1fl0ocvgl8144f","","781.8000000119209","","<p>Trial 7 of 36</p>","0","","","","","","","","","","","","","","FU","sounds/syllables/fu_SWS.wav","5100,8700,10500,13200","3","","","","","","","","","","","","","","","",""
"html-keyboard-response","297","1328228","0.0-8.0-2.0-1.6","3","0","k1fl0ocvgl8144f","","1374.1000000238419","","","","80","","","","","","","","","","","","","FU","","5100,8700,10500,13200","3","","","","","","","","","","","","","","","",""
"audio-keyboard-response","298","1328529","0.0-8.0-2.0-2.10-0.10","3","0","k1fl0ocvgl8144f","","null","","sounds/syllables/fu_SWS.wav","","null","","","","","","","","","","","","","","","","","","","","","","","","","","","","","","","",""
"html-keyboard-response","299","1328824","0.0-8.0-2.0-2.10-1.10","3","0","k1fl0ocvgl8144f","","293.0999999642372","","<p>To replay the <u>TARGET SOUND</u>, press P.</p> When you are ready to begin, press SPACEBAR.","","32","","","","","","","","","","","","","","","","","","","","","","","","","","","","","","","",""
"audio-keyboard-response","300","1343772","0.0-8.0-2.0-3.6","3","0","k1fl0ocvgl8144f","","2171","","sounds/C/TD/FU_10_TD.mp3","","32","","","TD_SUMMARY","","","","","","","","","","FU","","5100,8700,10500,13200","3","5100","8700","10500","13200","855.8000000119209","null","null","901.1000000238419","___________________________________2170.800000011921_3301.300000011921_5955.800000011921_7157.5_8442.800000011921_10182.300000011921_14101.100000023842","1","","","","","",""
"html-button-response","301","1350123","0.0-8.0-2.0-0.7","3","0","k1fl0ocvgl8144f","","6346.400000035763","","<p>Trial 8 of 36</p>","0","","","","","","","","","","","","","","RU","sounds/syllables/ru_SWS.wav","3900,6600,8400,12900","2","","","","","","","","","","","","","","","",""
"html-keyboard-response","302","1353368","0.0-8.0-2.0-1.7","3","0","k1fl0ocvgl8144f","","3242.100000023842","","","","80","","","","","","","","","","","","","RU","","3900,6600,8400,12900","2","","","","","","","","","","","","","","","",""
"audio-keyboard-response","303","1353671","0.0-8.0-2.0-2.11-0.11","3","0","k1fl0ocvgl8144f","","null","","sounds/syllables/ru_SWS.wav","","null","","","","","","","","","","","","","","","","","","","","","","","","","","","","","","","",""
"html-keyboard-response","304","1354183","0.0-8.0-2.0-2.11-1.11","3","0","k1fl0ocvgl8144f","","510.89999997615814","","<p>To replay the <u>TARGET SOUND</u>, press P.</p> When you are ready to begin, press SPACEBAR.","","32","","","","","","","","","","","","","","","","","","","","","","","","","","","","","","","",""
"audio-keyboard-response","305","1369132","0.0-8.0-2.0-3.7","3","0","k1fl0ocvgl8144f","","3989","","sounds/C/TD/RU_09_TD.mp3","","32","","","TD_SUMMARY","","","","","","","","","","RU","","3900,6600,8400,12900","2","3900","6600","8400","12900","null","563.3999999761581","800.3000000119209","759","__________________________________________3989.300000011921_7163.399999976158_9200.300000011921_13659","1","","","","","",""
"html-button-response","306","1370920","0.0-8.0-2.0-0.8","3","0","k1fl0ocvgl8144f","","1783.5","","<p>Trial 9 of 36</p>","0","","","","","","","","","","","","","","ME","sounds/syllables/me_SWS.wav","1800,4500,6300,9000","1","","","","","","","","","","","","","","","",""
"html-keyboard-response","307","1372251","0.0-8.0-2.0-1.8","3","0","k1fl0ocvgl8144f","","1328.3999999761581","","","","80","","","","","","","","","","","","","ME","","1800,4500,6300,9000","1","","","","","","","","","","","","","","","",""
"audio-keyboard-response","308","1372556","0.0-8.0-2.0-2.12-0.12","3","0","k1fl0ocvgl8144f","","null","","sounds/syllables/me_SWS.wav","","null","","","","","","","","","","","","","","","","","","","","","","","","","","","","","","","",""
"html-keyboard-response","309","1373719","0.0-8.0-2.0-2.12-1.12","3","0","k1fl0ocvgl8144f","","1162.6000000238419","","<p>To replay the <u>TARGET SOUND</u>, press P.</p> When you are ready to begin, press SPACEBAR.","","32","","","","","","","","","","","","","","","","","","","","","","","","","","","","","","","",""
"audio-keyboard-response","310","1388668","0.0-8.0-2.0-3.8","3","0","k1fl0ocvgl8144f","","4032","","sounds/C/TD/ME_06_TD.mp3","","32","","","TD_SUMMARY","","","","","","","","","","ME","","1800,4500,6300,9000","1","1800","4500","6300","9000","null","1117","null","804.1999999880791","______________________________________________4029.699999988079_5617_7535.099999964237_7820.899999976158_9804.199999988079_12056.399999976158","1","","","","","",""
"html-button-response","311","1390789","0.0-8.0-2.0-0.9","3","0","k1fl0ocvgl8144f","","2116.800000011921","","<p>Trial 10 of 36</p>","0","","","","","","","","","","","","","","GE","sounds/syllables/ge_SWS.wav","1500,8700,10500,12300","3","","","","","","","","","","","","","","","",""
"html-keyboard-response","312","1394129","0.0-8.0-2.0-1.9","3","0","k1fl0ocvgl8144f","","3337.400000035763","","","","80","","","","","","","","","","","","","GE","","1500,8700,10500,12300","3","","","","","","","","","","","","","","","",""
"audio-keyboard-response","313","1394433","0.0-8.0-2.0-2.13-0.13","3","0","k1fl0ocvgl8144f","","null","","sounds/syllables/ge_SWS.wav","","null","","","","","","","","","","","","","","","","","","","","","","","","","","","","","","","",""
"html-keyboard-response","314","1395243","0.0-8.0-2.0-2.13-1.13","3","0","k1fl0ocvgl8144f","","809.4000000357628","","<p>To replay the <u>TARGET SOUND</u>, press P.</p> When you are ready to begin, press SPACEBAR.","","80","","","","","","","","","","","","","","","","","","","","","","","","","","","","","","","",""
"audio-keyboard-response","315","1396049","0.0-8.0-2.0-2.14-0.14","3","0","k1fl0ocvgl8144f","","null","","sounds/syllables/ge_SWS.wav","","null","","","","","","","","","","","","","","","","","","","","","","","","","","","","","","","",""
"html-keyboard-response","316","1396607","0.0-8.0-2.0-2.14-1.14","3","0","k1fl0ocvgl8144f","","557.1999999880791","","<p>To replay the <u>TARGET SOUND</u>, press P.</p> When you are ready to begin, press SPACEBAR.","","32","","","","","","","","","","","","","","","","","","","","","","","","","","","","","","","",""
"audio-keyboard-response","317","1411559","0.0-8.0-2.0-3.9","3","0","k1fl0ocvgl8144f","","3211","","sounds/C/TD/GE_03_TD.mp3","","32","","","TD_SUMMARY","","","","","","","","","","GE","","1500,8700,10500,12300","3","1500","8700","10500","12300","null","595","null","1145.5999999642372","____________________________________________________3211.899999976158_8400.799999952316_9295_12530.599999964237_13445.599999964237","2","","","","","",""
"html-button-response","318","1413033","0.0-8.0-2.0-0.10","3","0","k1fl0ocvgl8144f","","1470.800000011921","","<p>Trial 11 of 36</p>","0","","","","","","","","","","","","","","RU","sounds/syllables/ru_SWS.wav","1200,5700,7500,12000","2","","","","","","","","","","","","","","","",""
"html-keyboard-response","319","1413991","0.0-8.0-2.0-1.10","3","0","k1fl0ocvgl8144f","","955.8999999761581","","","","80","","","","","","","","","","","","","RU","","1200,5700,7500,12000","2","","","","","","","","","","","","","","","",""
"audio-keyboard-response","320","1414294","0.0-8.0-2.0-2.15-0.15","3","0","k1fl0ocvgl8144f","","null","","sounds/syllables/ru_SWS.wav","","null","","","","","","","","","","","","","","","","","","","","","","","","","","","","","","","",""
"html-keyboard-response","321","1414770","0.0-8.0-2.0-2.15-1.15","3","0","k1fl0ocvgl8144f","","473.60000002384186","","<p>To replay the <u>TARGET SOUND</u>, press P.</p> When you are ready to begin, press SPACEBAR.","","32","","","","","","","","","","","","","","","","","","","","","","","","","","","","","","","",""
"audio-keyboard-response","322","1429718","0.0-8.0-2.0-3.10","3","0","k1fl0ocvgl8144f","","1829","","sounds/C/TD/RU_01_TD.mp3","","32","","","TD_SUMMARY","","","","","","","","","","RU","","1200,5700,7500,12000","2","1200","5700","7500","12000","632.6000000238419","null","724.3999999761581","711.1000000238419","_________________________________________________________1832.6000000238419_5009.699999988079_8224.399999976158_10268.399999976158_12711.100000023842","1","","","","","",""
"html-button-response","323","1452594","0.0-8.0-2.0-0.11","3","0","k1fl0ocvgl8144f","","22873.19999998808","","<p>Trial 12 of 36</p>","0","","","","","","","","","","","","","","KO","sounds/syllables/ko_SWS.wav","900,2700,8100,10800","1","","","","","","","","","","","","","","","",""
"html-keyboard-response","324","1453675","0.0-8.0-2.0-1.11","3","0","k1fl0ocvgl8144f","","1079.4000000357628","","","","80","","","","","","","","","","","","","KO","","900,2700,8100,10800","1","","","","","","","","","","","","","","","",""
"audio-keyboard-response","325","1453980","0.0-8.0-2.0-2.16-0.16","3","0","k1fl0ocvgl8144f","","null","","sounds/syllables/ko_SWS.wav","","null","","","","","","","","","","","","","","","","","","","","","","","","","","","","","","","",""
"html-keyboard-response","326","1455676","0.0-8.0-2.0-2.16-1.16","3","0","k1fl0ocvgl8144f","","1695.3999999761581","","<p>To replay the <u>TARGET SOUND</u>, press P.</p> When you are ready to begin, press SPACEBAR.","","32","","","","","","","","","","","","","","","","","","","","","","","","","","","","","","","",""
"audio-keyboard-response","327","1470625","0.0-8.0-2.0-3.11","3","0","k1fl0ocvgl8144f","","3467","","sounds/C/TD/KO_04_TD.mp3","","32","","","TD_SUMMARY","","","","","","","","","","KO","","900,2700,8100,10800","1","900","2700","8100","10800","null","771.1000000238419","null","null","______________________________________________________________3471.100000023842_5690.399999976158_7289_10850.300000011921","1","","","","","",""
"html-button-response","328","1472213","0.0-8.0-2.0-0.12","3","0","k1fl0ocvgl8144f","","1583","","<p>Trial 13 of 36</p>","0","","","","","","","","","","","","","","SU","sounds/syllables/su_SWS.wav","900,5400,8100,11700","1","","","","","","","","","","","","","","","",""
"html-keyboard-response","329","1473795","0.0-8.0-2.0-1.12","3","0","k1fl0ocvgl8144f","","1580","","","","80","","","","","","","","","","","","","SU","","900,5400,8100,11700","1","","","","","","","","","","","","","","","",""
"audio-keyboard-response","330","1474097","0.0-8.0-2.0-2.17-0.17","3","0","k1fl0ocvgl8144f","","null","","sounds/syllables/su_SWS.wav","","null","","","","","","","","","","","","","","","","","","","","","","","","","","","","","","","",""
"html-keyboard-response","331","1475311","0.0-8.0-2.0-2.17-1.17","3","0","k1fl0ocvgl8144f","","1212.199999988079","","<p>To replay the <u>TARGET SOUND</u>, press P.</p> When you are ready to begin, press SPACEBAR.","","32","","","","","","","","","","","","","","","","","","","","","","","","","","","","","","","",""
"audio-keyboard-response","332","1490262","0.0-8.0-2.0-3.12","3","0","k1fl0ocvgl8144f","","1861","","sounds/C/TD/SU_02_TD.mp3","","32","","","TD_SUMMARY","","","","","","","","","","SU","","900,5400,8100,11700","1","900","5400","8100","11700","961.2000000476837","null","578.6000000238419","null","__________________________________________________________________1861.2000000476837_6642_8678.600000023842_9633.700000047684_11262.800000011921_13215.300000011921_13448.700000047684","1","","","","","",""
"html-button-response","333","1491916","0.0-8.0-2.0-0.13","3","0","k1fl0ocvgl8144f","","1649.5","","<p>Trial 14 of 36</p>","0","","","","","","","","","","","","","","TA","sounds/syllables/ta_SWS.wav","2100,4800,10200,12000","2","","","","","","","","","","","","","","","",""
"html-keyboard-response","334","1493380","0.0-8.0-2.0-1.13","3","0","k1fl0ocvgl8144f","","1462.1000000238419","","","","80","","","","","","","","","","","","","TA","","2100,4800,10200,12000","2","","","","","","","","","","","","","","","",""
"audio-keyboard-response","335","1493681","0.0-8.0-2.0-2.18-0.18","3","0","k1fl0ocvgl8144f","","null","","sounds/syllables/ta_SWS.wav","","null","","","","","","","","","","","","","","","","","","","","","","","","","","","","","","","",""
"html-keyboard-response","336","1493979","0.0-8.0-2.0-2.18-1.18","3","0","k1fl0ocvgl8144f","","297.0999999642372","","<p>To replay the <u>TARGET SOUND</u>, press P.</p> When you are ready to begin, press SPACEBAR.","","32","","","","","","","","","","","","","","","","","","","","","","","","","","","","","","","",""
