"trial_type","trial_index","time_elapsed","internal_node_id","counterbalance","lang_instruct","ParticipantID","view_history","rt","url","stimulus","button_pressed","key_press","correctRESP","correct","designation","location","correctanswer","responses","sentence","keywords","typed_resp","keyword1_acc","keyword2_acc","keyword3_acc","keyword4_acc","keyword5_acc","total_acc","prop_acc","timeouts","pause_rt01","pause_rt02","train_file","numKeyPress","sound","fam_type","SYLLABLE","EXEMPLAR","TD_LOCS","TD_TYPE","TDLOC_01","TDLOC_02","TDLOC_03","TDLOC_04","TD_RT_01","TD_RT_02","TD_RT_03","TD_RT_04","TD_SUBJ_RTs","number_of_plays","slider_start","response","question_order","syllable","syllable_type"
"pavlovia","0","2","0.0-0.0","2","1","rrtcvc8na1ctrqw","","","","","","","","","","","","","","","","","","","","","","","","","","","","","","","","","","","","","","","","","","","","","","","",""
"instructions","1","175784","0.0-1.0","2","1","rrtcvc8na1ctrqw","[{""page_index"":0,""viewing_time"":4630.799999952316},{""page_index"":1,""viewing_time"":171150}]","175782.39999997616","","","","","","","","","","","","","","","","","","","","","","","","","","","","","","","","","","","","","","","","","","","","","",""
"external-html","2","325656","0.0-2.0","2","1","rrtcvc8na1ctrqw","","80383","consent/consent.html","","","","","","","","","","","","","","","","","","","","","","","","","","","","","","","","","","","","","","","","","","","","",""
"html-button-response","3","329803","0.0-3.0-0.0-0.0","2","1","rrtcvc8na1ctrqw","","4143.399999976158","","<p>Welcome to the study. You will first complete a short volume calibration and headphone check.</p><p>Please make sure you are in a quiet listening environment, that you are wearing headphones, and that your computer's volume is turned on.<p></p>","0","","","","","","","","","","","","","","","","","","","","","","","","","","","","","","","","","","","","","","","","","","",""
"html-button-response","4","333390","0.0-3.0-0.0-1.0","2","1","rrtcvc8na1ctrqw","","3330.3000000715256","","<p>The volume calibration will be first.</p><p>You will hear a thirty-second noise. Please adjust your computer's volume so that this noise is being presented at a comfortable level.<p></p>","0","","","","","","","","","","","","","","","","","","","","","","","","","","","","","","","","","","","","","","","","","","",""
"audio-button-response","5","339724","0.0-3.0-0.0-2.0","2","1","rrtcvc8na1ctrqw","","6032","","audCalib/volumetest.mp3","0","","","","","","","","","","","","","","","","","","","","","","","","","","","","","","","","","","","","","","","","","","",""
"html-button-response","6","344289","0.0-3.0-1.0-0.0","2","1","rrtcvc8na1ctrqw","","4563.700000047684","","<p>You will now complete a short headphone check.</p><p>On each trial, you will hear three tones. One of these tones will be quieter than the others. Your task is to identify whether the quiet tone occured first, second, or third.</p><p>There are six trials in total.<p></p>","0","","","","","","","","","","","","","","","","","","","","","","","","","","","","","","","","","","","","","","","","","","",""
"html-keyboard-response","7","345044","0.0-3.0-1.0-1.0-0.0","2","1","rrtcvc8na1ctrqw","","null","","<div style=""font-size:60px;"">+</div>","","null","","","","","","","","","","","","","","","","","","","","","","","","","","","","","","","","","","","","","","","","","",""
"audio-button-response","8","349623","0.0-3.0-1.0-1.0-1.0","2","1","rrtcvc8na1ctrqw","","4576","","audCalib/t3_1.mp3","2","","2","1","headphone-test","","","","","","","","","","","","","","","","","","","","","","","","","","","","","","","","","","","","","","",""
"html-keyboard-response","9","350383","0.0-3.0-1.0-1.0-0.1","2","1","rrtcvc8na1ctrqw","","null","","<div style=""font-size:60px;"">+</div>","","null","","","","","","","","","","","","","","","","","","","","","","","","","","","","","","","","","","","","","","","","","",""
"audio-button-response","10","354836","0.0-3.0-1.0-1.0-1.1","2","1","rrtcvc8na1ctrqw","","4448","","audCalib/t2_2.mp3","1","","1","1","headphone-test","","","","","","","","","","","","","","","","","","","","","","","","","","","","","","","","","","","","","","",""
"html-keyboard-response","11","355594","0.0-3.0-1.0-1.0-0.2","2","1","rrtcvc8na1ctrqw","","null","","<div style=""font-size:60px;"">+</div>","","null","","","","","","","","","","","","","","","","","","","","","","","","","","","","","","","","","","","","","","","","","",""
"audio-button-response","12","359966","0.0-3.0-1.0-1.0-1.2","2","1","rrtcvc8na1ctrqw","","4368","","audCalib/t3_2.mp3","2","","2","1","headphone-test","","","","","","","","","","","","","","","","","","","","","","","","","","","","","","","","","","","","","","",""
"html-keyboard-response","13","360722","0.0-3.0-1.0-1.0-0.3","2","1","rrtcvc8na1ctrqw","","null","","<div style=""font-size:60px;"">+</div>","","null","","","","","","","","","","","","","","","","","","","","","","","","","","","","","","","","","","","","","","","","","",""
"audio-button-response","14","365170","0.0-3.0-1.0-1.0-1.3","2","1","rrtcvc8na1ctrqw","","4443","","audCalib/t2_1.mp3","1","","1","1","headphone-test","","","","","","","","","","","","","","","","","","","","","","","","","","","","","","","","","","","","","","",""
"html-keyboard-response","15","365928","0.0-3.0-1.0-1.0-0.4","2","1","rrtcvc8na1ctrqw","","null","","<div style=""font-size:60px;"">+</div>","","null","","","","","","","","","","","","","","","","","","","","","","","","","","","","","","","","","","","","","","","","","",""
"audio-button-response","16","370084","0.0-3.0-1.0-1.0-1.4","2","1","rrtcvc8na1ctrqw","","4149","","audCalib/t1_1.mp3","0","","0","1","headphone-test","","","","","","","","","","","","","","","","","","","","","","","","","","","","","","","","","","","","","","",""
"html-keyboard-response","17","370840","0.0-3.0-1.0-1.0-0.5","2","1","rrtcvc8na1ctrqw","","null","","<div style=""font-size:60px;"">+</div>","","null","","","","","","","","","","","","","","","","","","","","","","","","","","","","","","","","","","","","","","","","","",""
"audio-button-response","18","374969","0.0-3.0-1.0-1.0-1.5","2","1","rrtcvc8na1ctrqw","","4123","","audCalib/t1_2.mp3","0","","0","1","headphone-test","","","","","","","","","","","","","","","","","","","","","","","","","","","","","","","","","","","","","","",""
"html-button-response","19","376612","0.0-3.0-2.0","2","1","rrtcvc8na1ctrqw","","1390","","<p>The volume calibration and headphone check are now complete.</p>","0","","","","","","","","","","","","","","","","","","","","","","","","","","","","","","","","","","","","","","","","","","",""
"instructions","20","401827","0.0-4.0-0.0","2","1","rrtcvc8na1ctrqw","[{""page_index"":0,""viewing_time"":1097.3999999761581},{""page_index"":1,""viewing_time"":22133},{""page_index"":2,""viewing_time"":1984.3999999761581}]","25215","","","","","","","","","","","","","","","","","","","","","","","","","","","","","","","","","","","","","","","","","","","","","",""
"audio-keyboard-response","21","402127","0.0-4.0-1.0-0.0","2","1","rrtcvc8na1ctrqw","","null","","sounds/induction/right/ko_SWS.wav","","null","","","","","","","","","","","","","","","","","","","","","","","","","","","","","","","","","","","","","","","","","",""
"html-button-response","22","404226","0.0-4.0-1.0-1.0","2","1","rrtcvc8na1ctrqw","","2098.2000000476837","","What sound did you hear?","1","","","0","INDUCTION-JUDGMENT","right","0","","","","","","","","","","","","","","","","","","","","","","","","","","","","","","","","","","","","",""
"html-keyboard-response","23","405228","0.0-4.0-1.0-2.0","2","1","rrtcvc8na1ctrqw","","null","","<p style=""color:red;""><b>Incorrect!</b></p>","","null","","","","","","","","","","","","","","","","","","","","","","","","","","","","","","","","","","","","","","","","","",""
"audio-keyboard-response","24","406031","0.0-4.0-1.0-0.1","2","1","rrtcvc8na1ctrqw","","null","","sounds/induction/left/pu_SWS.wav","","null","","","","","","","","","","","","","","","","","","","","","","","","","","","","","","","","","","","","","","","","","",""
"html-button-response","25","408304","0.0-4.0-1.0-1.1","2","1","rrtcvc8na1ctrqw","","2272.3000000715256","","What sound did you hear?","0","","","1","INDUCTION-JUDGMENT","left","0","","","","","","","","","","","","","","","","","","","","","","","","","","","","","","","","","","","","",""
"html-keyboard-response","26","409309","0.0-4.0-1.0-2.1","2","1","rrtcvc8na1ctrqw","","null","","<p style=""color:green;""><b>Correct!</b></p>","","null","","","","","","","","","","","","","","","","","","","","","","","","","","","","","","","","","","","","","","","","","",""
"audio-keyboard-response","27","410117","0.0-4.0-1.0-0.2","2","1","rrtcvc8na1ctrqw","","null","","sounds/induction/left/ti_SWS.wav","","null","","","","","","","","","","","","","","","","","","","","","","","","","","","","","","","","","","","","","","","","","",""
"html-button-response","28","412436","0.0-4.0-1.0-1.2","2","1","rrtcvc8na1ctrqw","","2318.100000023842","","What sound did you hear?","1","","","0","INDUCTION-JUDGMENT","left","0","","","","","","","","","","","","","","","","","","","","","","","","","","","","","","","","","","","","",""
"html-keyboard-response","29","413439","0.0-4.0-1.0-2.2","2","1","rrtcvc8na1ctrqw","","null","","<p style=""color:red;""><b>Incorrect!</b></p>","","null","","","","","","","","","","","","","","","","","","","","","","","","","","","","","","","","","","","","","","","","","",""
"audio-keyboard-response","30","414251","0.0-4.0-1.0-0.3","2","1","rrtcvc8na1ctrqw","","null","","sounds/induction/left/fu_SWS.wav","","null","","","","","","","","","","","","","","","","","","","","","","","","","","","","","","","","","","","","","","","","","",""
"html-button-response","31","416261","0.0-4.0-1.0-1.3","2","1","rrtcvc8na1ctrqw","","2008.7999999523163","","What sound did you hear?","1","","","1","INDUCTION-JUDGMENT","left","1","","","","","","","","","","","","","","","","","","","","","","","","","","","","","","","","","","","","",""
"html-keyboard-response","32","417262","0.0-4.0-1.0-2.3","2","1","rrtcvc8na1ctrqw","","null","","<p style=""color:green;""><b>Correct!</b></p>","","null","","","","","","","","","","","","","","","","","","","","","","","","","","","","","","","","","","","","","","","","","",""
"audio-keyboard-response","33","418069","0.0-4.0-1.0-0.4","2","1","rrtcvc8na1ctrqw","","null","","sounds/induction/left/ru_SWS.wav","","null","","","","","","","","","","","","","","","","","","","","","","","","","","","","","","","","","","","","","","","","","",""
"html-button-response","34","420087","0.0-4.0-1.0-1.4","2","1","rrtcvc8na1ctrqw","","2017.2999999523163","","What sound did you hear?","0","","","1","INDUCTION-JUDGMENT","left","0","","","","","","","","","","","","","","","","","","","","","","","","","","","","","","","","","","","","",""
"html-keyboard-response","35","421089","0.0-4.0-1.0-2.4","2","1","rrtcvc8na1ctrqw","","null","","<p style=""color:green;""><b>Correct!</b></p>","","null","","","","","","","","","","","","","","","","","","","","","","","","","","","","","","","","","","","","","","","","","",""
"audio-keyboard-response","36","421898","0.0-4.0-1.0-0.5","2","1","rrtcvc8na1ctrqw","","null","","sounds/induction/right/ta_SWS.wav","","null","","","","","","","","","","","","","","","","","","","","","","","","","","","","","","","","","","","","","","","","","",""
"html-button-response","37","424325","0.0-4.0-1.0-1.5","2","1","rrtcvc8na1ctrqw","","2426.1999999284744","","What sound did you hear?","0","","","0","INDUCTION-JUDGMENT","right","1","","","","","","","","","","","","","","","","","","","","","","","","","","","","","","","","","","","","",""
"html-keyboard-response","38","425330","0.0-4.0-1.0-2.5","2","1","rrtcvc8na1ctrqw","","null","","<p style=""color:red;""><b>Incorrect!</b></p>","","null","","","","","","","","","","","","","","","","","","","","","","","","","","","","","","","","","","","","","","","","","",""
"audio-keyboard-response","39","426138","0.0-4.0-1.0-0.6","2","1","rrtcvc8na1ctrqw","","null","","sounds/induction/left/ta_SWS.wav","","null","","","","","","","","","","","","","","","","","","","","","","","","","","","","","","","","","","","","","","","","","",""
"html-button-response","40","427711","0.0-4.0-1.0-1.6","2","1","rrtcvc8na1ctrqw","","1572.8999999761581","","What sound did you hear?","0","","","1","INDUCTION-JUDGMENT","left","0","","","","","","","","","","","","","","","","","","","","","","","","","","","","","","","","","","","","",""
"html-keyboard-response","41","428713","0.0-4.0-1.0-2.6","2","1","rrtcvc8na1ctrqw","","null","","<p style=""color:green;""><b>Correct!</b></p>","","null","","","","","","","","","","","","","","","","","","","","","","","","","","","","","","","","","","","","","","","","","",""
"audio-keyboard-response","42","429519","0.0-4.0-1.0-0.7","2","1","rrtcvc8na1ctrqw","","null","","sounds/induction/left/su_SWS.wav","","null","","","","","","","","","","","","","","","","","","","","","","","","","","","","","","","","","","","","","","","","","",""
"html-button-response","43","431285","0.0-4.0-1.0-1.7","2","1","rrtcvc8na1ctrqw","","1765.1000000238419","","What sound did you hear?","0","","","1","INDUCTION-JUDGMENT","left","0","","","","","","","","","","","","","","","","","","","","","","","","","","","","","","","","","","","","",""
"html-keyboard-response","44","432289","0.0-4.0-1.0-2.7","2","1","rrtcvc8na1ctrqw","","null","","<p style=""color:green;""><b>Correct!</b></p>","","null","","","","","","","","","","","","","","","","","","","","","","","","","","","","","","","","","","","","","","","","","",""
"audio-keyboard-response","45","433093","0.0-4.0-1.0-0.8","2","1","rrtcvc8na1ctrqw","","null","","sounds/induction/right/ru_SWS.wav","","null","","","","","","","","","","","","","","","","","","","","","","","","","","","","","","","","","","","","","","","","","",""
"html-button-response","46","434622","0.0-4.0-1.0-1.8","2","1","rrtcvc8na1ctrqw","","1528.3999999761581","","What sound did you hear?","1","","","1","INDUCTION-JUDGMENT","right","1","","","","","","","","","","","","","","","","","","","","","","","","","","","","","","","","","","","","",""
"html-keyboard-response","47","435627","0.0-4.0-1.0-2.8","2","1","rrtcvc8na1ctrqw","","null","","<p style=""color:green;""><b>Correct!</b></p>","","null","","","","","","","","","","","","","","","","","","","","","","","","","","","","","","","","","","","","","","","","","",""
"audio-keyboard-response","48","436431","0.0-4.0-1.0-0.9","2","1","rrtcvc8na1ctrqw","","null","","sounds/induction/right/re_SWS.wav","","null","","","","","","","","","","","","","","","","","","","","","","","","","","","","","","","","","","","","","","","","","",""
"html-button-response","49","437730","0.0-4.0-1.0-1.9","2","1","rrtcvc8na1ctrqw","","1297.3999999761581","","What sound did you hear?","1","","","1","INDUCTION-JUDGMENT","right","1","","","","","","","","","","","","","","","","","","","","","","","","","","","","","","","","","","","","",""
"html-keyboard-response","50","438735","0.0-4.0-1.0-2.9","2","1","rrtcvc8na1ctrqw","","null","","<p style=""color:green;""><b>Correct!</b></p>","","null","","","","","","","","","","","","","","","","","","","","","","","","","","","","","","","","","","","","","","","","","",""
"audio-keyboard-response","51","439541","0.0-4.0-1.0-0.10","2","1","rrtcvc8na1ctrqw","","null","","sounds/induction/left/ta_SWS.wav","","null","","","","","","","","","","","","","","","","","","","","","","","","","","","","","","","","","","","","","","","","","",""
"html-button-response","52","441108","0.0-4.0-1.0-1.10","2","1","rrtcvc8na1ctrqw","","1566.3999999761581","","What sound did you hear?","0","","","1","INDUCTION-JUDGMENT","left","0","","","","","","","","","","","","","","","","","","","","","","","","","","","","","","","","","","","","",""
"html-keyboard-response","53","442113","0.0-4.0-1.0-2.10","2","1","rrtcvc8na1ctrqw","","null","","<p style=""color:green;""><b>Correct!</b></p>","","null","","","","","","","","","","","","","","","","","","","","","","","","","","","","","","","","","","","","","","","","","",""
"audio-keyboard-response","54","442917","0.0-4.0-1.0-0.11","2","1","rrtcvc8na1ctrqw","","null","","sounds/induction/left/fe_SWS.wav","","null","","","","","","","","","","","","","","","","","","","","","","","","","","","","","","","","","","","","","","","","","",""
"html-button-response","55","444495","0.0-4.0-1.0-1.11","2","1","rrtcvc8na1ctrqw","","1577.6000000238419","","What sound did you hear?","0","","","0","INDUCTION-JUDGMENT","left","1","","","","","","","","","","","","","","","","","","","","","","","","","","","","","","","","","","","","",""
"html-keyboard-response","56","445501","0.0-4.0-1.0-2.11","2","1","rrtcvc8na1ctrqw","","null","","<p style=""color:red;""><b>Incorrect!</b></p>","","null","","","","","","","","","","","","","","","","","","","","","","","","","","","","","","","","","","","","","","","","","",""
"audio-keyboard-response","57","446304","0.0-4.0-1.0-0.12","2","1","rrtcvc8na1ctrqw","","null","","sounds/induction/right/fu_SWS.wav","","null","","","","","","","","","","","","","","","","","","","","","","","","","","","","","","","","","","","","","","","","","",""
"html-button-response","58","448653","0.0-4.0-1.0-1.12","2","1","rrtcvc8na1ctrqw","","2348.600000023842","","What sound did you hear?","0","","","1","INDUCTION-JUDGMENT","right","0","","","","","","","","","","","","","","","","","","","","","","","","","","","","","","","","","","","","",""
"html-keyboard-response","59","449654","0.0-4.0-1.0-2.12","2","1","rrtcvc8na1ctrqw","","null","","<p style=""color:green;""><b>Correct!</b></p>","","null","","","","","","","","","","","","","","","","","","","","","","","","","","","","","","","","","","","","","","","","","",""
"audio-keyboard-response","60","450458","0.0-4.0-1.0-0.13","2","1","rrtcvc8na1ctrqw","","null","","sounds/induction/right/ni_SWS.wav","","null","","","","","","","","","","","","","","","","","","","","","","","","","","","","","","","","","","","","","","","","","",""
"html-button-response","61","452340","0.0-4.0-1.0-1.13","2","1","rrtcvc8na1ctrqw","","1881.5","","What sound did you hear?","0","","","1","INDUCTION-JUDGMENT","right","0","","","","","","","","","","","","","","","","","","","","","","","","","","","","","","","","","","","","",""
"html-keyboard-response","62","453345","0.0-4.0-1.0-2.13","2","1","rrtcvc8na1ctrqw","","null","","<p style=""color:green;""><b>Correct!</b></p>","","null","","","","","","","","","","","","","","","","","","","","","","","","","","","","","","","","","","","","","","","","","",""
"audio-keyboard-response","63","454149","0.0-4.0-1.0-0.14","2","1","rrtcvc8na1ctrqw","","null","","sounds/induction/right/me_SWS.wav","","null","","","","","","","","","","","","","","","","","","","","","","","","","","","","","","","","","","","","","","","","","",""
"html-button-response","64","455710","0.0-4.0-1.0-1.14","2","1","rrtcvc8na1ctrqw","","1559.9000000953674","","What sound did you hear?","0","","","1","INDUCTION-JUDGMENT","right","0","","","","","","","","","","","","","","","","","","","","","","","","","","","","","","","","","","","","",""
"html-keyboard-response","65","456714","0.0-4.0-1.0-2.14","2","1","rrtcvc8na1ctrqw","","null","","<p style=""color:green;""><b>Correct!</b></p>","","null","","","","","","","","","","","","","","","","","","","","","","","","","","","","","","","","","","","","","","","","","",""
"audio-keyboard-response","66","457519","0.0-4.0-1.0-0.15","2","1","rrtcvc8na1ctrqw","","null","","sounds/induction/right/ni_SWS.wav","","null","","","","","","","","","","","","","","","","","","","","","","","","","","","","","","","","","","","","","","","","","",""
"html-button-response","67","459388","0.0-4.0-1.0-1.15","2","1","rrtcvc8na1ctrqw","","1868.6999999284744","","What sound did you hear?","0","","","1","INDUCTION-JUDGMENT","right","0","","","","","","","","","","","","","","","","","","","","","","","","","","","","","","","","","","","","",""
"html-keyboard-response","68","460394","0.0-4.0-1.0-2.15","2","1","rrtcvc8na1ctrqw","","null","","<p style=""color:green;""><b>Correct!</b></p>","","null","","","","","","","","","","","","","","","","","","","","","","","","","","","","","","","","","","","","","","","","","",""
"audio-keyboard-response","69","461199","0.0-4.0-1.0-0.16","2","1","rrtcvc8na1ctrqw","","null","","sounds/induction/left/ti_SWS.wav","","null","","","","","","","","","","","","","","","","","","","","","","","","","","","","","","","","","","","","","","","","","",""
"html-button-response","70","463254","0.0-4.0-1.0-1.16","2","1","rrtcvc8na1ctrqw","","2054","","What sound did you hear?","0","","","1","INDUCTION-JUDGMENT","left","0","","","","","","","","","","","","","","","","","","","","","","","","","","","","","","","","","","","","",""
"html-keyboard-response","71","464258","0.0-4.0-1.0-2.16","2","1","rrtcvc8na1ctrqw","","null","","<p style=""color:green;""><b>Correct!</b></p>","","null","","","","","","","","","","","","","","","","","","","","","","","","","","","","","","","","","","","","","","","","","",""
"audio-keyboard-response","72","465061","0.0-4.0-1.0-0.17","2","1","rrtcvc8na1ctrqw","","null","","sounds/induction/right/su_SWS.wav","","null","","","","","","","","","","","","","","","","","","","","","","","","","","","","","","","","","","","","","","","","","",""
"html-button-response","73","466957","0.0-4.0-1.0-1.17","2","1","rrtcvc8na1ctrqw","","1895.1000000238419","","What sound did you hear?","1","","","1","INDUCTION-JUDGMENT","right","1","","","","","","","","","","","","","","","","","","","","","","","","","","","","","","","","","","","","",""
"html-keyboard-response","74","467962","0.0-4.0-1.0-2.17","2","1","rrtcvc8na1ctrqw","","null","","<p style=""color:green;""><b>Correct!</b></p>","","null","","","","","","","","","","","","","","","","","","","","","","","","","","","","","","","","","","","","","","","","","",""
"audio-keyboard-response","75","468767","0.0-4.0-1.0-0.18","2","1","rrtcvc8na1ctrqw","","null","","sounds/induction/left/ko_SWS.wav","","null","","","","","","","","","","","","","","","","","","","","","","","","","","","","","","","","","","","","","","","","","",""
"html-button-response","76","471456","0.0-4.0-1.0-1.18","2","1","rrtcvc8na1ctrqw","","2688.5999999046326","","What sound did you hear?","0","","","0","INDUCTION-JUDGMENT","left","1","","","","","","","","","","","","","","","","","","","","","","","","","","","","","","","","","","","","",""
"html-keyboard-response","77","472462","0.0-4.0-1.0-2.18","2","1","rrtcvc8na1ctrqw","","null","","<p style=""color:red;""><b>Incorrect!</b></p>","","null","","","","","","","","","","","","","","","","","","","","","","","","","","","","","","","","","","","","","","","","","",""
"audio-keyboard-response","78","473264","0.0-4.0-1.0-0.19","2","1","rrtcvc8na1ctrqw","","null","","sounds/induction/right/fe_SWS.wav","","null","","","","","","","","","","","","","","","","","","","","","","","","","","","","","","","","","","","","","","","","","",""
"html-button-response","79","475202","0.0-4.0-1.0-1.19","2","1","rrtcvc8na1ctrqw","","1937.5999999046326","","What sound did you hear?","0","","","1","INDUCTION-JUDGMENT","right","0","","","","","","","","","","","","","","","","","","","","","","","","","","","","","","","","","","","","",""
"html-keyboard-response","80","476205","0.0-4.0-1.0-2.19","2","1","rrtcvc8na1ctrqw","","null","","<p style=""color:green;""><b>Correct!</b></p>","","null","","","","","","","","","","","","","","","","","","","","","","","","","","","","","","","","","","","","","","","","","",""
"audio-keyboard-response","81","477013","0.0-4.0-1.0-0.20","2","1","rrtcvc8na1ctrqw","","null","","sounds/induction/right/me_SWS.wav","","null","","","","","","","","","","","","","","","","","","","","","","","","","","","","","","","","","","","","","","","","","",""
"html-button-response","82","479455","0.0-4.0-1.0-1.20","2","1","rrtcvc8na1ctrqw","","2441.899999976158","","What sound did you hear?","0","","","1","INDUCTION-JUDGMENT","right","0","","","","","","","","","","","","","","","","","","","","","","","","","","","","","","","","","","","","",""
"html-keyboard-response","83","480457","0.0-4.0-1.0-2.20","2","1","rrtcvc8na1ctrqw","","null","","<p style=""color:green;""><b>Correct!</b></p>","","null","","","","","","","","","","","","","","","","","","","","","","","","","","","","","","","","","","","","","","","","","",""
"audio-keyboard-response","84","481264","0.0-4.0-1.0-0.21","2","1","rrtcvc8na1ctrqw","","null","","sounds/induction/left/me_SWS.wav","","null","","","","","","","","","","","","","","","","","","","","","","","","","","","","","","","","","","","","","","","","","",""
"html-button-response","85","483354","0.0-4.0-1.0-1.21","2","1","rrtcvc8na1ctrqw","","2089.2000000476837","","What sound did you hear?","1","","","1","INDUCTION-JUDGMENT","left","1","","","","","","","","","","","","","","","","","","","","","","","","","","","","","","","","","","","","",""
"html-keyboard-response","86","484358","0.0-4.0-1.0-2.21","2","1","rrtcvc8na1ctrqw","","null","","<p style=""color:green;""><b>Correct!</b></p>","","null","","","","","","","","","","","","","","","","","","","","","","","","","","","","","","","","","","","","","","","","","",""
"audio-keyboard-response","87","485162","0.0-4.0-1.0-0.22","2","1","rrtcvc8na1ctrqw","","null","","sounds/induction/left/ru_SWS.wav","","null","","","","","","","","","","","","","","","","","","","","","","","","","","","","","","","","","","","","","","","","","",""
"html-button-response","88","486655","0.0-4.0-1.0-1.22","2","1","rrtcvc8na1ctrqw","","1492.2000000476837","","What sound did you hear?","0","","","1","INDUCTION-JUDGMENT","left","0","","","","","","","","","","","","","","","","","","","","","","","","","","","","","","","","","","","","",""
"html-keyboard-response","89","487657","0.0-4.0-1.0-2.22","2","1","rrtcvc8na1ctrqw","","null","","<p style=""color:green;""><b>Correct!</b></p>","","null","","","","","","","","","","","","","","","","","","","","","","","","","","","","","","","","","","","","","","","","","",""
"audio-keyboard-response","90","488463","0.0-4.0-1.0-0.23","2","1","rrtcvc8na1ctrqw","","null","","sounds/induction/left/re_SWS.wav","","null","","","","","","","","","","","","","","","","","","","","","","","","","","","","","","","","","","","","","","","","","",""
"html-button-response","91","490018","0.0-4.0-1.0-1.23","2","1","rrtcvc8na1ctrqw","","1554.3000000715256","","What sound did you hear?","0","","","1","INDUCTION-JUDGMENT","left","0","","","","","","","","","","","","","","","","","","","","","","","","","","","","","","","","","","","","",""
"html-keyboard-response","92","491022","0.0-4.0-1.0-2.23","2","1","rrtcvc8na1ctrqw","","null","","<p style=""color:green;""><b>Correct!</b></p>","","null","","","","","","","","","","","","","","","","","","","","","","","","","","","","","","","","","","","","","","","","","",""
"audio-keyboard-response","93","491829","0.0-4.0-1.0-0.24","2","1","rrtcvc8na1ctrqw","","null","","sounds/induction/left/ko_SWS.wav","","null","","","","","","","","","","","","","","","","","","","","","","","","","","","","","","","","","","","","","","","","","",""
"html-button-response","94","493981","0.0-4.0-1.0-1.24","2","1","rrtcvc8na1ctrqw","","2151.4000000953674","","What sound did you hear?","1","","","1","INDUCTION-JUDGMENT","left","1","","","","","","","","","","","","","","","","","","","","","","","","","","","","","","","","","","","","",""
"html-keyboard-response","95","494987","0.0-4.0-1.0-2.24","2","1","rrtcvc8na1ctrqw","","null","","<p style=""color:green;""><b>Correct!</b></p>","","null","","","","","","","","","","","","","","","","","","","","","","","","","","","","","","","","","","","","","","","","","",""
"audio-keyboard-response","96","495792","0.0-4.0-1.0-0.25","2","1","rrtcvc8na1ctrqw","","null","","sounds/induction/left/me_SWS.wav","","null","","","","","","","","","","","","","","","","","","","","","","","","","","","","","","","","","","","","","","","","","",""
"html-button-response","97","498441","0.0-4.0-1.0-1.25","2","1","rrtcvc8na1ctrqw","","2648.600000023842","","What sound did you hear?","1","","","1","INDUCTION-JUDGMENT","left","1","","","","","","","","","","","","","","","","","","","","","","","","","","","","","","","","","","","","",""
"html-keyboard-response","98","499443","0.0-4.0-1.0-2.25","2","1","rrtcvc8na1ctrqw","","null","","<p style=""color:green;""><b>Correct!</b></p>","","null","","","","","","","","","","","","","","","","","","","","","","","","","","","","","","","","","","","","","","","","","",""
"audio-keyboard-response","99","500250","0.0-4.0-1.0-0.26","2","1","rrtcvc8na1ctrqw","","null","","sounds/induction/right/ta_SWS.wav","","null","","","","","","","","","","","","","","","","","","","","","","","","","","","","","","","","","","","","","","","","","",""
"html-button-response","100","501836","0.0-4.0-1.0-1.26","2","1","rrtcvc8na1ctrqw","","1584.5","","What sound did you hear?","1","","","1","INDUCTION-JUDGMENT","right","1","","","","","","","","","","","","","","","","","","","","","","","","","","","","","","","","","","","","",""
"html-keyboard-response","101","502837","0.0-4.0-1.0-2.26","2","1","rrtcvc8na1ctrqw","","null","","<p style=""color:green;""><b>Correct!</b></p>","","null","","","","","","","","","","","","","","","","","","","","","","","","","","","","","","","","","","","","","","","","","",""
"audio-keyboard-response","102","503642","0.0-4.0-1.0-0.27","2","1","rrtcvc8na1ctrqw","","null","","sounds/induction/left/fu_SWS.wav","","null","","","","","","","","","","","","","","","","","","","","","","","","","","","","","","","","","","","","","","","","","",""
"html-button-response","103","505570","0.0-4.0-1.0-1.27","2","1","rrtcvc8na1ctrqw","","1927.1000000238419","","What sound did you hear?","1","","","1","INDUCTION-JUDGMENT","left","1","","","","","","","","","","","","","","","","","","","","","","","","","","","","","","","","","","","","",""
"html-keyboard-response","104","506576","0.0-4.0-1.0-2.27","2","1","rrtcvc8na1ctrqw","","null","","<p style=""color:green;""><b>Correct!</b></p>","","null","","","","","","","","","","","","","","","","","","","","","","","","","","","","","","","","","","","","","","","","","",""
"audio-keyboard-response","105","507381","0.0-4.0-1.0-0.28","2","1","rrtcvc8na1ctrqw","","null","","sounds/induction/left/ge_SWS.wav","","null","","","","","","","","","","","","","","","","","","","","","","","","","","","","","","","","","","","","","","","","","",""
"html-button-response","106","510282","0.0-4.0-1.0-1.28","2","1","rrtcvc8na1ctrqw","","2900.399999976158","","What sound did you hear?","1","","","1","INDUCTION-JUDGMENT","left","1","","","","","","","","","","","","","","","","","","","","","","","","","","","","","","","","","","","","",""
"html-keyboard-response","107","511285","0.0-4.0-1.0-2.28","2","1","rrtcvc8na1ctrqw","","null","","<p style=""color:green;""><b>Correct!</b></p>","","null","","","","","","","","","","","","","","","","","","","","","","","","","","","","","","","","","","","","","","","","","",""
"audio-keyboard-response","108","512090","0.0-4.0-1.0-0.29","2","1","rrtcvc8na1ctrqw","","null","","sounds/induction/right/ti_SWS.wav","","null","","","","","","","","","","","","","","","","","","","","","","","","","","","","","","","","","","","","","","","","","",""
"html-button-response","109","513642","0.0-4.0-1.0-1.29","2","1","rrtcvc8na1ctrqw","","1551.0999999046326","","What sound did you hear?","1","","","1","INDUCTION-JUDGMENT","right","1","","","","","","","","","","","","","","","","","","","","","","","","","","","","","","","","","","","","",""
"html-keyboard-response","110","514645","0.0-4.0-1.0-2.29","2","1","rrtcvc8na1ctrqw","","null","","<p style=""color:green;""><b>Correct!</b></p>","","null","","","","","","","","","","","","","","","","","","","","","","","","","","","","","","","","","","","","","","","","","",""
"audio-keyboard-response","111","515450","0.0-4.0-1.0-0.30","2","1","rrtcvc8na1ctrqw","","null","","sounds/induction/left/ge_SWS.wav","","null","","","","","","","","","","","","","","","","","","","","","","","","","","","","","","","","","","","","","","","","","",""
"html-button-response","112","517583","0.0-4.0-1.0-1.30","2","1","rrtcvc8na1ctrqw","","2131.9000000953674","","What sound did you hear?","1","","","1","INDUCTION-JUDGMENT","left","1","","","","","","","","","","","","","","","","","","","","","","","","","","","","","","","","","","","","",""
"html-keyboard-response","113","518587","0.0-4.0-1.0-2.30","2","1","rrtcvc8na1ctrqw","","null","","<p style=""color:green;""><b>Correct!</b></p>","","null","","","","","","","","","","","","","","","","","","","","","","","","","","","","","","","","","","","","","","","","","",""
"audio-keyboard-response","114","519392","0.0-4.0-1.0-0.31","2","1","rrtcvc8na1ctrqw","","null","","sounds/induction/right/fu_SWS.wav","","null","","","","","","","","","","","","","","","","","","","","","","","","","","","","","","","","","","","","","","","","","",""
"html-button-response","115","520887","0.0-4.0-1.0-1.31","2","1","rrtcvc8na1ctrqw","","1495","","What sound did you hear?","0","","","1","INDUCTION-JUDGMENT","right","0","","","","","","","","","","","","","","","","","","","","","","","","","","","","","","","","","","","","",""
"html-keyboard-response","116","521891","0.0-4.0-1.0-2.31","2","1","rrtcvc8na1ctrqw","","null","","<p style=""color:green;""><b>Correct!</b></p>","","null","","","","","","","","","","","","","","","","","","","","","","","","","","","","","","","","","","","","","","","","","",""
"audio-keyboard-response","117","522698","0.0-4.0-1.0-0.32","2","1","rrtcvc8na1ctrqw","","null","","sounds/induction/left/su_SWS.wav","","null","","","","","","","","","","","","","","","","","","","","","","","","","","","","","","","","","","","","","","","","","",""
"html-button-response","118","524050","0.0-4.0-1.0-1.32","2","1","rrtcvc8na1ctrqw","","1350.7000000476837","","What sound did you hear?","0","","","1","INDUCTION-JUDGMENT","left","0","","","","","","","","","","","","","","","","","","","","","","","","","","","","","","","","","","","","",""
"html-keyboard-response","119","525052","0.0-4.0-1.0-2.32","2","1","rrtcvc8na1ctrqw","","null","","<p style=""color:green;""><b>Correct!</b></p>","","null","","","","","","","","","","","","","","","","","","","","","","","","","","","","","","","","","","","","","","","","","",""
"audio-keyboard-response","120","525856","0.0-4.0-1.0-0.33","2","1","rrtcvc8na1ctrqw","","null","","sounds/induction/right/su_SWS.wav","","null","","","","","","","","","","","","","","","","","","","","","","","","","","","","","","","","","","","","","","","","","",""
"html-button-response","121","526903","0.0-4.0-1.0-1.33","2","1","rrtcvc8na1ctrqw","","1045.9000000953674","","What sound did you hear?","1","","","1","INDUCTION-JUDGMENT","right","1","","","","","","","","","","","","","","","","","","","","","","","","","","","","","","","","","","","","",""
"html-keyboard-response","122","527908","0.0-4.0-1.0-2.33","2","1","rrtcvc8na1ctrqw","","null","","<p style=""color:green;""><b>Correct!</b></p>","","null","","","","","","","","","","","","","","","","","","","","","","","","","","","","","","","","","","","","","","","","","",""
"audio-keyboard-response","123","528714","0.0-4.0-1.0-0.34","2","1","rrtcvc8na1ctrqw","","null","","sounds/induction/left/pu_SWS.wav","","null","","","","","","","","","","","","","","","","","","","","","","","","","","","","","","","","","","","","","","","","","",""
"html-button-response","124","530679","0.0-4.0-1.0-1.34","2","1","rrtcvc8na1ctrqw","","1964.2999999523163","","What sound did you hear?","0","","","1","INDUCTION-JUDGMENT","left","0","","","","","","","","","","","","","","","","","","","","","","","","","","","","","","","","","","","","",""
"html-keyboard-response","125","531682","0.0-4.0-1.0-2.34","2","1","rrtcvc8na1ctrqw","","null","","<p style=""color:green;""><b>Correct!</b></p>","","null","","","","","","","","","","","","","","","","","","","","","","","","","","","","","","","","","","","","","","","","","",""
"audio-keyboard-response","126","532490","0.0-4.0-1.0-0.35","2","1","rrtcvc8na1ctrqw","","null","","sounds/induction/right/ge_SWS.wav","","null","","","","","","","","","","","","","","","","","","","","","","","","","","","","","","","","","","","","","","","","","",""
"html-button-response","127","534782","0.0-4.0-1.0-1.35","2","1","rrtcvc8na1ctrqw","","2291.2999999523163","","What sound did you hear?","0","","","1","INDUCTION-JUDGMENT","right","0","","","","","","","","","","","","","","","","","","","","","","","","","","","","","","","","","","","","",""
"html-keyboard-response","128","535787","0.0-4.0-1.0-2.35","2","1","rrtcvc8na1ctrqw","","null","","<p style=""color:green;""><b>Correct!</b></p>","","null","","","","","","","","","","","","","","","","","","","","","","","","","","","","","","","","","","","","","","","","","",""
"audio-keyboard-response","129","536592","0.0-4.0-1.0-0.36","2","1","rrtcvc8na1ctrqw","","null","","sounds/induction/left/fe_SWS.wav","","null","","","","","","","","","","","","","","","","","","","","","","","","","","","","","","","","","","","","","","","","","",""
"html-button-response","130","538340","0.0-4.0-1.0-1.36","2","1","rrtcvc8na1ctrqw","","1746.7000000476837","","What sound did you hear?","0","","","0","INDUCTION-JUDGMENT","left","1","","","","","","","","","","","","","","","","","","","","","","","","","","","","","","","","","","","","",""
"html-keyboard-response","131","539346","0.0-4.0-1.0-2.36","2","1","rrtcvc8na1ctrqw","","null","","<p style=""color:red;""><b>Incorrect!</b></p>","","null","","","","","","","","","","","","","","","","","","","","","","","","","","","","","","","","","","","","","","","","","",""
"audio-keyboard-response","132","540149","0.0-4.0-1.0-0.37","2","1","rrtcvc8na1ctrqw","","null","","sounds/induction/right/ge_SWS.wav","","null","","","","","","","","","","","","","","","","","","","","","","","","","","","","","","","","","","","","","","","","","",""
"html-button-response","133","541710","0.0-4.0-1.0-1.37","2","1","rrtcvc8na1ctrqw","","1560","","What sound did you hear?","0","","","1","INDUCTION-JUDGMENT","right","0","","","","","","","","","","","","","","","","","","","","","","","","","","","","","","","","","","","","",""
"html-keyboard-response","134","542716","0.0-4.0-1.0-2.37","2","1","rrtcvc8na1ctrqw","","null","","<p style=""color:green;""><b>Correct!</b></p>","","null","","","","","","","","","","","","","","","","","","","","","","","","","","","","","","","","","","","","","","","","","",""
"audio-keyboard-response","135","543525","0.0-4.0-1.0-0.38","2","1","rrtcvc8na1ctrqw","","null","","sounds/induction/right/ti_SWS.wav","","null","","","","","","","","","","","","","","","","","","","","","","","","","","","","","","","","","","","","","","","","","",""
"html-button-response","136","544918","0.0-4.0-1.0-1.38","2","1","rrtcvc8na1ctrqw","","1392.1000000238419","","What sound did you hear?","1","","","1","INDUCTION-JUDGMENT","right","1","","","","","","","","","","","","","","","","","","","","","","","","","","","","","","","","","","","","",""
"html-keyboard-response","137","545920","0.0-4.0-1.0-2.38","2","1","rrtcvc8na1ctrqw","","null","","<p style=""color:green;""><b>Correct!</b></p>","","null","","","","","","","","","","","","","","","","","","","","","","","","","","","","","","","","","","","","","","","","","",""
"audio-keyboard-response","138","546725","0.0-4.0-1.0-0.39","2","1","rrtcvc8na1ctrqw","","null","","sounds/induction/right/ru_SWS.wav","","null","","","","","","","","","","","","","","","","","","","","","","","","","","","","","","","","","","","","","","","","","",""
"html-button-response","139","548041","0.0-4.0-1.0-1.39","2","1","rrtcvc8na1ctrqw","","1314.6999999284744","","What sound did you hear?","1","","","1","INDUCTION-JUDGMENT","right","1","","","","","","","","","","","","","","","","","","","","","","","","","","","","","","","","","","","","",""
"html-keyboard-response","140","549045","0.0-4.0-1.0-2.39","2","1","rrtcvc8na1ctrqw","","null","","<p style=""color:green;""><b>Correct!</b></p>","","null","","","","","","","","","","","","","","","","","","","","","","","","","","","","","","","","","","","","","","","","","",""
"audio-keyboard-response","141","549850","0.0-4.0-1.0-0.40","2","1","rrtcvc8na1ctrqw","","null","","sounds/induction/right/ko_SWS.wav","","null","","","","","","","","","","","","","","","","","","","","","","","","","","","","","","","","","","","","","","","","","",""
"html-button-response","142","553425","0.0-4.0-1.0-1.40","2","1","rrtcvc8na1ctrqw","","3573.5999999046326","","What sound did you hear?","1","","","0","INDUCTION-JUDGMENT","right","0","","","","","","","","","","","","","","","","","","","","","","","","","","","","","","","","","","","","",""
"html-keyboard-response","143","554429","0.0-4.0-1.0-2.40","2","1","rrtcvc8na1ctrqw","","null","","<p style=""color:red;""><b>Incorrect!</b></p>","","null","","","","","","","","","","","","","","","","","","","","","","","","","","","","","","","","","","","","","","","","","",""
"audio-keyboard-response","144","555237","0.0-4.0-1.0-0.41","2","1","rrtcvc8na1ctrqw","","null","","sounds/induction/left/re_SWS.wav","","null","","","","","","","","","","","","","","","","","","","","","","","","","","","","","","","","","","","","","","","","","",""
"html-button-response","145","557005","0.0-4.0-1.0-1.41","2","1","rrtcvc8na1ctrqw","","1767.8000000715256","","What sound did you hear?","0","","","1","INDUCTION-JUDGMENT","left","0","","","","","","","","","","","","","","","","","","","","","","","","","","","","","","","","","","","","",""
"html-keyboard-response","146","558011","0.0-4.0-1.0-2.41","2","1","rrtcvc8na1ctrqw","","null","","<p style=""color:green;""><b>Correct!</b></p>","","null","","","","","","","","","","","","","","","","","","","","","","","","","","","","","","","","","","","","","","","","","",""
"audio-keyboard-response","147","558816","0.0-4.0-1.0-0.42","2","1","rrtcvc8na1ctrqw","","null","","sounds/induction/right/pu_SWS.wav","","null","","","","","","","","","","","","","","","","","","","","","","","","","","","","","","","","","","","","","","","","","",""
"html-button-response","148","560238","0.0-4.0-1.0-1.42","2","1","rrtcvc8na1ctrqw","","1420.7000000476837","","What sound did you hear?","1","","","1","INDUCTION-JUDGMENT","right","1","","","","","","","","","","","","","","","","","","","","","","","","","","","","","","","","","","","","",""
"html-keyboard-response","149","561244","0.0-4.0-1.0-2.42","2","1","rrtcvc8na1ctrqw","","null","","<p style=""color:green;""><b>Correct!</b></p>","","null","","","","","","","","","","","","","","","","","","","","","","","","","","","","","","","","","","","","","","","","","",""
"audio-keyboard-response","150","562048","0.0-4.0-1.0-0.43","2","1","rrtcvc8na1ctrqw","","null","","sounds/induction/left/ni_SWS.wav","","null","","","","","","","","","","","","","","","","","","","","","","","","","","","","","","","","","","","","","","","","","",""
"html-button-response","151","564202","0.0-4.0-1.0-1.43","2","1","rrtcvc8na1ctrqw","","2153","","What sound did you hear?","0","","","0","INDUCTION-JUDGMENT","left","1","","","","","","","","","","","","","","","","","","","","","","","","","","","","","","","","","","","","",""
"html-keyboard-response","152","565208","0.0-4.0-1.0-2.43","2","1","rrtcvc8na1ctrqw","","null","","<p style=""color:red;""><b>Incorrect!</b></p>","","null","","","","","","","","","","","","","","","","","","","","","","","","","","","","","","","","","","","","","","","","","",""
"audio-keyboard-response","153","566010","0.0-4.0-1.0-0.44","2","1","rrtcvc8na1ctrqw","","null","","sounds/induction/right/fe_SWS.wav","","null","","","","","","","","","","","","","","","","","","","","","","","","","","","","","","","","","","","","","","","","","",""
"html-button-response","154","567611","0.0-4.0-1.0-1.44","2","1","rrtcvc8na1ctrqw","","1600","","What sound did you hear?","0","","","1","INDUCTION-JUDGMENT","right","0","","","","","","","","","","","","","","","","","","","","","","","","","","","","","","","","","","","","",""
"html-keyboard-response","155","568614","0.0-4.0-1.0-2.44","2","1","rrtcvc8na1ctrqw","","null","","<p style=""color:green;""><b>Correct!</b></p>","","null","","","","","","","","","","","","","","","","","","","","","","","","","","","","","","","","","","","","","","","","","",""
"audio-keyboard-response","156","569418","0.0-4.0-1.0-0.45","2","1","rrtcvc8na1ctrqw","","null","","sounds/induction/right/re_SWS.wav","","null","","","","","","","","","","","","","","","","","","","","","","","","","","","","","","","","","","","","","","","","","",""
"html-button-response","157","570891","0.0-4.0-1.0-1.45","2","1","rrtcvc8na1ctrqw","","1471.8000000715256","","What sound did you hear?","1","","","1","INDUCTION-JUDGMENT","right","1","","","","","","","","","","","","","","","","","","","","","","","","","","","","","","","","","","","","",""
"html-keyboard-response","158","571896","0.0-4.0-1.0-2.45","2","1","rrtcvc8na1ctrqw","","null","","<p style=""color:green;""><b>Correct!</b></p>","","null","","","","","","","","","","","","","","","","","","","","","","","","","","","","","","","","","","","","","","","","","",""
"audio-keyboard-response","159","572704","0.0-4.0-1.0-0.46","2","1","rrtcvc8na1ctrqw","","null","","sounds/induction/right/pu_SWS.wav","","null","","","","","","","","","","","","","","","","","","","","","","","","","","","","","","","","","","","","","","","","","",""
"html-button-response","160","574026","0.0-4.0-1.0-1.46","2","1","rrtcvc8na1ctrqw","","1321.6000000238419","","What sound did you hear?","1","","","1","INDUCTION-JUDGMENT","right","1","","","","","","","","","","","","","","","","","","","","","","","","","","","","","","","","","","","","",""
"html-keyboard-response","161","575029","0.0-4.0-1.0-2.46","2","1","rrtcvc8na1ctrqw","","null","","<p style=""color:green;""><b>Correct!</b></p>","","null","","","","","","","","","","","","","","","","","","","","","","","","","","","","","","","","","","","","","","","","","",""
"audio-keyboard-response","162","575834","0.0-4.0-1.0-0.47","2","1","rrtcvc8na1ctrqw","","null","","sounds/induction/left/ni_SWS.wav","","null","","","","","","","","","","","","","","","","","","","","","","","","","","","","","","","","","","","","","","","","","",""
"html-button-response","163","577753","0.0-4.0-1.0-1.47","2","1","rrtcvc8na1ctrqw","","1918.3999999761581","","What sound did you hear?","0","","","0","INDUCTION-JUDGMENT","left","1","","","","","","","","","","","","","","","","","","","","","","","","","","","","","","","","","","","","",""
"html-keyboard-response","164","578756","0.0-4.0-1.0-2.47","2","1","rrtcvc8na1ctrqw","","null","","<p style=""color:red;""><b>Incorrect!</b></p>","","null","","","","","","","","","","","","","","","","","","","","","","","","","","","","","","","","","","","","","","","","","",""
"html-button-response","165","586117","0.0-5.0-0.0","2","1","rrtcvc8na1ctrqw","","6856.700000047684","","<p>Thank you for your answers.</p><p>You will now listen to similar sounds. The main difference is that the sounds will be longer and will make up complete sentences.</p><p>Please listen carefully to each sentence. After each sentence, you will be asked to type back what you heard to the best of your ability. After you provide your response, you will be given feedback about the correct answer.</p><p>There are 10 sentences in total.","0","","","","","","","","","","","","","","","","","","","","","","","","","","","","","","","","","","","","","","","","","","",""
"audio-keyboard-response","166","588858","0.0-5.0-1.0-0.0","2","1","rrtcvc8na1ctrqw","","null","","sounds/sentences/right/14_06_cfSWS.wav","","null","","","","","","","","","","","","","","","","","","","","","","","","","","","","","","","","","","","","","","","","","",""
"sentence-resp","167","603451","0.0-5.0-1.0-1.0","2","1","rrtcvc8na1ctrqw","","14590","","","","","","","SWS-SENT-RESPONSE","","","{""Q0"":""dowoopdadeenareeowoop""}","Bring your problems to the wise chief.","bring,your,problems,wise,chief","DOWOOPDADEENAREEOWOOP","0","0","0","0","0","0","0","","","","","","","","","","","","","","","","","","","","","","","","","",""
"html-keyboard-response","168","604713","0.0-5.0-1.0-2.0","2","1","rrtcvc8na1ctrqw","","null","","","","null","","","","","","","","","","","","","","","","","","","","","","","","","","","","","","","","","","","","","","","","","",""
"audio-keyboard-response","169","606955","0.0-5.0-1.0-3.0","2","1","rrtcvc8na1ctrqw","","null","","sounds/sentences/right/14_06_cfSWS.wav","","null","","","","","","","","","","","","","","","","","","","","","","","","","","","","","","","","","","","","","","","","","",""
"html-keyboard-response","170","607960","0.0-5.0-1.0-4.0","2","1","rrtcvc8na1ctrqw","","null","","","","null","","","","","","","","","","","","","","","","","","","","","","","","","","","","","","","","","","","","","","","","","",""
"html-button-response","171","609647","0.0-5.0-1.0-5.0","2","1","rrtcvc8na1ctrqw","","1183","","<p>Press the button below when you are ready to continue.</p>","0","","","","","","","","","","","","","","","","","","","","","","","","","","","","","","","","","","","","","","","","","","",""
"audio-keyboard-response","172","612229","0.0-5.0-1.0-0.1","2","1","rrtcvc8na1ctrqw","","null","","sounds/sentences/left/14_03_cfSWS.wav","","null","","","","","","","","","","","","","","","","","","","","","","","","","","","","","","","","","","","","","","","","","",""
"sentence-resp","173","620781","0.0-5.0-1.0-1.1","2","1","rrtcvc8na1ctrqw","","8550","","","","","","","SWS-SENT-RESPONSE","","","{""Q0"":""risetoyourproblemscomeonplease""}","Pluck the bright rose without leaves.","pluck,bright,rose,without,leaves","RISETOYOURPROBLEMSCOMEONPLEASE","0","0","0","0","0","0","0","","","","","","","","","","","","","","","","","","","","","","","","","",""
"html-keyboard-response","174","622040","0.0-5.0-1.0-2.1","2","1","rrtcvc8na1ctrqw","","null","","","","null","","","","","","","","","","","","","","","","","","","","","","","","","","","","","","","","","","","","","","","","","",""
"audio-keyboard-response","175","624123","0.0-5.0-1.0-3.1","2","1","rrtcvc8na1ctrqw","","null","","sounds/sentences/left/14_03_cfSWS.wav","","null","","","","","","","","","","","","","","","","","","","","","","","","","","","","","","","","","","","","","","","","","",""
"html-keyboard-response","176","625128","0.0-5.0-1.0-4.1","2","1","rrtcvc8na1ctrqw","","null","","","","null","","","","","","","","","","","","","","","","","","","","","","","","","","","","","","","","","","","","","","","","","",""
"html-button-response","177","626995","0.0-5.0-1.0-5.1","2","1","rrtcvc8na1ctrqw","","1363.6000000238419","","<p>Press the button below when you are ready to continue.</p>","0","","","","","","","","","","","","","","","","","","","","","","","","","","","","","","","","","","","","","","","","","","",""
"audio-keyboard-response","178","629749","0.0-5.0-1.0-0.2","2","1","rrtcvc8na1ctrqw","","null","","sounds/sentences/right/14_08_cfSWS.wav","","null","","","","","","","","","","","","","","","","","","","","","","","","","","","","","","","","","","","","","","","","","",""
"sentence-resp","179","639027","0.0-5.0-1.0-1.2","2","1","rrtcvc8na1ctrqw","","9276","","","","","","","SWS-SENT-RESPONSE","","","{""Q0"":""meetmeinsidethebigtrees""}","Clothes and lodging are free to new men.","clothes,lodging,free,new,men","MEETMEINSIDETHEBIGTREES","0","0","0","0","0","0","0","","","","","","","","","","","","","","","","","","","","","","","","","",""
"html-keyboard-response","180","640284","0.0-5.0-1.0-2.2","2","1","rrtcvc8na1ctrqw","","null","","","","null","","","","","","","","","","","","","","","","","","","","","","","","","","","","","","","","","","","","","","","","","",""
"audio-keyboard-response","181","642539","0.0-5.0-1.0-3.2","2","1","rrtcvc8na1ctrqw","","null","","sounds/sentences/right/14_08_cfSWS.wav","","null","","","","","","","","","","","","","","","","","","","","","","","","","","","","","","","","","","","","","","","","","",""
"html-keyboard-response","182","643542","0.0-5.0-1.0-4.2","2","1","rrtcvc8na1ctrqw","","null","","","","null","","","","","","","","","","","","","","","","","","","","","","","","","","","","","","","","","","","","","","","","","",""
"html-button-response","183","645576","0.0-5.0-1.0-5.2","2","1","rrtcvc8na1ctrqw","","1527.7999999523163","","<p>Press the button below when you are ready to continue.</p>","0","","","","","","","","","","","","","","","","","","","","","","","","","","","","","","","","","","","","","","","","","","",""
"audio-keyboard-response","184","648565","0.0-5.0-1.0-0.3","2","1","rrtcvc8na1ctrqw","","null","","sounds/sentences/left/14_05_cfSWS.wav","","null","","","","","","","","","","","","","","","","","","","","","","","","","","","","","","","","","","","","","","","","","",""
"sentence-resp","185","656675","0.0-5.0-1.0-1.3","2","1","rrtcvc8na1ctrqw","","8108","","","","","","","SWS-SENT-RESPONSE","","","{""Q0"":""thatgirlistheobjectoffreeclothes""}","The glow deepened in the eyes of the sweet girl.","glow,deepened,eyes,sweet,girl","THATGIRLISTHEOBJECTOFFREECLOTHES","0","0","0","0","0","0","0","","","","","","","","","","","","","","","","","","","","","","","","","",""
"html-keyboard-response","186","657936","0.0-5.0-1.0-2.3","2","1","rrtcvc8na1ctrqw","","null","","","","null","","","","","","","","","","","","","","","","","","","","","","","","","","","","","","","","","","","","","","","","","",""
"audio-keyboard-response","187","660427","0.0-5.0-1.0-3.3","2","1","rrtcvc8na1ctrqw","","null","","sounds/sentences/left/14_05_cfSWS.wav","","null","","","","","","","","","","","","","","","","","","","","","","","","","","","","","","","","","","","","","","","","","",""
"html-keyboard-response","188","661430","0.0-5.0-1.0-4.3","2","1","rrtcvc8na1ctrqw","","null","","","","null","","","","","","","","","","","","","","","","","","","","","","","","","","","","","","","","","","","","","","","","","",""
"html-button-response","189","663166","0.0-5.0-1.0-5.3","2","1","rrtcvc8na1ctrqw","","1232.5","","<p>Press the button below when you are ready to continue.</p>","0","","","","","","","","","","","","","","","","","","","","","","","","","","","","","","","","","","","","","","","","","","",""
"audio-keyboard-response","190","666053","0.0-5.0-1.0-0.4","2","1","rrtcvc8na1ctrqw","","null","","sounds/sentences/right/14_07_cfSWS.wav","","null","","","","","","","","","","","","","","","","","","","","","","","","","","","","","","","","","","","","","","","","","",""
"sentence-resp","191","684061","0.0-5.0-1.0-1.4","2","1","rrtcvc8na1ctrqw","","18005","","","","","","","SWS-SENT-RESPONSE","","","{""Q0"":""freewisenicegoesupinease""}","Write a fond note to the friend you cherish.","write,fond,note,friend,cherish","FREEWISENICEGOESUPINEASE","0","0","0","0","0","0","0","","","","","","","","","","","","","","","","","","","","","","","","","",""
"html-keyboard-response","192","685322","0.0-5.0-1.0-2.4","2","1","rrtcvc8na1ctrqw","","null","","","","null","","","","","","","","","","","","","","","","","","","","","","","","","","","","","","","","","","","","","","","","","",""
"audio-keyboard-response","193","687713","0.0-5.0-1.0-3.4","2","1","rrtcvc8na1ctrqw","","null","","sounds/sentences/right/14_07_cfSWS.wav","","null","","","","","","","","","","","","","","","","","","","","","","","","","","","","","","","","","","","","","","","","","",""
"html-keyboard-response","194","688715","0.0-5.0-1.0-4.4","2","1","rrtcvc8na1ctrqw","","null","","","","null","","","","","","","","","","","","","","","","","","","","","","","","","","","","","","","","","","","","","","","","","",""
"html-button-response","195","690406","0.0-5.0-1.0-5.4","2","1","rrtcvc8na1ctrqw","","1183.8000000715256","","<p>Press the button below when you are ready to continue.</p>","0","","","","","","","","","","","","","","","","","","","","","","","","","","","","","","","","","","","","","","","","","","",""
"audio-keyboard-response","196","693525","0.0-5.0-1.0-0.5","2","1","rrtcvc8na1ctrqw","","null","","sounds/sentences/left/14_01_cfSWS.wav","","null","","","","","","","","","","","","","","","","","","","","","","","","","","","","","","","","","","","","","","","","","",""
"sentence-resp","197","711402","0.0-5.0-1.0-1.5","2","1","rrtcvc8na1ctrqw","","17873","","","","","","","SWS-SENT-RESPONSE","","","{""Q0"":""you dont know about what ive seen in those scenes""}","A cramp is no small danger on a swim.","cramp,no,small,danger,swim","YOU DONT KNOW ABOUT WHAT IVE SEEN IN THOSE SCENES","0","0","0","0","0","0","0","","","","","","","","","","","","","","","","","","","","","","","","","",""
"html-keyboard-response","198","712662","0.0-5.0-1.0-2.5","2","1","rrtcvc8na1ctrqw","","null","","","","null","","","","","","","","","","","","","","","","","","","","","","","","","","","","","","","","","","","","","","","","","",""
"audio-keyboard-response","199","715281","0.0-5.0-1.0-3.5","2","1","rrtcvc8na1ctrqw","","null","","sounds/sentences/left/14_01_cfSWS.wav","","null","","","","","","","","","","","","","","","","","","","","","","","","","","","","","","","","","","","","","","","","","",""
"html-keyboard-response","200","716288","0.0-5.0-1.0-4.5","2","1","rrtcvc8na1ctrqw","","null","","","","null","","","","","","","","","","","","","","","","","","","","","","","","","","","","","","","","","","","","","","","","","",""
"html-button-response","201","717619","0.0-5.0-1.0-5.5","2","1","rrtcvc8na1ctrqw","","827.8999999761581","","<p>Press the button below when you are ready to continue.</p>","0","","","","","","","","","","","","","","","","","","","","","","","","","","","","","","","","","","","","","","","","","","",""
"audio-keyboard-response","202","720347","0.0-5.0-1.0-0.6","2","1","rrtcvc8na1ctrqw","","null","","sounds/sentences/right/14_09_cfSWS.wav","","null","","","","","","","","","","","","","","","","","","","","","","","","","","","","","","","","","","","","","","","","","",""
"sentence-resp","203","733344","0.0-5.0-1.0-1.6","2","1","rrtcvc8na1ctrqw","","12995","","","","","","","SWS-SENT-RESPONSE","","","{""Q0"":""cramps can be small or large please""}","We frown when events take a bad turn.","frown,events,take,bad,turn","CRAMPS CAN BE SMALL OR LARGE PLEASE","0","0","0","0","0","0","0","","","","","","","","","","","","","","","","","","","","","","","","","",""
"html-keyboard-response","204","734603","0.0-5.0-1.0-2.6","2","1","rrtcvc8na1ctrqw","","null","","","","null","","","","","","","","","","","","","","","","","","","","","","","","","","","","","","","","","","","","","","","","","",""
"audio-keyboard-response","205","736832","0.0-5.0-1.0-3.6","2","1","rrtcvc8na1ctrqw","","null","","sounds/sentences/right/14_09_cfSWS.wav","","null","","","","","","","","","","","","","","","","","","","","","","","","","","","","","","","","","","","","","","","","","",""
"html-keyboard-response","206","737838","0.0-5.0-1.0-4.6","2","1","rrtcvc8na1ctrqw","","null","","","","null","","","","","","","","","","","","","","","","","","","","","","","","","","","","","","","","","","","","","","","","","",""
"html-button-response","207","742013","0.0-5.0-1.0-5.6","2","1","rrtcvc8na1ctrqw","","3670.7999999523163","","<p>Press the button below when you are ready to continue.</p>","0","","","","","","","","","","","","","","","","","","","","","","","","","","","","","","","","","","","","","","","","","","",""
"audio-keyboard-response","208","745029","0.0-5.0-1.0-0.7","2","1","rrtcvc8na1ctrqw","","null","","sounds/sentences/right/14_10_cfSWS.wav","","null","","","","","","","","","","","","","","","","","","","","","","","","","","","","","","","","","","","","","","","","","",""
"sentence-resp","209","757317","0.0-5.0-1.0-1.7","2","1","rrtcvc8na1ctrqw","","12286","","","","","","","SWS-SENT-RESPONSE","","","{""Q0"":""words cant comprehend what that means""}","Port is a strong wine with a smoky taste.","port,strong,wine,smoky,taste","WORDS CANT COMPREHEND WHAT THAT MEANS","0","0","0","0","0","0","0","","","","","","","","","","","","","","","","","","","","","","","","","",""
"html-keyboard-response","210","758573","0.0-5.0-1.0-2.7","2","1","rrtcvc8na1ctrqw","","null","","","","null","","","","","","","","","","","","","","","","","","","","","","","","","","","","","","","","","","","","","","","","","",""
"audio-keyboard-response","211","761088","0.0-5.0-1.0-3.7","2","1","rrtcvc8na1ctrqw","","null","","sounds/sentences/right/14_10_cfSWS.wav","","null","","","","","","","","","","","","","","","","","","","","","","","","","","","","","","","","","","","","","","","","","",""
"html-keyboard-response","212","762091","0.0-5.0-1.0-4.7","2","1","rrtcvc8na1ctrqw","","null","","","","null","","","","","","","","","","","","","","","","","","","","","","","","","","","","","","","","","","","","","","","","","",""
"html-button-response","213","763276","0.0-5.0-1.0-5.7","2","1","rrtcvc8na1ctrqw","","683.5","","<p>Press the button below when you are ready to continue.</p>","0","","","","","","","","","","","","","","","","","","","","","","","","","","","","","","","","","","","","","","","","","","",""
"audio-keyboard-response","214","766096","0.0-5.0-1.0-0.8","2","1","rrtcvc8na1ctrqw","","null","","sounds/sentences/left/14_02_cfSWS.wav","","null","","","","","","","","","","","","","","","","","","","","","","","","","","","","","","","","","","","","","","","","","",""
"sentence-resp","215","774974","0.0-5.0-1.0-1.8","2","1","rrtcvc8na1ctrqw","","8876","","","","","","","SWS-SENT-RESPONSE","","","{""Q0"":""its the same events 30 times over""}","He said the same phrase thirty times.","said,same,phrase,thirty,times","ITS THE SAME EVENTS 30 TIMES OVER","0","1","0","0","1","2","0.4","","","","","","","","","","","","","","","","","","","","","","","","","",""
"html-keyboard-response","216","776235","0.0-5.0-1.0-2.8","2","1","rrtcvc8na1ctrqw","","null","","","","null","","","","","","","","","","","","","","","","","","","","","","","","","","","","","","","","","","","","","","","","","",""
"audio-keyboard-response","217","778555","0.0-5.0-1.0-3.8","2","1","rrtcvc8na1ctrqw","","null","","sounds/sentences/left/14_02_cfSWS.wav","","null","","","","","","","","","","","","","","","","","","","","","","","","","","","","","","","","","","","","","","","","","",""
"html-keyboard-response","218","779557","0.0-5.0-1.0-4.8","2","1","rrtcvc8na1ctrqw","","null","","","","null","","","","","","","","","","","","","","","","","","","","","","","","","","","","","","","","","","","","","","","","","",""
"html-button-response","219","780943","0.0-5.0-1.0-5.8","2","1","rrtcvc8na1ctrqw","","881.5","","<p>Press the button below when you are ready to continue.</p>","0","","","","","","","","","","","","","","","","","","","","","","","","","","","","","","","","","","","","","","","","","","",""
"audio-keyboard-response","220","783494","0.0-5.0-1.0-0.9","2","1","rrtcvc8na1ctrqw","","null","","sounds/sentences/left/14_04_cfSWS.wav","","null","","","","","","","","","","","","","","","","","","","","","","","","","","","","","","","","","","","","","","","","","",""
"sentence-resp","221","796595","0.0-5.0-1.0-1.9","2","1","rrtcvc8na1ctrqw","","13099","","","","","","","SWS-SENT-RESPONSE","","","{""Q0"":""eyes bob lob in the breeze""}","Two plus seven is less than ten.","two,plus,seven,less,ten","EYES BOB LOB IN THE BREEZE","0","0","0","0","0","0","0","","","","","","","","","","","","","","","","","","","","","","","","","",""
"html-keyboard-response","222","797854","0.0-5.0-1.0-2.9","2","1","rrtcvc8na1ctrqw","","null","","","","null","","","","","","","","","","","","","","","","","","","","","","","","","","","","","","","","","","","","","","","","","",""
"audio-keyboard-response","223","799904","0.0-5.0-1.0-3.9","2","1","rrtcvc8na1ctrqw","","null","","sounds/sentences/left/14_04_cfSWS.wav","","null","","","","","","","","","","","","","","","","","","","","","","","","","","","","","","","","","","","","","","","","","",""
"html-keyboard-response","224","800908","0.0-5.0-1.0-4.9","2","1","rrtcvc8na1ctrqw","","null","","","","null","","","","","","","","","","","","","","","","","","","","","","","","","","","","","","","","","","","","","","","","","",""
"html-button-response","225","802139","0.0-5.0-1.0-5.9","2","1","rrtcvc8na1ctrqw","","725.8999999761581","","<p>Press the button below when you are ready to continue.</p>","0","","","","","","","","","","","","","","","","","","","","","","","","","","","","","","","","","","","","","","","","","","",""
"html-keyboard-response","226","816798","0.0-6.0-0.0","2","1","rrtcvc8na1ctrqw","","14156.299999952316","","<p>In this part of the study, you will hear sounds similar to those you just heard.</p><p>Please focus on these sounds, as you may be asked questions about them later.</p><p>Occasionally, the sounds will pause for up to two seconds. When this happens, please press SPACEBAR as quickly as you can.</br>This helps ensure that you are paying attention to the sounds.</p><p>This part of the study will take about 12 minutes to complete, and you will be given the opportunity to take a couple of short breaks every few minutes.</p><p><strong>Press SPACEBAR to begin</strong></p>","","32","","","","","","","","","","","","","","","","","","","","","","","","","","","","","","","","","","","","","","","","","",""
"html-keyboard-response","227","817799","0.0-6.0-1.0-0.0","2","1","rrtcvc8na1ctrqw","","null","","<p style=""font-size: 40px;"">+</p>","","null","","","","","","","","","","","","","","","","","","","","","","","","","","","","","","","","","","","","","","","","","",""
"html-keyboard-response","228","1002806","0.0-6.0-1.0-1.0","2","1","rrtcvc8na1ctrqw","","null","","","","null","","","SL-TRAIN","","","","","","","","","","","","","","0","492.2000000476837","710.7000000476837","sounds/B/TRAIN/SEQ__07.mp3","2","","","","","","","","","","","","","","","","","","","","",""
"html-button-response","229","1004869","0.0-6.0-1.0-2.0","2","1","rrtcvc8na1ctrqw","","2060.2000000476837","","<p>You may take a short break if you wish.</p>","0","","","","","","","","","","","","","","","","","","","","","","","","","","","","","","","","","","","","","","","","","","",""
"html-keyboard-response","230","1005873","0.0-6.0-1.0-3.0","2","1","rrtcvc8na1ctrqw","","null","","<p style=""font-size: 40px;"">+</p>","","null","","","","","","","","","","","","","","","","","","","","","","","","","","","","","","","","","","","","","","","","","",""
"html-keyboard-response","231","1190881","0.0-6.0-1.0-4.0","2","1","rrtcvc8na1ctrqw","","null","","","","null","","","SL-TRAIN","","","","","","","","","","","","","","0","663.5","840.3999999761581","sounds/B/TRAIN/SEQ__08.mp3","5","","","","","","","","","","","","","","","","","","","","",""
"html-button-response","232","1192580","0.0-6.0-1.0-5.0","2","1","rrtcvc8na1ctrqw","","1696.5","","<p>You may take a short break if you wish.</p>","0","","","","","","","","","","","","","","","","","","","","","","","","","","","","","","","","","","","","","","","","","","",""
"html-keyboard-response","233","1193584","0.0-6.0-1.0-6.0","2","1","rrtcvc8na1ctrqw","","null","","<p style=""font-size: 40px;"">+</p>","","null","","","","","","","","","","","","","","","","","","","","","","","","","","","","","","","","","","","","","","","","","",""
"html-keyboard-response","234","1378591","0.0-6.0-1.0-7.0","2","1","rrtcvc8na1ctrqw","","null","","","","null","","","SL-TRAIN","","","","","","","","","","","","","","0","669.2999999523163","609.5","sounds/B/TRAIN/SEQ__04.mp3","8","","","","","","","","","","","","","","","","","","","","",""
"html-button-response","235","1389672","0.0-6.0-1.0-8.0","2","1","rrtcvc8na1ctrqw","","11078.700000047684","","<p>You may take a short break if you wish.</p>","0","","","","","","","","","","","","","","","","","","","","","","","","","","","","","","","","","","","","","","","","","","",""
"html-keyboard-response","236","1390677","0.0-6.0-1.0-9.0","2","1","rrtcvc8na1ctrqw","","null","","<p style=""font-size: 40px;"">+</p>","","null","","","","","","","","","","","","","","","","","","","","","","","","","","","","","","","","","","","","","","","","","",""
"html-keyboard-response","237","1575685","0.0-6.0-1.0-10.0","2","1","rrtcvc8na1ctrqw","","null","","","","null","","","SL-TRAIN","","","","","","","","","","","","","","1","624.2999999523163","null","sounds/B/TRAIN/SEQ__11.mp3","7","","","","","","","","","","","","","","","","","","","","",""
"html-button-response","238","1612667","0.0-6.0-1.0-11.0","2","1","rrtcvc8na1ctrqw","","36980.700000047684","","<p>You may take a short break if you wish.</p>","0","","","","","","","","","","","","","","","","","","","","","","","","","","","","","","","","","","","","","","","","","","",""
"html-button-response","239","1618355","0.0-7.0-0.0","2","1","rrtcvc8na1ctrqw","","5686.200000047684","","<p>Welcome to the second part of the study. This is a <u>familiarity task</u>.</p><p>You will now hear short sounds and will be asked to rate how familiar they sound to you <b>based on what you heard in the previous part of the study</b>.</p><p>You will rate 12 sounds in total.</p>","0","","","","","","","","","","","","","","","","","","","","","","","","","","","","","","","","","","","","","","","","","","",""
"html-keyboard-response","240","1619356","0.0-7.0-1.0-0.0","2","1","rrtcvc8na1ctrqw","","null","","","","null","","","","","","","","","","","","","","","","","","","","","","","","","","","","","","","","","","","","","","","","","",""
"audio-keyboard-response","241","1620347","0.0-7.0-1.0-1.0","2","1","rrtcvc8na1ctrqw","","null","","sounds/B/FAM/N001.mp3","","null","","","","","","","","","","","","","","","","","","","","","","","","","","","","","","","","","","","","","","","","","",""
"html-keyboard-response","242","1625063","0.0-7.0-1.0-2.0","2","1","rrtcvc8na1ctrqw","","4213.800000071526","","<p>How familiar did this sound to you?</p><p>1&nbsp;&nbsp;&nbsp;&nbsp;&nbsp;&nbsp;&nbsp;&nbsp;&nbsp;&nbsp;&nbsp;&nbsp;&nbsp;&nbsp;&nbsp;&nbsp;&nbsp;&nbsp;&nbsp;2&nbsp;&nbsp;&nbsp;&nbsp;&nbsp;&nbsp;&nbsp;&nbsp;&nbsp;&nbsp;&nbsp;&nbsp;&nbsp;&nbsp;&nbsp;&nbsp;&nbsp;&nbsp;&nbsp;3&nbsp;&nbsp;&nbsp;&nbsp;&nbsp;&nbsp;&nbsp;&nbsp;&nbsp;&nbsp;&nbsp;&nbsp;&nbsp;&nbsp;&nbsp;&nbsp;&nbsp;&nbsp;&nbsp;4</p><p style=""font-size:14px"">Not at all familiar&nbsp;&nbsp;&nbsp;&nbsp;A little familiar&nbsp;&nbsp;&nbsp;Moderately familiar&nbsp;&nbsp;&nbsp;Extremely familiar</p><p>(press the corresponding number on your keyboard)</p>","","51","","","FAM-RESPONSE","","","","","","","","","","","","","","","","","","","sounds/B/FAM/N001.mp3","nonword","","","","","","","","","","","","","","","","","","",""
"html-keyboard-response","243","1627066","0.0-7.0-1.0-0.1","2","1","rrtcvc8na1ctrqw","","null","","","","null","","","","","","","","","","","","","","","","","","","","","","","","","","","","","","","","","","","","","","","","","",""
"audio-keyboard-response","244","1628011","0.0-7.0-1.0-1.1","2","1","rrtcvc8na1ctrqw","","null","","sounds/B/FAM/P004.mp3","","null","","","","","","","","","","","","","","","","","","","","","","","","","","","","","","","","","","","","","","","","","",""
"html-keyboard-response","245","1630183","0.0-7.0-1.0-2.1","2","1","rrtcvc8na1ctrqw","","1668.3999999761581","","<p>How familiar did this sound to you?</p><p>1&nbsp;&nbsp;&nbsp;&nbsp;&nbsp;&nbsp;&nbsp;&nbsp;&nbsp;&nbsp;&nbsp;&nbsp;&nbsp;&nbsp;&nbsp;&nbsp;&nbsp;&nbsp;&nbsp;2&nbsp;&nbsp;&nbsp;&nbsp;&nbsp;&nbsp;&nbsp;&nbsp;&nbsp;&nbsp;&nbsp;&nbsp;&nbsp;&nbsp;&nbsp;&nbsp;&nbsp;&nbsp;&nbsp;3&nbsp;&nbsp;&nbsp;&nbsp;&nbsp;&nbsp;&nbsp;&nbsp;&nbsp;&nbsp;&nbsp;&nbsp;&nbsp;&nbsp;&nbsp;&nbsp;&nbsp;&nbsp;&nbsp;4</p><p style=""font-size:14px"">Not at all familiar&nbsp;&nbsp;&nbsp;&nbsp;A little familiar&nbsp;&nbsp;&nbsp;Moderately familiar&nbsp;&nbsp;&nbsp;Extremely familiar</p><p>(press the corresponding number on your keyboard)</p>","","51","","","FAM-RESPONSE","","","","","","","","","","","","","","","","","","","sounds/B/FAM/P004.mp3","partword","","","","","","","","","","","","","","","","","","",""
"html-keyboard-response","246","1632189","0.0-7.0-1.0-0.2","2","1","rrtcvc8na1ctrqw","","null","","","","null","","","","","","","","","","","","","","","","","","","","","","","","","","","","","","","","","","","","","","","","","",""
"audio-keyboard-response","247","1633131","0.0-7.0-1.0-1.2","2","1","rrtcvc8na1ctrqw","","null","","sounds/B/FAM/N002.mp3","","null","","","","","","","","","","","","","","","","","","","","","","","","","","","","","","","","","","","","","","","","","",""
"html-keyboard-response","248","1634455","0.0-7.0-1.0-2.2","2","1","rrtcvc8na1ctrqw","","822.0999999046326","","<p>How familiar did this sound to you?</p><p>1&nbsp;&nbsp;&nbsp;&nbsp;&nbsp;&nbsp;&nbsp;&nbsp;&nbsp;&nbsp;&nbsp;&nbsp;&nbsp;&nbsp;&nbsp;&nbsp;&nbsp;&nbsp;&nbsp;2&nbsp;&nbsp;&nbsp;&nbsp;&nbsp;&nbsp;&nbsp;&nbsp;&nbsp;&nbsp;&nbsp;&nbsp;&nbsp;&nbsp;&nbsp;&nbsp;&nbsp;&nbsp;&nbsp;3&nbsp;&nbsp;&nbsp;&nbsp;&nbsp;&nbsp;&nbsp;&nbsp;&nbsp;&nbsp;&nbsp;&nbsp;&nbsp;&nbsp;&nbsp;&nbsp;&nbsp;&nbsp;&nbsp;4</p><p style=""font-size:14px"">Not at all familiar&nbsp;&nbsp;&nbsp;&nbsp;A little familiar&nbsp;&nbsp;&nbsp;Moderately familiar&nbsp;&nbsp;&nbsp;Extremely familiar</p><p>(press the corresponding number on your keyboard)</p>","","52","","","FAM-RESPONSE","","","","","","","","","","","","","","","","","","","sounds/B/FAM/N002.mp3","nonword","","","","","","","","","","","","","","","","","","",""
"html-keyboard-response","249","1636461","0.0-7.0-1.0-0.3","2","1","rrtcvc8na1ctrqw","","null","","","","null","","","","","","","","","","","","","","","","","","","","","","","","","","","","","","","","","","","","","","","","","",""
"audio-keyboard-response","250","1637403","0.0-7.0-1.0-1.3","2","1","rrtcvc8na1ctrqw","","null","","sounds/B/FAM/W002.mp3","","null","","","","","","","","","","","","","","","","","","","","","","","","","","","","","","","","","","","","","","","","","",""
"html-keyboard-response","251","1638580","0.0-7.0-1.0-2.3","2","1","rrtcvc8na1ctrqw","","672.5","","<p>How familiar did this sound to you?</p><p>1&nbsp;&nbsp;&nbsp;&nbsp;&nbsp;&nbsp;&nbsp;&nbsp;&nbsp;&nbsp;&nbsp;&nbsp;&nbsp;&nbsp;&nbsp;&nbsp;&nbsp;&nbsp;&nbsp;2&nbsp;&nbsp;&nbsp;&nbsp;&nbsp;&nbsp;&nbsp;&nbsp;&nbsp;&nbsp;&nbsp;&nbsp;&nbsp;&nbsp;&nbsp;&nbsp;&nbsp;&nbsp;&nbsp;3&nbsp;&nbsp;&nbsp;&nbsp;&nbsp;&nbsp;&nbsp;&nbsp;&nbsp;&nbsp;&nbsp;&nbsp;&nbsp;&nbsp;&nbsp;&nbsp;&nbsp;&nbsp;&nbsp;4</p><p style=""font-size:14px"">Not at all familiar&nbsp;&nbsp;&nbsp;&nbsp;A little familiar&nbsp;&nbsp;&nbsp;Moderately familiar&nbsp;&nbsp;&nbsp;Extremely familiar</p><p>(press the corresponding number on your keyboard)</p>","","52","","","FAM-RESPONSE","","","","","","","","","","","","","","","","","","","sounds/B/FAM/W002.mp3","word","","","","","","","","","","","","","","","","","","",""
"html-keyboard-response","252","1640585","0.0-7.0-1.0-0.4","2","1","rrtcvc8na1ctrqw","","null","","","","null","","","","","","","","","","","","","","","","","","","","","","","","","","","","","","","","","","","","","","","","","",""
"audio-keyboard-response","253","1641525","0.0-7.0-1.0-1.4","2","1","rrtcvc8na1ctrqw","","null","","sounds/B/FAM/N003.mp3","","null","","","","","","","","","","","","","","","","","","","","","","","","","","","","","","","","","","","","","","","","","",""
"html-keyboard-response","254","1642893","0.0-7.0-1.0-2.4","2","1","rrtcvc8na1ctrqw","","864.3999999761581","","<p>How familiar did this sound to you?</p><p>1&nbsp;&nbsp;&nbsp;&nbsp;&nbsp;&nbsp;&nbsp;&nbsp;&nbsp;&nbsp;&nbsp;&nbsp;&nbsp;&nbsp;&nbsp;&nbsp;&nbsp;&nbsp;&nbsp;2&nbsp;&nbsp;&nbsp;&nbsp;&nbsp;&nbsp;&nbsp;&nbsp;&nbsp;&nbsp;&nbsp;&nbsp;&nbsp;&nbsp;&nbsp;&nbsp;&nbsp;&nbsp;&nbsp;3&nbsp;&nbsp;&nbsp;&nbsp;&nbsp;&nbsp;&nbsp;&nbsp;&nbsp;&nbsp;&nbsp;&nbsp;&nbsp;&nbsp;&nbsp;&nbsp;&nbsp;&nbsp;&nbsp;4</p><p style=""font-size:14px"">Not at all familiar&nbsp;&nbsp;&nbsp;&nbsp;A little familiar&nbsp;&nbsp;&nbsp;Moderately familiar&nbsp;&nbsp;&nbsp;Extremely familiar</p><p>(press the corresponding number on your keyboard)</p>","","51","","","FAM-RESPONSE","","","","","","","","","","","","","","","","","","","sounds/B/FAM/N003.mp3","nonword","","","","","","","","","","","","","","","","","","",""
"html-keyboard-response","255","1644900","0.0-7.0-1.0-0.5","2","1","rrtcvc8na1ctrqw","","null","","","","null","","","","","","","","","","","","","","","","","","","","","","","","","","","","","","","","","","","","","","","","","",""
"audio-keyboard-response","256","1645840","0.0-7.0-1.0-1.5","2","1","rrtcvc8na1ctrqw","","null","","sounds/B/FAM/W003.mp3","","null","","","","","","","","","","","","","","","","","","","","","","","","","","","","","","","","","","","","","","","","","",""
"html-keyboard-response","257","1647049","0.0-7.0-1.0-2.5","2","1","rrtcvc8na1ctrqw","","707.1000000238419","","<p>How familiar did this sound to you?</p><p>1&nbsp;&nbsp;&nbsp;&nbsp;&nbsp;&nbsp;&nbsp;&nbsp;&nbsp;&nbsp;&nbsp;&nbsp;&nbsp;&nbsp;&nbsp;&nbsp;&nbsp;&nbsp;&nbsp;2&nbsp;&nbsp;&nbsp;&nbsp;&nbsp;&nbsp;&nbsp;&nbsp;&nbsp;&nbsp;&nbsp;&nbsp;&nbsp;&nbsp;&nbsp;&nbsp;&nbsp;&nbsp;&nbsp;3&nbsp;&nbsp;&nbsp;&nbsp;&nbsp;&nbsp;&nbsp;&nbsp;&nbsp;&nbsp;&nbsp;&nbsp;&nbsp;&nbsp;&nbsp;&nbsp;&nbsp;&nbsp;&nbsp;4</p><p style=""font-size:14px"">Not at all familiar&nbsp;&nbsp;&nbsp;&nbsp;A little familiar&nbsp;&nbsp;&nbsp;Moderately familiar&nbsp;&nbsp;&nbsp;Extremely familiar</p><p>(press the corresponding number on your keyboard)</p>","","52","","","FAM-RESPONSE","","","","","","","","","","","","","","","","","","","sounds/B/FAM/W003.mp3","word","","","","","","","","","","","","","","","","","","",""
"html-keyboard-response","258","1649057","0.0-7.0-1.0-0.6","2","1","rrtcvc8na1ctrqw","","null","","","","null","","","","","","","","","","","","","","","","","","","","","","","","","","","","","","","","","","","","","","","","","",""
"audio-keyboard-response","259","1650000","0.0-7.0-1.0-1.6","2","1","rrtcvc8na1ctrqw","","null","","sounds/B/FAM/P002.mp3","","null","","","","","","","","","","","","","","","","","","","","","","","","","","","","","","","","","","","","","","","","","",""
"html-keyboard-response","260","1650933","0.0-7.0-1.0-2.6","2","1","rrtcvc8na1ctrqw","","428.89999997615814","","<p>How familiar did this sound to you?</p><p>1&nbsp;&nbsp;&nbsp;&nbsp;&nbsp;&nbsp;&nbsp;&nbsp;&nbsp;&nbsp;&nbsp;&nbsp;&nbsp;&nbsp;&nbsp;&nbsp;&nbsp;&nbsp;&nbsp;2&nbsp;&nbsp;&nbsp;&nbsp;&nbsp;&nbsp;&nbsp;&nbsp;&nbsp;&nbsp;&nbsp;&nbsp;&nbsp;&nbsp;&nbsp;&nbsp;&nbsp;&nbsp;&nbsp;3&nbsp;&nbsp;&nbsp;&nbsp;&nbsp;&nbsp;&nbsp;&nbsp;&nbsp;&nbsp;&nbsp;&nbsp;&nbsp;&nbsp;&nbsp;&nbsp;&nbsp;&nbsp;&nbsp;4</p><p style=""font-size:14px"">Not at all familiar&nbsp;&nbsp;&nbsp;&nbsp;A little familiar&nbsp;&nbsp;&nbsp;Moderately familiar&nbsp;&nbsp;&nbsp;Extremely familiar</p><p>(press the corresponding number on your keyboard)</p>","","52","","","FAM-RESPONSE","","","","","","","","","","","","","","","","","","","sounds/B/FAM/P002.mp3","partword","","","","","","","","","","","","","","","","","","",""
"html-keyboard-response","261","1652941","0.0-7.0-1.0-0.7","2","1","rrtcvc8na1ctrqw","","null","","","","null","","","","","","","","","","","","","","","","","","","","","","","","","","","","","","","","","","","","","","","","","",""
"audio-keyboard-response","262","1653883","0.0-7.0-1.0-1.7","2","1","rrtcvc8na1ctrqw","","null","","sounds/B/FAM/N004.mp3","","null","","","","","","","","","","","","","","","","","","","","","","","","","","","","","","","","","","","","","","","","","",""
"html-keyboard-response","263","1655927","0.0-7.0-1.0-2.7","2","1","rrtcvc8na1ctrqw","","1541.6000000238419","","<p>How familiar did this sound to you?</p><p>1&nbsp;&nbsp;&nbsp;&nbsp;&nbsp;&nbsp;&nbsp;&nbsp;&nbsp;&nbsp;&nbsp;&nbsp;&nbsp;&nbsp;&nbsp;&nbsp;&nbsp;&nbsp;&nbsp;2&nbsp;&nbsp;&nbsp;&nbsp;&nbsp;&nbsp;&nbsp;&nbsp;&nbsp;&nbsp;&nbsp;&nbsp;&nbsp;&nbsp;&nbsp;&nbsp;&nbsp;&nbsp;&nbsp;3&nbsp;&nbsp;&nbsp;&nbsp;&nbsp;&nbsp;&nbsp;&nbsp;&nbsp;&nbsp;&nbsp;&nbsp;&nbsp;&nbsp;&nbsp;&nbsp;&nbsp;&nbsp;&nbsp;4</p><p style=""font-size:14px"">Not at all familiar&nbsp;&nbsp;&nbsp;&nbsp;A little familiar&nbsp;&nbsp;&nbsp;Moderately familiar&nbsp;&nbsp;&nbsp;Extremely familiar</p><p>(press the corresponding number on your keyboard)</p>","","50","","","FAM-RESPONSE","","","","","","","","","","","","","","","","","","","sounds/B/FAM/N004.mp3","nonword","","","","","","","","","","","","","","","","","","",""
"html-keyboard-response","264","1657939","0.0-7.0-1.0-0.8","2","1","rrtcvc8na1ctrqw","","null","","","","null","","","","","","","","","","","","","","","","","","","","","","","","","","","","","","","","","","","","","","","","","",""
"audio-keyboard-response","265","1658880","0.0-7.0-1.0-1.8","2","1","rrtcvc8na1ctrqw","","null","","sounds/B/FAM/P001.mp3","","null","","","","","","","","","","","","","","","","","","","","","","","","","","","","","","","","","","","","","","","","","",""
"html-keyboard-response","266","1659750","0.0-7.0-1.0-2.8","2","1","rrtcvc8na1ctrqw","","362.8000000715256","","<p>How familiar did this sound to you?</p><p>1&nbsp;&nbsp;&nbsp;&nbsp;&nbsp;&nbsp;&nbsp;&nbsp;&nbsp;&nbsp;&nbsp;&nbsp;&nbsp;&nbsp;&nbsp;&nbsp;&nbsp;&nbsp;&nbsp;2&nbsp;&nbsp;&nbsp;&nbsp;&nbsp;&nbsp;&nbsp;&nbsp;&nbsp;&nbsp;&nbsp;&nbsp;&nbsp;&nbsp;&nbsp;&nbsp;&nbsp;&nbsp;&nbsp;3&nbsp;&nbsp;&nbsp;&nbsp;&nbsp;&nbsp;&nbsp;&nbsp;&nbsp;&nbsp;&nbsp;&nbsp;&nbsp;&nbsp;&nbsp;&nbsp;&nbsp;&nbsp;&nbsp;4</p><p style=""font-size:14px"">Not at all familiar&nbsp;&nbsp;&nbsp;&nbsp;A little familiar&nbsp;&nbsp;&nbsp;Moderately familiar&nbsp;&nbsp;&nbsp;Extremely familiar</p><p>(press the corresponding number on your keyboard)</p>","","52","","","FAM-RESPONSE","","","","","","","","","","","","","","","","","","","sounds/B/FAM/P001.mp3","partword","","","","","","","","","","","","","","","","","","",""
"html-keyboard-response","267","1661758","0.0-7.0-1.0-0.9","2","1","rrtcvc8na1ctrqw","","null","","","","null","","","","","","","","","","","","","","","","","","","","","","","","","","","","","","","","","","","","","","","","","",""
"audio-keyboard-response","268","1662699","0.0-7.0-1.0-1.9","2","1","rrtcvc8na1ctrqw","","null","","sounds/B/FAM/W004.mp3","","null","","","","","","","","","","","","","","","","","","","","","","","","","","","","","","","","","","","","","","","","","",""
"html-keyboard-response","269","1665045","0.0-7.0-1.0-2.9","2","1","rrtcvc8na1ctrqw","","1844.3999999761581","","<p>How familiar did this sound to you?</p><p>1&nbsp;&nbsp;&nbsp;&nbsp;&nbsp;&nbsp;&nbsp;&nbsp;&nbsp;&nbsp;&nbsp;&nbsp;&nbsp;&nbsp;&nbsp;&nbsp;&nbsp;&nbsp;&nbsp;2&nbsp;&nbsp;&nbsp;&nbsp;&nbsp;&nbsp;&nbsp;&nbsp;&nbsp;&nbsp;&nbsp;&nbsp;&nbsp;&nbsp;&nbsp;&nbsp;&nbsp;&nbsp;&nbsp;3&nbsp;&nbsp;&nbsp;&nbsp;&nbsp;&nbsp;&nbsp;&nbsp;&nbsp;&nbsp;&nbsp;&nbsp;&nbsp;&nbsp;&nbsp;&nbsp;&nbsp;&nbsp;&nbsp;4</p><p style=""font-size:14px"">Not at all familiar&nbsp;&nbsp;&nbsp;&nbsp;A little familiar&nbsp;&nbsp;&nbsp;Moderately familiar&nbsp;&nbsp;&nbsp;Extremely familiar</p><p>(press the corresponding number on your keyboard)</p>","","50","","","FAM-RESPONSE","","","","","","","","","","","","","","","","","","","sounds/B/FAM/W004.mp3","word","","","","","","","","","","","","","","","","","","",""
"html-keyboard-response","270","1667052","0.0-7.0-1.0-0.10","2","1","rrtcvc8na1ctrqw","","null","","","","null","","","","","","","","","","","","","","","","","","","","","","","","","","","","","","","","","","","","","","","","","",""
"audio-keyboard-response","271","1667995","0.0-7.0-1.0-1.10","2","1","rrtcvc8na1ctrqw","","null","","sounds/B/FAM/W001.mp3","","null","","","","","","","","","","","","","","","","","","","","","","","","","","","","","","","","","","","","","","","","","",""
"html-keyboard-response","272","1669182","0.0-7.0-1.0-2.10","2","1","rrtcvc8na1ctrqw","","681.5","","<p>How familiar did this sound to you?</p><p>1&nbsp;&nbsp;&nbsp;&nbsp;&nbsp;&nbsp;&nbsp;&nbsp;&nbsp;&nbsp;&nbsp;&nbsp;&nbsp;&nbsp;&nbsp;&nbsp;&nbsp;&nbsp;&nbsp;2&nbsp;&nbsp;&nbsp;&nbsp;&nbsp;&nbsp;&nbsp;&nbsp;&nbsp;&nbsp;&nbsp;&nbsp;&nbsp;&nbsp;&nbsp;&nbsp;&nbsp;&nbsp;&nbsp;3&nbsp;&nbsp;&nbsp;&nbsp;&nbsp;&nbsp;&nbsp;&nbsp;&nbsp;&nbsp;&nbsp;&nbsp;&nbsp;&nbsp;&nbsp;&nbsp;&nbsp;&nbsp;&nbsp;4</p><p style=""font-size:14px"">Not at all familiar&nbsp;&nbsp;&nbsp;&nbsp;A little familiar&nbsp;&nbsp;&nbsp;Moderately familiar&nbsp;&nbsp;&nbsp;Extremely familiar</p><p>(press the corresponding number on your keyboard)</p>","","52","","","FAM-RESPONSE","","","","","","","","","","","","","","","","","","","sounds/B/FAM/W001.mp3","word","","","","","","","","","","","","","","","","","","",""
"html-keyboard-response","273","1671185","0.0-7.0-1.0-0.11","2","1","rrtcvc8na1ctrqw","","null","","","","null","","","","","","","","","","","","","","","","","","","","","","","","","","","","","","","","","","","","","","","","","",""
"audio-keyboard-response","274","1672128","0.0-7.0-1.0-1.11","2","1","rrtcvc8na1ctrqw","","null","","sounds/B/FAM/P003.mp3","","null","","","","","","","","","","","","","","","","","","","","","","","","","","","","","","","","","","","","","","","","","",""
"html-keyboard-response","275","1673366","0.0-7.0-1.0-2.11","2","1","rrtcvc8na1ctrqw","","733.5","","<p>How familiar did this sound to you?</p><p>1&nbsp;&nbsp;&nbsp;&nbsp;&nbsp;&nbsp;&nbsp;&nbsp;&nbsp;&nbsp;&nbsp;&nbsp;&nbsp;&nbsp;&nbsp;&nbsp;&nbsp;&nbsp;&nbsp;2&nbsp;&nbsp;&nbsp;&nbsp;&nbsp;&nbsp;&nbsp;&nbsp;&nbsp;&nbsp;&nbsp;&nbsp;&nbsp;&nbsp;&nbsp;&nbsp;&nbsp;&nbsp;&nbsp;3&nbsp;&nbsp;&nbsp;&nbsp;&nbsp;&nbsp;&nbsp;&nbsp;&nbsp;&nbsp;&nbsp;&nbsp;&nbsp;&nbsp;&nbsp;&nbsp;&nbsp;&nbsp;&nbsp;4</p><p style=""font-size:14px"">Not at all familiar&nbsp;&nbsp;&nbsp;&nbsp;A little familiar&nbsp;&nbsp;&nbsp;Moderately familiar&nbsp;&nbsp;&nbsp;Extremely familiar</p><p>(press the corresponding number on your keyboard)</p>","","52","","","FAM-RESPONSE","","","","","","","","","","","","","","","","","","","sounds/B/FAM/P003.mp3","partword","","","","","","","","","","","","","","","","","","",""
"html-button-response","276","1680496","0.0-8.0-0.0","2","1","rrtcvc8na1ctrqw","","6127.799999952316","","<p>You will now listen to longer sound sequences.</p><p>Each sound sequence will last about 16 seconds.</p><p>On each trial, you will be given a <u>TARGET SOUND</u>. Your task is to listen very carefully for this sound.</p><p>Every time you hear the <u>TARGET SOUND</u>, you will press the <b>SPACEBAR</b> as quickly and accurately as you can.</p>","0","","","","","","","","","","","","","","","","","","","","","","","","","","","","","","","","","","","","","","","","","","",""
"html-button-response","277","1685084","0.0-8.0-1.0","2","1","rrtcvc8na1ctrqw","","4331.5","","<p>It is very important that you make your responses as quickly and accurately as possible.</p><p>To help you make your responses, you will be able to listen to the <u>TARGET SOUND</u> at the beginning of each trial.</p><p>There will be 36 total trials.</p><p><b>Note: This is meant to be a difficult task. We simply want you to try your best.</p>","0","","","","","","","","","","","","","","","","","","","","","","","","","","","","","","","","","","","","","","","","","","",""
"html-button-response","278","1686915","0.0-8.0-2.0-0.0","2","1","rrtcvc8na1ctrqw","","1576.8000000715256","","<p>Trial 1 of 36</p>","0","","","","","","","","","","","","","","","","","","","","","","","","","TA","sounds/syllables/ta_SWS.wav","1500,5100,7800,13200","3","","","","","","","","","","","","","","",""
"html-keyboard-response","279","1690764","0.0-8.0-2.0-1.0","2","1","rrtcvc8na1ctrqw","","3847.1999999284744","","","","80","","","","","","","","","","","","","","","","","","","","","","","","TA","","1500,5100,7800,13200","3","","","","","","","","","","","","","","",""
"audio-keyboard-response","280","1691066","0.0-8.0-2.0-2.0-0.0","2","1","rrtcvc8na1ctrqw","","null","","sounds/syllables/ta_SWS.wav","","null","","","","","","","","","","","","","","","","","","","","","","","","","","","","","","","","","","","","","","","","","",""
"html-keyboard-response","281","1692982","0.0-8.0-2.0-2.0-1.0","2","1","rrtcvc8na1ctrqw","","1913.7000000476837","","<p>To replay the <u>TARGET SOUND</u>, press P.</p> When you are ready to begin, press SPACEBAR.","","80","","","","","","","","","","","","","","","","","","","","","","","","","","","","","","","","","","","","","","","","","",""
"audio-keyboard-response","282","1693786","0.0-8.0-2.0-2.1-0.1","2","1","rrtcvc8na1ctrqw","","null","","sounds/syllables/ta_SWS.wav","","null","","","","","","","","","","","","","","","","","","","","","","","","","","","","","","","","","","","","","","","","","",""
"html-keyboard-response","283","1694431","0.0-8.0-2.0-2.1-1.1","2","1","rrtcvc8na1ctrqw","","643.4000000953674","","<p>To replay the <u>TARGET SOUND</u>, press P.</p> When you are ready to begin, press SPACEBAR.","","80","","","","","","","","","","","","","","","","","","","","","","","","","","","","","","","","","","","","","","","","","",""
"audio-keyboard-response","284","1695237","0.0-8.0-2.0-2.2-0.2","2","1","rrtcvc8na1ctrqw","","null","","sounds/syllables/ta_SWS.wav","","null","","","","","","","","","","","","","","","","","","","","","","","","","","","","","","","","","","","","","","","","","",""
"html-keyboard-response","285","1695787","0.0-8.0-2.0-2.2-1.2","2","1","rrtcvc8na1ctrqw","","548.5","","<p>To replay the <u>TARGET SOUND</u>, press P.</p> When you are ready to begin, press SPACEBAR.","","32","","","","","","","","","","","","","","","","","","","","","","","","","","","","","","","","","","","","","","","","","",""
"audio-keyboard-response","286","1710737","0.0-8.0-2.0-3.0","2","1","rrtcvc8na1ctrqw","","5973","","sounds/B/TD/TA_05_TD.mp3","","32","","","TD_SUMMARY","","","","","","","","","","","","","","","","","","","","","TA","","1500,5100,7800,13200","3","1500","5100","7800","13200","null","874.6000000238419","997.5","null","5974.600000023842_8797.5_12619","3","","","","",""
"html-button-response","287","1712479","0.0-8.0-2.0-0.1","2","1","rrtcvc8na1ctrqw","","1739.4000000953674","","<p>Trial 2 of 36</p>","0","","","","","","","","","","","","","","","","","","","","","","","","","ME","sounds/syllables/me_SWS.wav","1200,6600,8400,11100","2","","","","","","","","","","","","","","",""
"html-keyboard-response","288","1713613","0.0-8.0-2.0-1.1","2","1","rrtcvc8na1ctrqw","","1133","","","","80","","","","","","","","","","","","","","","","","","","","","","","","ME","","1200,6600,8400,11100","2","","","","","","","","","","","","","","",""
"audio-keyboard-response","289","1713914","0.0-8.0-2.0-2.3-0.3","2","1","rrtcvc8na1ctrqw","","null","","sounds/syllables/me_SWS.wav","","null","","","","","","","","","","","","","","","","","","","","","","","","","","","","","","","","","","","","","","","","","",""
"html-keyboard-response","290","1714585","0.0-8.0-2.0-2.3-1.3","2","1","rrtcvc8na1ctrqw","","669.8999999761581","","<p>To replay the <u>TARGET SOUND</u>, press P.</p> When you are ready to begin, press SPACEBAR.","","80","","","","","","","","","","","","","","","","","","","","","","","","","","","","","","","","","","","","","","","","","",""
"audio-keyboard-response","291","1715387","0.0-8.0-2.0-2.4-0.4","2","1","rrtcvc8na1ctrqw","","null","","sounds/syllables/me_SWS.wav","","null","","","","","","","","","","","","","","","","","","","","","","","","","","","","","","","","","","","","","","","","","",""
"html-keyboard-response","292","1715999","0.0-8.0-2.0-2.4-1.4","2","1","rrtcvc8na1ctrqw","","612.2000000476837","","<p>To replay the <u>TARGET SOUND</u>, press P.</p> When you are ready to begin, press SPACEBAR.","","80","","","","","","","","","","","","","","","","","","","","","","","","","","","","","","","","","","","","","","","","","",""
"audio-keyboard-response","293","1716805","0.0-8.0-2.0-2.5-0.5","2","1","rrtcvc8na1ctrqw","","null","","sounds/syllables/me_SWS.wav","","null","","","","","","","","","","","","","","","","","","","","","","","","","","","","","","","","","","","","","","","","","",""
"html-keyboard-response","294","1717258","0.0-8.0-2.0-2.5-1.5","2","1","rrtcvc8na1ctrqw","","451.40000009536743","","<p>To replay the <u>TARGET SOUND</u>, press P.</p> When you are ready to begin, press SPACEBAR.","","80","","","","","","","","","","","","","","","","","","","","","","","","","","","","","","","","","","","","","","","","","",""
"audio-keyboard-response","295","1718064","0.0-8.0-2.0-2.6-0.6","2","1","rrtcvc8na1ctrqw","","null","","sounds/syllables/me_SWS.wav","","null","","","","","","","","","","","","","","","","","","","","","","","","","","","","","","","","","","","","","","","","","",""
"html-keyboard-response","296","1718404","0.0-8.0-2.0-2.6-1.6","2","1","rrtcvc8na1ctrqw","","338.2000000476837","","<p>To replay the <u>TARGET SOUND</u>, press P.</p> When you are ready to begin, press SPACEBAR.","","32","","","","","","","","","","","","","","","","","","","","","","","","","","","","","","","","","","","","","","","","","",""
"audio-keyboard-response","297","1733355","0.0-8.0-2.0-3.1","2","1","rrtcvc8na1ctrqw","","1424","","sounds/B/TD/ME_01_TD.mp3","","32","","","TD_SUMMARY","","","","","","","","","","","","","","","","","","","","","ME","","1200,6600,8400,11100","2","1200","6600","8400","11100","225","null","492.60000002384186","null","___1425_4578.299999952316_8892.600000023842_13375.199999928474","4","","","","",""
"html-button-response","298","1734622","0.0-8.0-2.0-0.2","2","1","rrtcvc8na1ctrqw","","1264.6000000238419","","<p>Trial 3 of 36</p>","0","","","","","","","","","","","","","","","","","","","","","","","","","RU","sounds/syllables/ru_SWS.wav","2400,5100,11400,13200","3","","","","","","","","","","","","","","",""
"html-keyboard-response","299","1735643","0.0-8.0-2.0-1.2","2","1","rrtcvc8na1ctrqw","","1018.9000000953674","","","","80","","","","","","","","","","","","","","","","","","","","","","","","RU","","2400,5100,11400,13200","3","","","","","","","","","","","","","","",""
"audio-keyboard-response","300","1735946","0.0-8.0-2.0-2.7-0.7","2","1","rrtcvc8na1ctrqw","","null","","sounds/syllables/ru_SWS.wav","","null","","","","","","","","","","","","","","","","","","","","","","","","","","","","","","","","","","","","","","","","","",""
"html-keyboard-response","301","1736657","0.0-8.0-2.0-2.7-1.7","2","1","rrtcvc8na1ctrqw","","709.1000000238419","","<p>To replay the <u>TARGET SOUND</u>, press P.</p> When you are ready to begin, press SPACEBAR.","","80","","","","","","","","","","","","","","","","","","","","","","","","","","","","","","","","","","","","","","","","","",""
"audio-keyboard-response","302","1737461","0.0-8.0-2.0-2.8-0.8","2","1","rrtcvc8na1ctrqw","","null","","sounds/syllables/ru_SWS.wav","","null","","","","","","","","","","","","","","","","","","","","","","","","","","","","","","","","","","","","","","","","","",""
"html-keyboard-response","303","1737977","0.0-8.0-2.0-2.8-1.8","2","1","rrtcvc8na1ctrqw","","514.3000000715256","","<p>To replay the <u>TARGET SOUND</u>, press P.</p> When you are ready to begin, press SPACEBAR.","","80","","","","","","","","","","","","","","","","","","","","","","","","","","","","","","","","","","","","","","","","","",""
"audio-keyboard-response","304","1738784","0.0-8.0-2.0-2.9-0.9","2","1","rrtcvc8na1ctrqw","","null","","sounds/syllables/ru_SWS.wav","","null","","","","","","","","","","","","","","","","","","","","","","","","","","","","","","","","","","","","","","","","","",""
"html-keyboard-response","305","1739525","0.0-8.0-2.0-2.9-1.9","2","1","rrtcvc8na1ctrqw","","739.2999999523163","","<p>To replay the <u>TARGET SOUND</u>, press P.</p> When you are ready to begin, press SPACEBAR.","","32","","","","","","","","","","","","","","","","","","","","","","","","","","","","","","","","","","","","","","","","","",""
"audio-keyboard-response","306","1754476","0.0-8.0-2.0-3.2","2","1","rrtcvc8na1ctrqw","","299","","sounds/B/TD/RU_05_TD.mp3","","32","","","TD_SUMMARY","","","","","","","","","","","","","","","","","","","","","RU","","2400,5100,11400,13200","3","2400","5100","11400","13200","null","217.69999992847443","null","null","_______297.39999997615814_5317.699999928474_9192.899999976158_13116.600000023842","3","","","","",""
"html-button-response","307","1755693","0.0-8.0-2.0-0.3","2","1","rrtcvc8na1ctrqw","","1212.8999999761581","","<p>Trial 4 of 36</p>","0","","","","","","","","","","","","","","","","","","","","","","","","","RU","sounds/syllables/ru_SWS.wav","2400,6000,7800,10500","3","","","","","","","","","","","","","","",""
"html-keyboard-response","308","1756673","0.0-8.0-2.0-1.3","2","1","rrtcvc8na1ctrqw","","978.7000000476837","","","","80","","","","","","","","","","","","","","","","","","","","","","","","RU","","2400,6000,7800,10500","3","","","","","","","","","","","","","","",""
"audio-keyboard-response","309","1756976","0.0-8.0-2.0-2.10-0.10","2","1","rrtcvc8na1ctrqw","","null","","sounds/syllables/ru_SWS.wav","","null","","","","","","","","","","","","","","","","","","","","","","","","","","","","","","","","","","","","","","","","","",""
"html-keyboard-response","310","1757614","0.0-8.0-2.0-2.10-1.10","2","1","rrtcvc8na1ctrqw","","636.5","","<p>To replay the <u>TARGET SOUND</u>, press P.</p> When you are ready to begin, press SPACEBAR.","","80","","","","","","","","","","","","","","","","","","","","","","","","","","","","","","","","","","","","","","","","","",""
"audio-keyboard-response","311","1758416","0.0-8.0-2.0-2.11-0.11","2","1","rrtcvc8na1ctrqw","","null","","sounds/syllables/ru_SWS.wav","","null","","","","","","","","","","","","","","","","","","","","","","","","","","","","","","","","","","","","","","","","","",""
"html-keyboard-response","312","1759160","0.0-8.0-2.0-2.11-1.11","2","1","rrtcvc8na1ctrqw","","742.7999999523163","","<p>To replay the <u>TARGET SOUND</u>, press P.</p> When you are ready to begin, press SPACEBAR.","","32","","","","","","","","","","","","","","","","","","","","","","","","","","","","","","","","","","","","","","","","","",""
"audio-keyboard-response","313","1774107","0.0-8.0-2.0-3.3","2","1","rrtcvc8na1ctrqw","","2245","","sounds/B/TD/RU_06_TD.mp3","","32","","","TD_SUMMARY","","","","","","","","","","","","","","","","","","","","","RU","","2400,6000,7800,10500","3","2400","6000","7800","10500","null","912.5","null","709.2000000476837","___________2247.5_4148.100000023842_5755.5_6912.5_7809.100000023842_9744_11209.200000047684_12709.300000071526_14260.899999976158","2","","","","",""
"html-button-response","314","1775382","0.0-8.0-2.0-0.4","2","1","rrtcvc8na1ctrqw","","1271.7000000476837","","<p>Trial 5 of 36</p>","0","","","","","","","","","","","","","","","","","","","","","","","","","ME","sounds/syllables/me_SWS.wav","3900,5700,11100,12900","2","","","","","","","","","","","","","","",""
"html-keyboard-response","315","1776201","0.0-8.0-2.0-1.4","2","1","rrtcvc8na1ctrqw","","818.2000000476837","","","","80","","","","","","","","","","","","","","","","","","","","","","","","ME","","3900,5700,11100,12900","2","","","","","","","","","","","","","","",""
