"trial_type","trial_index","time_elapsed","internal_node_id","counterbalance","lang_instruct","ParticipantID","view_history","rt","url","stimulus","button_pressed","key_press","correctRESP","correct","designation","location","correctanswer","responses","sentence","keywords","typed_resp","keyword1_acc","keyword2_acc","keyword3_acc","keyword4_acc","keyword5_acc","total_acc","prop_acc"
"pavlovia","0","4","0.0-0.0","1","1","2j59k9r7vd8ebn5","","","","","","","","","","","","","","","","","","","","","",""
"instructions","1","45418","0.0-1.0","1","1","2j59k9r7vd8ebn5","[{""page_index"":0,""viewing_time"":17575.000000000004},{""page_index"":1,""viewing_time"":27827.999999999996}]","45416","","","","","","","","","","","","","","","","","","","",""
"external-html","2","51451","0.0-2.0","1","1","2j59k9r7vd8ebn5","","5908","consent/consent.html","","","","","","","","","","","","","","","","","","",""
"html-button-response","3","57420","0.0-3.0-0.0-0.0","1","1","2j59k9r7vd8ebn5","","5966.000000000007","","<p>Welcome to the study. You will first complete a short volume calibration and headphone check.</p><p>Please make sure you are in a quiet listening environment, that you are wearing headphones, and that your computer's volume is turned on.<p></p>","0","","","","","","","","","","","","","","","","",""
"html-button-response","4","62311","0.0-3.0-0.0-1.0","1","1","2j59k9r7vd8ebn5","","4638.999999999993","","<p>The volume calibration will be first.</p><p>You will hear a thirty-second noise. Please adjust your computer's volume so that this noise is being presented at a comfortable level.<p></p>","0","","","","","","","","","","","","","","","","",""
"audio-button-response","5","77749","0.0-3.0-0.0-2.0","1","1","2j59k9r7vd8ebn5","","15117","","audCalib/volumetest.mp3","0","","","","","","","","","","","","","","","","",""
"html-button-response","6","100272","0.0-3.0-1.0-0.0","1","1","2j59k9r7vd8ebn5","","22524","","<p>You will now complete a short headphone check.</p><p>On each trial, you will hear three tones. One of these tones will be quieter than the others. Your task is to identify whether the quiet tone occured first, second, or third.</p><p>There are six trials in total.<p></p>","0","","","","","","","","","","","","","","","","",""
"html-keyboard-response","7","101024","0.0-3.0-1.0-1.0-0.0","1","1","2j59k9r7vd8ebn5","","null","","<div style=""font-size:60px;"">+</div>","","null","","","","","","","","","","","","","","","",""
"audio-button-response","8","106419","0.0-3.0-1.0-1.0-1.0","1","1","2j59k9r7vd8ebn5","","5395","","audCalib/t3_1.mp3","2","","2","1","headphone-test","","","","","","","","","","","","",""
"html-keyboard-response","9","107172","0.0-3.0-1.0-1.0-0.1","1","1","2j59k9r7vd8ebn5","","null","","<div style=""font-size:60px;"">+</div>","","null","","","","","","","","","","","","","","","",""
"audio-button-response","10","111812","0.0-3.0-1.0-1.0-1.1","1","1","2j59k9r7vd8ebn5","","4637","","audCalib/t2_2.mp3","1","","1","1","headphone-test","","","","","","","","","","","","",""
"html-keyboard-response","11","112565","0.0-3.0-1.0-1.0-0.2","1","1","2j59k9r7vd8ebn5","","null","","<div style=""font-size:60px;"">+</div>","","null","","","","","","","","","","","","","","","",""
"audio-button-response","12","117900","0.0-3.0-1.0-1.0-1.2","1","1","2j59k9r7vd8ebn5","","5333","","audCalib/t1_2.mp3","0","","0","1","headphone-test","","","","","","","","","","","","",""
"html-keyboard-response","13","118653","0.0-3.0-1.0-1.0-0.3","1","1","2j59k9r7vd8ebn5","","null","","<div style=""font-size:60px;"">+</div>","","null","","","","","","","","","","","","","","","",""
"audio-button-response","14","124025","0.0-3.0-1.0-1.0-1.3","1","1","2j59k9r7vd8ebn5","","5371","","audCalib/t2_1.mp3","1","","1","1","headphone-test","","","","","","","","","","","","",""
"html-keyboard-response","15","124778","0.0-3.0-1.0-1.0-0.4","1","1","2j59k9r7vd8ebn5","","null","","<div style=""font-size:60px;"">+</div>","","null","","","","","","","","","","","","","","","",""
"audio-button-response","16","129905","0.0-3.0-1.0-1.0-1.4","1","1","2j59k9r7vd8ebn5","","5125","","audCalib/t1_1.mp3","0","","0","1","headphone-test","","","","","","","","","","","","",""
"html-keyboard-response","17","130657","0.0-3.0-1.0-1.0-0.5","1","1","2j59k9r7vd8ebn5","","null","","<div style=""font-size:60px;"">+</div>","","null","","","","","","","","","","","","","","","",""
"audio-button-response","18","135421","0.0-3.0-1.0-1.0-1.5","1","1","2j59k9r7vd8ebn5","","4763","","audCalib/t3_2.mp3","2","","2","1","headphone-test","","","","","","","","","","","","",""
"html-button-response","19","137744","0.0-3.0-2.0","1","1","2j59k9r7vd8ebn5","","2071","","<p>The volume calibration and headphone check are now complete.</p>","0","","","","","","","","","","","","","","","","",""
"instructions","20","151215","0.0-4.0-0.0","1","1","2j59k9r7vd8ebn5","[{""page_index"":0,""viewing_time"":2256},{""page_index"":1,""viewing_time"":8975},{""page_index"":2,""viewing_time"":2241}]","13472","","","","","","","","","","","","","","","","","","","",""
"audio-keyboard-response","21","151516","0.0-4.0-1.0-0.0","1","1","2j59k9r7vd8ebn5","","null","","sounds/induction/left/fe_SWS.wav","","null","","","","","","","","","","","","","","","",""
"html-button-response","22","154442","0.0-4.0-1.0-1.0","1","1","2j59k9r7vd8ebn5","","2925.999999999971","","What sound did you hear?","1","","","1","INDUCTION-JUDGMENT","left","1","","","","","","","","","","",""
"html-keyboard-response","23","155443","0.0-4.0-1.0-2.0","1","1","2j59k9r7vd8ebn5","","null","","<p style=""color:green;""><b>Correct!</b></p>","","null","","","","","","","","","","","","","","","",""
"audio-keyboard-response","24","156246","0.0-4.0-1.0-0.1","1","1","2j59k9r7vd8ebn5","","null","","sounds/induction/left/ta_SWS.wav","","null","","","","","","","","","","","","","","","",""
"html-button-response","25","158090","0.0-4.0-1.0-1.1","1","1","2j59k9r7vd8ebn5","","1843","","What sound did you hear?","0","","","1","INDUCTION-JUDGMENT","left","0","","","","","","","","","","",""
"html-keyboard-response","26","159091","0.0-4.0-1.0-2.1","1","1","2j59k9r7vd8ebn5","","null","","<p style=""color:green;""><b>Correct!</b></p>","","null","","","","","","","","","","","","","","","",""
"audio-keyboard-response","27","159893","0.0-4.0-1.0-0.2","1","1","2j59k9r7vd8ebn5","","null","","sounds/induction/left/me_SWS.wav","","null","","","","","","","","","","","","","","","",""
"html-button-response","28","162338","0.0-4.0-1.0-1.2","1","1","2j59k9r7vd8ebn5","","2444","","What sound did you hear?","1","","","1","INDUCTION-JUDGMENT","left","1","","","","","","","","","","",""
"html-keyboard-response","29","163339","0.0-4.0-1.0-2.2","1","1","2j59k9r7vd8ebn5","","null","","<p style=""color:green;""><b>Correct!</b></p>","","null","","","","","","","","","","","","","","","",""
"audio-keyboard-response","30","164141","0.0-4.0-1.0-0.3","1","1","2j59k9r7vd8ebn5","","null","","sounds/induction/left/me_SWS.wav","","null","","","","","","","","","","","","","","","",""
"html-button-response","31","166019","0.0-4.0-1.0-1.3","1","1","2j59k9r7vd8ebn5","","1877","","What sound did you hear?","1","","","1","INDUCTION-JUDGMENT","left","1","","","","","","","","","","",""
"html-keyboard-response","32","167021","0.0-4.0-1.0-2.3","1","1","2j59k9r7vd8ebn5","","null","","<p style=""color:green;""><b>Correct!</b></p>","","null","","","","","","","","","","","","","","","",""
"audio-keyboard-response","33","167824","0.0-4.0-1.0-0.4","1","1","2j59k9r7vd8ebn5","","null","","sounds/induction/right/re_SWS.wav","","null","","","","","","","","","","","","","","","",""
"html-button-response","34","169742","0.0-4.0-1.0-1.4","1","1","2j59k9r7vd8ebn5","","1917","","What sound did you hear?","1","","","1","INDUCTION-JUDGMENT","right","1","","","","","","","","","","",""
"html-keyboard-response","35","170743","0.0-4.0-1.0-2.4","1","1","2j59k9r7vd8ebn5","","null","","<p style=""color:green;""><b>Correct!</b></p>","","null","","","","","","","","","","","","","","","",""
"audio-keyboard-response","36","171544","0.0-4.0-1.0-0.5","1","1","2j59k9r7vd8ebn5","","null","","sounds/induction/left/ru_SWS.wav","","null","","","","","","","","","","","","","","","",""
"html-button-response","37","172475","0.0-4.0-1.0-1.5","1","1","2j59k9r7vd8ebn5","","931","","What sound did you hear?","0","","","1","INDUCTION-JUDGMENT","left","0","","","","","","","","","","",""
"html-keyboard-response","38","173477","0.0-4.0-1.0-2.5","1","1","2j59k9r7vd8ebn5","","null","","<p style=""color:green;""><b>Correct!</b></p>","","null","","","","","","","","","","","","","","","",""
"audio-keyboard-response","39","174279","0.0-4.0-1.0-0.6","1","1","2j59k9r7vd8ebn5","","null","","sounds/induction/right/ko_SWS.wav","","null","","","","","","","","","","","","","","","",""
"html-button-response","40","176451","0.0-4.0-1.0-1.6","1","1","2j59k9r7vd8ebn5","","2171","","What sound did you hear?","0","","","1","INDUCTION-JUDGMENT","right","0","","","","","","","","","","",""
"html-keyboard-response","41","177453","0.0-4.0-1.0-2.6","1","1","2j59k9r7vd8ebn5","","null","","<p style=""color:green;""><b>Correct!</b></p>","","null","","","","","","","","","","","","","","","",""
"audio-keyboard-response","42","178255","0.0-4.0-1.0-0.7","1","1","2j59k9r7vd8ebn5","","null","","sounds/induction/left/ge_SWS.wav","","null","","","","","","","","","","","","","","","",""
"html-button-response","43","179423","0.0-4.0-1.0-1.7","1","1","2j59k9r7vd8ebn5","","1167","","What sound did you hear?","1","","","1","INDUCTION-JUDGMENT","left","1","","","","","","","","","","",""
"html-keyboard-response","44","180425","0.0-4.0-1.0-2.7","1","1","2j59k9r7vd8ebn5","","null","","<p style=""color:green;""><b>Correct!</b></p>","","null","","","","","","","","","","","","","","","",""
"audio-keyboard-response","45","181226","0.0-4.0-1.0-0.8","1","1","2j59k9r7vd8ebn5","","null","","sounds/induction/left/ni_SWS.wav","","null","","","","","","","","","","","","","","","",""
"html-button-response","46","183509","0.0-4.0-1.0-1.8","1","1","2j59k9r7vd8ebn5","","2283.000000000029","","What sound did you hear?","1","","","1","INDUCTION-JUDGMENT","left","1","","","","","","","","","","",""
"html-keyboard-response","47","184510","0.0-4.0-1.0-2.8","1","1","2j59k9r7vd8ebn5","","null","","<p style=""color:green;""><b>Correct!</b></p>","","null","","","","","","","","","","","","","","","",""
"audio-keyboard-response","48","185314","0.0-4.0-1.0-0.9","1","1","2j59k9r7vd8ebn5","","null","","sounds/induction/left/ta_SWS.wav","","null","","","","","","","","","","","","","","","",""
"html-button-response","49","187205","0.0-4.0-1.0-1.9","1","1","2j59k9r7vd8ebn5","","1892.000000000029","","What sound did you hear?","0","","","1","INDUCTION-JUDGMENT","left","0","","","","","","","","","","",""
"html-keyboard-response","50","188207","0.0-4.0-1.0-2.9","1","1","2j59k9r7vd8ebn5","","null","","<p style=""color:green;""><b>Correct!</b></p>","","null","","","","","","","","","","","","","","","",""
"audio-keyboard-response","51","189009","0.0-4.0-1.0-0.10","1","1","2j59k9r7vd8ebn5","","null","","sounds/induction/right/ta_SWS.wav","","null","","","","","","","","","","","","","","","",""
"html-button-response","52","190383","0.0-4.0-1.0-1.10","1","1","2j59k9r7vd8ebn5","","1373","","What sound did you hear?","1","","","1","INDUCTION-JUDGMENT","right","1","","","","","","","","","","",""
"html-keyboard-response","53","191384","0.0-4.0-1.0-2.10","1","1","2j59k9r7vd8ebn5","","null","","<p style=""color:green;""><b>Correct!</b></p>","","null","","","","","","","","","","","","","","","",""
"audio-keyboard-response","54","192185","0.0-4.0-1.0-0.11","1","1","2j59k9r7vd8ebn5","","null","","sounds/induction/right/fu_SWS.wav","","null","","","","","","","","","","","","","","","",""
"html-button-response","55","193478","0.0-4.0-1.0-1.11","1","1","2j59k9r7vd8ebn5","","1293","","What sound did you hear?","1","","","0","INDUCTION-JUDGMENT","right","0","","","","","","","","","","",""
"html-keyboard-response","56","194480","0.0-4.0-1.0-2.11","1","1","2j59k9r7vd8ebn5","","null","","<p style=""color:red;""><b>Incorrect!</b></p>","","null","","","","","","","","","","","","","","","",""
"audio-keyboard-response","57","195281","0.0-4.0-1.0-0.12","1","1","2j59k9r7vd8ebn5","","null","","sounds/induction/right/ni_SWS.wav","","null","","","","","","","","","","","","","","","",""
"html-button-response","58","197135","0.0-4.0-1.0-1.12","1","1","2j59k9r7vd8ebn5","","1854","","What sound did you hear?","0","","","1","INDUCTION-JUDGMENT","right","0","","","","","","","","","","",""
"html-keyboard-response","59","198137","0.0-4.0-1.0-2.12","1","1","2j59k9r7vd8ebn5","","null","","<p style=""color:green;""><b>Correct!</b></p>","","null","","","","","","","","","","","","","","","",""
"audio-keyboard-response","60","198940","0.0-4.0-1.0-0.13","1","1","2j59k9r7vd8ebn5","","null","","sounds/induction/left/re_SWS.wav","","null","","","","","","","","","","","","","","","",""
"html-button-response","61","199942","0.0-4.0-1.0-1.13","1","1","2j59k9r7vd8ebn5","","1002","","What sound did you hear?","0","","","1","INDUCTION-JUDGMENT","left","0","","","","","","","","","","",""
"html-keyboard-response","62","200944","0.0-4.0-1.0-2.13","1","1","2j59k9r7vd8ebn5","","null","","<p style=""color:green;""><b>Correct!</b></p>","","null","","","","","","","","","","","","","","","",""
"audio-keyboard-response","63","201745","0.0-4.0-1.0-0.14","1","1","2j59k9r7vd8ebn5","","null","","sounds/induction/left/su_SWS.wav","","null","","","","","","","","","","","","","","","",""
"html-button-response","64","202832","0.0-4.0-1.0-1.14","1","1","2j59k9r7vd8ebn5","","1087","","What sound did you hear?","0","","","1","INDUCTION-JUDGMENT","left","0","","","","","","","","","","",""
"html-keyboard-response","65","203834","0.0-4.0-1.0-2.14","1","1","2j59k9r7vd8ebn5","","null","","<p style=""color:green;""><b>Correct!</b></p>","","null","","","","","","","","","","","","","","","",""
"audio-keyboard-response","66","204635","0.0-4.0-1.0-0.15","1","1","2j59k9r7vd8ebn5","","null","","sounds/induction/left/ko_SWS.wav","","null","","","","","","","","","","","","","","","",""
"html-button-response","67","205699","0.0-4.0-1.0-1.15","1","1","2j59k9r7vd8ebn5","","1063.000000000029","","What sound did you hear?","0","","","0","INDUCTION-JUDGMENT","left","1","","","","","","","","","","",""
"html-keyboard-response","68","206700","0.0-4.0-1.0-2.15","1","1","2j59k9r7vd8ebn5","","null","","<p style=""color:red;""><b>Incorrect!</b></p>","","null","","","","","","","","","","","","","","","",""
"audio-keyboard-response","69","207502","0.0-4.0-1.0-0.16","1","1","2j59k9r7vd8ebn5","","null","","sounds/induction/left/fu_SWS.wav","","null","","","","","","","","","","","","","","","",""
"html-button-response","70","208637","0.0-4.0-1.0-1.16","1","1","2j59k9r7vd8ebn5","","1134","","What sound did you hear?","1","","","1","INDUCTION-JUDGMENT","left","1","","","","","","","","","","",""
"html-keyboard-response","71","209639","0.0-4.0-1.0-2.16","1","1","2j59k9r7vd8ebn5","","null","","<p style=""color:green;""><b>Correct!</b></p>","","null","","","","","","","","","","","","","","","",""
"audio-keyboard-response","72","210440","0.0-4.0-1.0-0.17","1","1","2j59k9r7vd8ebn5","","null","","sounds/induction/right/ge_SWS.wav","","null","","","","","","","","","","","","","","","",""
"html-button-response","73","212021","0.0-4.0-1.0-1.17","1","1","2j59k9r7vd8ebn5","","1580","","What sound did you hear?","0","","","1","INDUCTION-JUDGMENT","right","0","","","","","","","","","","",""
"html-keyboard-response","74","213022","0.0-4.0-1.0-2.17","1","1","2j59k9r7vd8ebn5","","null","","<p style=""color:green;""><b>Correct!</b></p>","","null","","","","","","","","","","","","","","","",""
"audio-keyboard-response","75","213824","0.0-4.0-1.0-0.18","1","1","2j59k9r7vd8ebn5","","null","","sounds/induction/right/fu_SWS.wav","","null","","","","","","","","","","","","","","","",""
"html-button-response","76","215117","0.0-4.0-1.0-1.18","1","1","2j59k9r7vd8ebn5","","1292","","What sound did you hear?","0","","","1","INDUCTION-JUDGMENT","right","0","","","","","","","","","","",""
"html-keyboard-response","77","216117","0.0-4.0-1.0-2.18","1","1","2j59k9r7vd8ebn5","","null","","<p style=""color:green;""><b>Correct!</b></p>","","null","","","","","","","","","","","","","","","",""
"audio-keyboard-response","78","216920","0.0-4.0-1.0-0.19","1","1","2j59k9r7vd8ebn5","","null","","sounds/induction/left/pu_SWS.wav","","null","","","","","","","","","","","","","","","",""
"html-button-response","79","217876","0.0-4.0-1.0-1.19","1","1","2j59k9r7vd8ebn5","","956.0000000000291","","What sound did you hear?","0","","","1","INDUCTION-JUDGMENT","left","0","","","","","","","","","","",""
"html-keyboard-response","80","218877","0.0-4.0-1.0-2.19","1","1","2j59k9r7vd8ebn5","","null","","<p style=""color:green;""><b>Correct!</b></p>","","null","","","","","","","","","","","","","","","",""
"audio-keyboard-response","81","219677","0.0-4.0-1.0-0.20","1","1","2j59k9r7vd8ebn5","","null","","sounds/induction/right/pu_SWS.wav","","null","","","","","","","","","","","","","","","",""
"html-button-response","82","221761","0.0-4.0-1.0-1.20","1","1","2j59k9r7vd8ebn5","","2084","","What sound did you hear?","0","","","0","INDUCTION-JUDGMENT","right","1","","","","","","","","","","",""
"html-keyboard-response","83","222762","0.0-4.0-1.0-2.20","1","1","2j59k9r7vd8ebn5","","null","","<p style=""color:red;""><b>Incorrect!</b></p>","","null","","","","","","","","","","","","","","","",""
"audio-keyboard-response","84","223565","0.0-4.0-1.0-0.21","1","1","2j59k9r7vd8ebn5","","null","","sounds/induction/right/ru_SWS.wav","","null","","","","","","","","","","","","","","","",""
"html-button-response","85","224806","0.0-4.0-1.0-1.21","1","1","2j59k9r7vd8ebn5","","1241","","What sound did you hear?","1","","","1","INDUCTION-JUDGMENT","right","1","","","","","","","","","","",""
"html-keyboard-response","86","225808","0.0-4.0-1.0-2.21","1","1","2j59k9r7vd8ebn5","","null","","<p style=""color:green;""><b>Correct!</b></p>","","null","","","","","","","","","","","","","","","",""
"audio-keyboard-response","87","226608","0.0-4.0-1.0-0.22","1","1","2j59k9r7vd8ebn5","","null","","sounds/induction/left/ru_SWS.wav","","null","","","","","","","","","","","","","","","",""
"html-button-response","88","228001","0.0-4.0-1.0-1.22","1","1","2j59k9r7vd8ebn5","","1393.000000000029","","What sound did you hear?","0","","","1","INDUCTION-JUDGMENT","left","0","","","","","","","","","","",""
"html-keyboard-response","89","229002","0.0-4.0-1.0-2.22","1","1","2j59k9r7vd8ebn5","","null","","<p style=""color:green;""><b>Correct!</b></p>","","null","","","","","","","","","","","","","","","",""
"audio-keyboard-response","90","229805","0.0-4.0-1.0-0.23","1","1","2j59k9r7vd8ebn5","","null","","sounds/induction/left/ni_SWS.wav","","null","","","","","","","","","","","","","","","",""
"html-button-response","91","231590","0.0-4.0-1.0-1.23","1","1","2j59k9r7vd8ebn5","","1784.999999999971","","What sound did you hear?","1","","","1","INDUCTION-JUDGMENT","left","1","","","","","","","","","","",""
"html-keyboard-response","92","232591","0.0-4.0-1.0-2.23","1","1","2j59k9r7vd8ebn5","","null","","<p style=""color:green;""><b>Correct!</b></p>","","null","","","","","","","","","","","","","","","",""
"audio-keyboard-response","93","233394","0.0-4.0-1.0-0.24","1","1","2j59k9r7vd8ebn5","","null","","sounds/induction/right/ta_SWS.wav","","null","","","","","","","","","","","","","","","",""
"html-button-response","94","234972","0.0-4.0-1.0-1.24","1","1","2j59k9r7vd8ebn5","","1577.000000000029","","What sound did you hear?","1","","","1","INDUCTION-JUDGMENT","right","1","","","","","","","","","","",""
"html-keyboard-response","95","235972","0.0-4.0-1.0-2.24","1","1","2j59k9r7vd8ebn5","","null","","<p style=""color:green;""><b>Correct!</b></p>","","null","","","","","","","","","","","","","","","",""
"audio-keyboard-response","96","236775","0.0-4.0-1.0-0.25","1","1","2j59k9r7vd8ebn5","","null","","sounds/induction/left/fu_SWS.wav","","null","","","","","","","","","","","","","","","",""
"html-button-response","97","237639","0.0-4.0-1.0-1.25","1","1","2j59k9r7vd8ebn5","","864","","What sound did you hear?","0","","","0","INDUCTION-JUDGMENT","left","1","","","","","","","","","","",""
"html-keyboard-response","98","238641","0.0-4.0-1.0-2.25","1","1","2j59k9r7vd8ebn5","","null","","<p style=""color:red;""><b>Incorrect!</b></p>","","null","","","","","","","","","","","","","","","",""
"audio-keyboard-response","99","239442","0.0-4.0-1.0-0.26","1","1","2j59k9r7vd8ebn5","","null","","sounds/induction/right/fe_SWS.wav","","null","","","","","","","","","","","","","","","",""
"html-button-response","100","240537","0.0-4.0-1.0-1.26","1","1","2j59k9r7vd8ebn5","","1095","","What sound did you hear?","0","","","1","INDUCTION-JUDGMENT","right","0","","","","","","","","","","",""
"html-keyboard-response","101","241539","0.0-4.0-1.0-2.26","1","1","2j59k9r7vd8ebn5","","null","","<p style=""color:green;""><b>Correct!</b></p>","","null","","","","","","","","","","","","","","","",""
"audio-keyboard-response","102","242340","0.0-4.0-1.0-0.27","1","1","2j59k9r7vd8ebn5","","null","","sounds/induction/right/ti_SWS.wav","","null","","","","","","","","","","","","","","","",""
"html-button-response","103","244235","0.0-4.0-1.0-1.27","1","1","2j59k9r7vd8ebn5","","1894","","What sound did you hear?","1","","","1","INDUCTION-JUDGMENT","right","1","","","","","","","","","","",""
"html-keyboard-response","104","245236","0.0-4.0-1.0-2.27","1","1","2j59k9r7vd8ebn5","","null","","<p style=""color:green;""><b>Correct!</b></p>","","null","","","","","","","","","","","","","","","",""
"audio-keyboard-response","105","246039","0.0-4.0-1.0-0.28","1","1","2j59k9r7vd8ebn5","","null","","sounds/induction/right/fe_SWS.wav","","null","","","","","","","","","","","","","","","",""
"html-button-response","106","246861","0.0-4.0-1.0-1.28","1","1","2j59k9r7vd8ebn5","","822","","What sound did you hear?","0","","","1","INDUCTION-JUDGMENT","right","0","","","","","","","","","","",""
"html-keyboard-response","107","247863","0.0-4.0-1.0-2.28","1","1","2j59k9r7vd8ebn5","","null","","<p style=""color:green;""><b>Correct!</b></p>","","null","","","","","","","","","","","","","","","",""
"audio-keyboard-response","108","248662","0.0-4.0-1.0-0.29","1","1","2j59k9r7vd8ebn5","","null","","sounds/induction/left/ti_SWS.wav","","null","","","","","","","","","","","","","","","",""
"html-button-response","109","249488","0.0-4.0-1.0-1.29","1","1","2j59k9r7vd8ebn5","","825","","What sound did you hear?","0","","","1","INDUCTION-JUDGMENT","left","0","","","","","","","","","","",""
"html-keyboard-response","110","250489","0.0-4.0-1.0-2.29","1","1","2j59k9r7vd8ebn5","","null","","<p style=""color:green;""><b>Correct!</b></p>","","null","","","","","","","","","","","","","","","",""
"audio-keyboard-response","111","251292","0.0-4.0-1.0-0.30","1","1","2j59k9r7vd8ebn5","","null","","sounds/induction/right/me_SWS.wav","","null","","","","","","","","","","","","","","","",""
"html-button-response","112","252731","0.0-4.0-1.0-1.30","1","1","2j59k9r7vd8ebn5","","1439.999999999971","","What sound did you hear?","0","","","1","INDUCTION-JUDGMENT","right","0","","","","","","","","","","",""
"html-keyboard-response","113","253733","0.0-4.0-1.0-2.30","1","1","2j59k9r7vd8ebn5","","null","","<p style=""color:green;""><b>Correct!</b></p>","","null","","","","","","","","","","","","","","","",""
"audio-keyboard-response","114","254534","0.0-4.0-1.0-0.31","1","1","2j59k9r7vd8ebn5","","null","","sounds/induction/right/pu_SWS.wav","","null","","","","","","","","","","","","","","","",""
"html-button-response","115","255441","0.0-4.0-1.0-1.31","1","1","2j59k9r7vd8ebn5","","907","","What sound did you hear?","0","","","0","INDUCTION-JUDGMENT","right","1","","","","","","","","","","",""
"html-keyboard-response","116","256443","0.0-4.0-1.0-2.31","1","1","2j59k9r7vd8ebn5","","null","","<p style=""color:red;""><b>Incorrect!</b></p>","","null","","","","","","","","","","","","","","","",""
"audio-keyboard-response","117","257244","0.0-4.0-1.0-0.32","1","1","2j59k9r7vd8ebn5","","null","","sounds/induction/left/fe_SWS.wav","","null","","","","","","","","","","","","","","","",""
"html-button-response","118","258355","0.0-4.0-1.0-1.32","1","1","2j59k9r7vd8ebn5","","1110","","What sound did you hear?","1","","","1","INDUCTION-JUDGMENT","left","1","","","","","","","","","","",""
"html-keyboard-response","119","259355","0.0-4.0-1.0-2.32","1","1","2j59k9r7vd8ebn5","","null","","<p style=""color:green;""><b>Correct!</b></p>","","null","","","","","","","","","","","","","","","",""
"audio-keyboard-response","120","260158","0.0-4.0-1.0-0.33","1","1","2j59k9r7vd8ebn5","","null","","sounds/induction/left/ti_SWS.wav","","null","","","","","","","","","","","","","","","",""
"html-button-response","121","260931","0.0-4.0-1.0-1.33","1","1","2j59k9r7vd8ebn5","","773","","What sound did you hear?","0","","","1","INDUCTION-JUDGMENT","left","0","","","","","","","","","","",""
"html-keyboard-response","122","261933","0.0-4.0-1.0-2.33","1","1","2j59k9r7vd8ebn5","","null","","<p style=""color:green;""><b>Correct!</b></p>","","null","","","","","","","","","","","","","","","",""
"audio-keyboard-response","123","262734","0.0-4.0-1.0-0.34","1","1","2j59k9r7vd8ebn5","","null","","sounds/induction/right/ru_SWS.wav","","null","","","","","","","","","","","","","","","",""
"html-button-response","124","263673","0.0-4.0-1.0-1.34","1","1","2j59k9r7vd8ebn5","","939","","What sound did you hear?","1","","","1","INDUCTION-JUDGMENT","right","1","","","","","","","","","","",""
"html-keyboard-response","125","264675","0.0-4.0-1.0-2.34","1","1","2j59k9r7vd8ebn5","","null","","<p style=""color:green;""><b>Correct!</b></p>","","null","","","","","","","","","","","","","","","",""
"audio-keyboard-response","126","265478","0.0-4.0-1.0-0.35","1","1","2j59k9r7vd8ebn5","","null","","sounds/induction/right/re_SWS.wav","","null","","","","","","","","","","","","","","","",""
"html-button-response","127","266563","0.0-4.0-1.0-1.35","1","1","2j59k9r7vd8ebn5","","1085","","What sound did you hear?","1","","","1","INDUCTION-JUDGMENT","right","1","","","","","","","","","","",""
"html-keyboard-response","128","267565","0.0-4.0-1.0-2.35","1","1","2j59k9r7vd8ebn5","","null","","<p style=""color:green;""><b>Correct!</b></p>","","null","","","","","","","","","","","","","","","",""
"audio-keyboard-response","129","268366","0.0-4.0-1.0-0.36","1","1","2j59k9r7vd8ebn5","","null","","sounds/induction/left/su_SWS.wav","","null","","","","","","","","","","","","","","","",""
"html-button-response","130","269551","0.0-4.0-1.0-1.36","1","1","2j59k9r7vd8ebn5","","1186","","What sound did you hear?","0","","","1","INDUCTION-JUDGMENT","left","0","","","","","","","","","","",""
"html-keyboard-response","131","270552","0.0-4.0-1.0-2.36","1","1","2j59k9r7vd8ebn5","","null","","<p style=""color:green;""><b>Correct!</b></p>","","null","","","","","","","","","","","","","","","",""
"audio-keyboard-response","132","271355","0.0-4.0-1.0-0.37","1","1","2j59k9r7vd8ebn5","","null","","sounds/induction/right/ge_SWS.wav","","null","","","","","","","","","","","","","","","",""
"html-button-response","133","272870","0.0-4.0-1.0-1.37","1","1","2j59k9r7vd8ebn5","","1514","","What sound did you hear?","0","","","1","INDUCTION-JUDGMENT","right","0","","","","","","","","","","",""
"html-keyboard-response","134","273872","0.0-4.0-1.0-2.37","1","1","2j59k9r7vd8ebn5","","null","","<p style=""color:green;""><b>Correct!</b></p>","","null","","","","","","","","","","","","","","","",""
"audio-keyboard-response","135","274675","0.0-4.0-1.0-0.38","1","1","2j59k9r7vd8ebn5","","null","","sounds/induction/right/ti_SWS.wav","","null","","","","","","","","","","","","","","","",""
"html-button-response","136","275785","0.0-4.0-1.0-1.38","1","1","2j59k9r7vd8ebn5","","1109","","What sound did you hear?","1","","","1","INDUCTION-JUDGMENT","right","1","","","","","","","","","","",""
"html-keyboard-response","137","276787","0.0-4.0-1.0-2.38","1","1","2j59k9r7vd8ebn5","","null","","<p style=""color:green;""><b>Correct!</b></p>","","null","","","","","","","","","","","","","","","",""
"audio-keyboard-response","138","277589","0.0-4.0-1.0-0.39","1","1","2j59k9r7vd8ebn5","","null","","sounds/induction/right/su_SWS.wav","","null","","","","","","","","","","","","","","","",""
"html-button-response","139","278944","0.0-4.0-1.0-1.39","1","1","2j59k9r7vd8ebn5","","1355","","What sound did you hear?","1","","","1","INDUCTION-JUDGMENT","right","1","","","","","","","","","","",""
"html-keyboard-response","140","279946","0.0-4.0-1.0-2.39","1","1","2j59k9r7vd8ebn5","","null","","<p style=""color:green;""><b>Correct!</b></p>","","null","","","","","","","","","","","","","","","",""
"audio-keyboard-response","141","280746","0.0-4.0-1.0-0.40","1","1","2j59k9r7vd8ebn5","","null","","sounds/induction/right/me_SWS.wav","","null","","","","","","","","","","","","","","","",""
"html-button-response","142","282685","0.0-4.0-1.0-1.40","1","1","2j59k9r7vd8ebn5","","1938.9999999999418","","What sound did you hear?","0","","","1","INDUCTION-JUDGMENT","right","0","","","","","","","","","","",""
"html-keyboard-response","143","283686","0.0-4.0-1.0-2.40","1","1","2j59k9r7vd8ebn5","","null","","<p style=""color:green;""><b>Correct!</b></p>","","null","","","","","","","","","","","","","","","",""
"audio-keyboard-response","144","284487","0.0-4.0-1.0-0.41","1","1","2j59k9r7vd8ebn5","","null","","sounds/induction/left/re_SWS.wav","","null","","","","","","","","","","","","","","","",""
"html-button-response","145","285615","0.0-4.0-1.0-1.41","1","1","2j59k9r7vd8ebn5","","1127","","What sound did you hear?","0","","","1","INDUCTION-JUDGMENT","left","0","","","","","","","","","","",""
"html-keyboard-response","146","286617","0.0-4.0-1.0-2.41","1","1","2j59k9r7vd8ebn5","","null","","<p style=""color:green;""><b>Correct!</b></p>","","null","","","","","","","","","","","","","","","",""
"audio-keyboard-response","147","287418","0.0-4.0-1.0-0.42","1","1","2j59k9r7vd8ebn5","","null","","sounds/induction/left/pu_SWS.wav","","null","","","","","","","","","","","","","","","",""
"html-button-response","148","288192","0.0-4.0-1.0-1.42","1","1","2j59k9r7vd8ebn5","","774","","What sound did you hear?","0","","","1","INDUCTION-JUDGMENT","left","0","","","","","","","","","","",""
"html-keyboard-response","149","289194","0.0-4.0-1.0-2.42","1","1","2j59k9r7vd8ebn5","","null","","<p style=""color:green;""><b>Correct!</b></p>","","null","","","","","","","","","","","","","","","",""
"audio-keyboard-response","150","289997","0.0-4.0-1.0-0.43","1","1","2j59k9r7vd8ebn5","","null","","sounds/induction/right/ni_SWS.wav","","null","","","","","","","","","","","","","","","",""
"html-button-response","151","292053","0.0-4.0-1.0-1.43","1","1","2j59k9r7vd8ebn5","","2057","","What sound did you hear?","0","","","1","INDUCTION-JUDGMENT","right","0","","","","","","","","","","",""
"html-keyboard-response","152","293055","0.0-4.0-1.0-2.43","1","1","2j59k9r7vd8ebn5","","null","","<p style=""color:green;""><b>Correct!</b></p>","","null","","","","","","","","","","","","","","","",""
"audio-keyboard-response","153","293855","0.0-4.0-1.0-0.44","1","1","2j59k9r7vd8ebn5","","null","","sounds/induction/left/ko_SWS.wav","","null","","","","","","","","","","","","","","","",""
"html-button-response","154","294870","0.0-4.0-1.0-1.44","1","1","2j59k9r7vd8ebn5","","1014","","What sound did you hear?","0","","","0","INDUCTION-JUDGMENT","left","1","","","","","","","","","","",""
"html-keyboard-response","155","295871","0.0-4.0-1.0-2.44","1","1","2j59k9r7vd8ebn5","","null","","<p style=""color:red;""><b>Incorrect!</b></p>","","null","","","","","","","","","","","","","","","",""
"audio-keyboard-response","156","296674","0.0-4.0-1.0-0.45","1","1","2j59k9r7vd8ebn5","","null","","sounds/induction/right/ko_SWS.wav","","null","","","","","","","","","","","","","","","",""
"html-button-response","157","298401","0.0-4.0-1.0-1.45","1","1","2j59k9r7vd8ebn5","","1726","","What sound did you hear?","0","","","1","INDUCTION-JUDGMENT","right","0","","","","","","","","","","",""
"html-keyboard-response","158","299402","0.0-4.0-1.0-2.45","1","1","2j59k9r7vd8ebn5","","null","","<p style=""color:green;""><b>Correct!</b></p>","","null","","","","","","","","","","","","","","","",""
"audio-keyboard-response","159","300201","0.0-4.0-1.0-0.46","1","1","2j59k9r7vd8ebn5","","null","","sounds/induction/right/su_SWS.wav","","null","","","","","","","","","","","","","","","",""
"html-button-response","160","301754","0.0-4.0-1.0-1.46","1","1","2j59k9r7vd8ebn5","","1553","","What sound did you hear?","0","","","0","INDUCTION-JUDGMENT","right","1","","","","","","","","","","",""
"html-keyboard-response","161","302755","0.0-4.0-1.0-2.46","1","1","2j59k9r7vd8ebn5","","null","","<p style=""color:red;""><b>Incorrect!</b></p>","","null","","","","","","","","","","","","","","","",""
"audio-keyboard-response","162","303556","0.0-4.0-1.0-0.47","1","1","2j59k9r7vd8ebn5","","null","","sounds/induction/left/ge_SWS.wav","","null","","","","","","","","","","","","","","","",""
"html-button-response","163","304849","0.0-4.0-1.0-1.47","1","1","2j59k9r7vd8ebn5","","1293","","What sound did you hear?","1","","","1","INDUCTION-JUDGMENT","left","1","","","","","","","","","","",""
"html-keyboard-response","164","305850","0.0-4.0-1.0-2.47","1","1","2j59k9r7vd8ebn5","","null","","<p style=""color:green;""><b>Correct!</b></p>","","null","","","","","","","","","","","","","","","",""
"html-button-response","165","323682","0.0-5.0-0.0","1","1","2j59k9r7vd8ebn5","","17330","","<p>Thank you for your answers.</p><p>You will now listen to similar sounds. The main difference is that the sounds will be longer and will make up complete sentences.</p><p>Please listen carefully to each sentence. After each sentence, you will be asked to type back what you heard to the best of your ability. After you provide your response, you will be given feedback about the correct answer.</p><p>There are 10 sentences in total.","0","","","","","","","","","","","","","","","","",""
"audio-keyboard-response","166","326571","0.0-5.0-1.0-0.0","1","1","2j59k9r7vd8ebn5","","null","","sounds/sentences/right/14_07_cfSWS.wav","","null","","","","","","","","","","","","","","","",""
"sentence-resp","167","347146","0.0-5.0-1.0-1.0","1","1","2j59k9r7vd8ebn5","","20573","","","","","","","SWS-SENT-RESPONSE","","","{""Q0"":""fee foo rue nigh fee""}","Write a fond note to the friend you cherish.","write,fond,note,friend,cherish","FEE FOO RUE NIGH FEE","0","0","0","0","0","0","0"
"html-keyboard-response","168","348399","0.0-5.0-1.0-2.0","1","1","2j59k9r7vd8ebn5","","null","","","","null","","","","","","","","","","","","","","","",""
"audio-keyboard-response","169","350788","0.0-5.0-1.0-3.0","1","1","2j59k9r7vd8ebn5","","null","","sounds/sentences/right/14_07_cfSWS.wav","","null","","","","","","","","","","","","","","","",""
"html-keyboard-response","170","351790","0.0-5.0-1.0-4.0","1","1","2j59k9r7vd8ebn5","","null","","","","null","","","","","","","","","","","","","","","",""
"html-button-response","171","353715","0.0-5.0-1.0-5.0","1","1","2j59k9r7vd8ebn5","","1423.9999999999418","","<p>Press the button below when you are ready to continue.</p>","0","","","","","","","","","","","","","","","","",""
"audio-keyboard-response","172","356532","0.0-5.0-1.0-0.1","1","1","2j59k9r7vd8ebn5","","null","","sounds/sentences/left/14_02_cfSWS.wav","","null","","","","","","","","","","","","","","","",""
"sentence-resp","173","367583","0.0-5.0-1.0-1.1","1","1","2j59k9r7vd8ebn5","","11051","","","","","","","SWS-SENT-RESPONSE","","","{""Q0"":""write a note to a friend ""}","He said the same phrase thirty times.","said,same,phrase,thirty,times","WRITE A NOTE TO A FRIEND ","0","0","0","0","0","0","0"
"html-keyboard-response","174","368834","0.0-5.0-1.0-2.1","1","1","2j59k9r7vd8ebn5","","null","","","","null","","","","","","","","","","","","","","","",""
"audio-keyboard-response","175","371150","0.0-5.0-1.0-3.1","1","1","2j59k9r7vd8ebn5","","null","","sounds/sentences/left/14_02_cfSWS.wav","","null","","","","","","","","","","","","","","","",""
"html-keyboard-response","176","372151","0.0-5.0-1.0-4.1","1","1","2j59k9r7vd8ebn5","","null","","","","null","","","","","","","","","","","","","","","",""
"html-button-response","177","375058","0.0-5.0-1.0-5.1","1","1","2j59k9r7vd8ebn5","","2404.999999999942","","<p>Press the button below when you are ready to continue.</p>","0","","","","","","","","","","","","","","","","",""
"audio-keyboard-response","178","377814","0.0-5.0-1.0-0.2","1","1","2j59k9r7vd8ebn5","","null","","sounds/sentences/right/14_08_cfSWS.wav","","null","","","","","","","","","","","","","","","",""
"sentence-resp","179","397001","0.0-5.0-1.0-1.2","1","1","2j59k9r7vd8ebn5","","19186","","","","","","","SWS-SENT-RESPONSE","","","{""Q0"":""he went to the supermarket ""}","Clothes and lodging are free to new men.","clothes,lodging,free,new,men","HE WENT TO THE SUPERMARKET ","0","0","0","0","0","0","0"
"html-keyboard-response","180","398252","0.0-5.0-1.0-2.2","1","1","2j59k9r7vd8ebn5","","null","","","","null","","","","","","","","","","","","","","","",""
"audio-keyboard-response","181","400509","0.0-5.0-1.0-3.2","1","1","2j59k9r7vd8ebn5","","null","","sounds/sentences/right/14_08_cfSWS.wav","","null","","","","","","","","","","","","","","","",""
"html-keyboard-response","182","401510","0.0-5.0-1.0-4.2","1","1","2j59k9r7vd8ebn5","","null","","","","null","","","","","","","","","","","","","","","",""
"html-button-response","183","402979","0.0-5.0-1.0-5.2","1","1","2j59k9r7vd8ebn5","","969","","<p>Press the button below when you are ready to continue.</p>","0","","","","","","","","","","","","","","","","",""
"audio-keyboard-response","184","405706","0.0-5.0-1.0-0.3","1","1","2j59k9r7vd8ebn5","","null","","sounds/sentences/right/14_09_cfSWS.wav","","null","","","","","","","","","","","","","","","",""
"sentence-resp","185","421987","0.0-5.0-1.0-1.3","1","1","2j59k9r7vd8ebn5","","16281","","","","","","","SWS-SENT-RESPONSE","","","{""Q0"":""clothes are often worn in winter ""}","We frown when events take a bad turn.","frown,events,take,bad,turn","CLOTHES ARE OFTEN WORN IN WINTER ","0","0","0","0","0","0","0"
"html-keyboard-response","186","423238","0.0-5.0-1.0-2.3","1","1","2j59k9r7vd8ebn5","","null","","","","null","","","","","","","","","","","","","","","",""
"audio-keyboard-response","187","425465","0.0-5.0-1.0-3.3","1","1","2j59k9r7vd8ebn5","","null","","sounds/sentences/right/14_09_cfSWS.wav","","null","","","","","","","","","","","","","","","",""
"html-keyboard-response","188","426466","0.0-5.0-1.0-4.3","1","1","2j59k9r7vd8ebn5","","null","","","","null","","","","","","","","","","","","","","","",""
"html-button-response","189","428478","0.0-5.0-1.0-5.3","1","1","2j59k9r7vd8ebn5","","1510.0000000000582","","<p>Press the button below when you are ready to continue.</p>","0","","","","","","","","","","","","","","","","",""
"audio-keyboard-response","190","431491","0.0-5.0-1.0-0.4","1","1","2j59k9r7vd8ebn5","","null","","sounds/sentences/right/14_10_cfSWS.wav","","null","","","","","","","","","","","","","","","",""
"sentence-resp","191","443954","0.0-5.0-1.0-1.4","1","1","2j59k9r7vd8ebn5","","12461","","","","","","","SWS-SENT-RESPONSE","","","{""Q0"":""I went for a walk but it was very cold ""}","Port is a strong wine with a smoky taste.","port,strong,wine,smoky,taste","I WENT FOR A WALK BUT IT WAS VERY COLD ","0","0","0","0","0","0","0"
"html-keyboard-response","192","445207","0.0-5.0-1.0-2.4","1","1","2j59k9r7vd8ebn5","","null","","","","null","","","","","","","","","","","","","","","",""
"audio-keyboard-response","193","447720","0.0-5.0-1.0-3.4","1","1","2j59k9r7vd8ebn5","","null","","sounds/sentences/right/14_10_cfSWS.wav","","null","","","","","","","","","","","","","","","",""
"html-keyboard-response","194","448722","0.0-5.0-1.0-4.4","1","1","2j59k9r7vd8ebn5","","null","","","","null","","","","","","","","","","","","","","","",""
"html-button-response","195","450087","0.0-5.0-1.0-5.4","1","1","2j59k9r7vd8ebn5","","863","","<p>Press the button below when you are ready to continue.</p>","0","","","","","","","","","","","","","","","","",""
"audio-keyboard-response","196","452639","0.0-5.0-1.0-0.5","1","1","2j59k9r7vd8ebn5","","null","","sounds/sentences/left/14_04_cfSWS.wav","","null","","","","","","","","","","","","","","","",""
"sentence-resp","197","474472","0.0-5.0-1.0-1.5","1","1","2j59k9r7vd8ebn5","","21832","","","","","","","SWS-SENT-RESPONSE","","","{""Q0"":""I want to see a movie tonight at the theatre ""}","Two plus seven is less than ten.","two,plus,seven,less,ten","I WANT TO SEE A MOVIE TONIGHT AT THE THEATRE ","0","0","0","0","0","0","0"
"html-keyboard-response","198","475723","0.0-5.0-1.0-2.5","1","1","2j59k9r7vd8ebn5","","null","","","","null","","","","","","","","","","","","","","","",""
"audio-keyboard-response","199","477777","0.0-5.0-1.0-3.5","1","1","2j59k9r7vd8ebn5","","null","","sounds/sentences/left/14_04_cfSWS.wav","","null","","","","","","","","","","","","","","","",""
"html-keyboard-response","200","478779","0.0-5.0-1.0-4.5","1","1","2j59k9r7vd8ebn5","","null","","","","null","","","","","","","","","","","","","","","",""
"html-button-response","201","480514","0.0-5.0-1.0-5.5","1","1","2j59k9r7vd8ebn5","","1234","","<p>Press the button below when you are ready to continue.</p>","0","","","","","","","","","","","","","","","","",""
"audio-keyboard-response","202","483257","0.0-5.0-1.0-0.6","1","1","2j59k9r7vd8ebn5","","null","","sounds/sentences/right/14_06_cfSWS.wav","","null","","","","","","","","","","","","","","","",""
"sentence-resp","203","493618","0.0-5.0-1.0-1.6","1","1","2j59k9r7vd8ebn5","","10361","","","","","","","SWS-SENT-RESPONSE","","","{""Q0"":""I am a friendly human being ""}","Bring your problems to the wise chief.","bring,your,problems,wise,chief","I AM A FRIENDLY HUMAN BEING ","0","0","0","0","0","0","0"
"html-keyboard-response","204","494871","0.0-5.0-1.0-2.6","1","1","2j59k9r7vd8ebn5","","null","","","","null","","","","","","","","","","","","","","","",""
"audio-keyboard-response","205","497112","0.0-5.0-1.0-3.6","1","1","2j59k9r7vd8ebn5","","null","","sounds/sentences/right/14_06_cfSWS.wav","","null","","","","","","","","","","","","","","","",""
"html-keyboard-response","206","498114","0.0-5.0-1.0-4.6","1","1","2j59k9r7vd8ebn5","","null","","","","null","","","","","","","","","","","","","","","",""
"html-button-response","207","499886","0.0-5.0-1.0-5.6","1","1","2j59k9r7vd8ebn5","","1272","","<p>Press the button below when you are ready to continue.</p>","0","","","","","","","","","","","","","","","","",""
"audio-keyboard-response","208","502469","0.0-5.0-1.0-0.7","1","1","2j59k9r7vd8ebn5","","null","","sounds/sentences/left/14_03_cfSWS.wav","","null","","","","","","","","","","","","","","","",""
"sentence-resp","209","510562","0.0-5.0-1.0-1.7","1","1","2j59k9r7vd8ebn5","","8091","","","","","","","SWS-SENT-RESPONSE","","","{""Q0"":""do you like to talk to me ""}","Pluck the bright rose without leaves.","pluck,bright,rose,without,leaves","DO YOU LIKE TO TALK TO ME ","0","0","0","0","0","0","0"
"html-keyboard-response","210","511814","0.0-5.0-1.0-2.7","1","1","2j59k9r7vd8ebn5","","null","","","","null","","","","","","","","","","","","","","","",""
"audio-keyboard-response","211","513895","0.0-5.0-1.0-3.7","1","1","2j59k9r7vd8ebn5","","null","","sounds/sentences/left/14_03_cfSWS.wav","","null","","","","","","","","","","","","","","","",""
"html-keyboard-response","212","514897","0.0-5.0-1.0-4.7","1","1","2j59k9r7vd8ebn5","","null","","","","null","","","","","","","","","","","","","","","",""
"html-button-response","213","516386","0.0-5.0-1.0-5.7","1","1","2j59k9r7vd8ebn5","","987.9999999999418","","<p>Press the button below when you are ready to continue.</p>","0","","","","","","","","","","","","","","","","",""
"audio-keyboard-response","214","519375","0.0-5.0-1.0-0.8","1","1","2j59k9r7vd8ebn5","","null","","sounds/sentences/left/14_05_cfSWS.wav","","null","","","","","","","","","","","","","","","",""
"sentence-resp","215","539800","0.0-5.0-1.0-1.8","1","1","2j59k9r7vd8ebn5","","20425","","","","","","","SWS-SENT-RESPONSE","","","{""Q0"":""I like to stroll past the park with the bright leaves ""}","The glow deepened in the eyes of the sweet girl.","glow,deepened,eyes,sweet,girl","I LIKE TO STROLL PAST THE PARK WITH THE BRIGHT LEAVES ","0","0","0","0","0","0","0"
"html-keyboard-response","216","541052","0.0-5.0-1.0-2.8","1","1","2j59k9r7vd8ebn5","","null","","","","null","","","","","","","","","","","","","","","",""
"audio-keyboard-response","217","543539","0.0-5.0-1.0-3.8","1","1","2j59k9r7vd8ebn5","","null","","sounds/sentences/left/14_05_cfSWS.wav","","null","","","","","","","","","","","","","","","",""
"html-keyboard-response","218","544541","0.0-5.0-1.0-4.8","1","1","2j59k9r7vd8ebn5","","null","","","","null","","","","","","","","","","","","","","","",""
"html-button-response","219","546315","0.0-5.0-1.0-5.8","1","1","2j59k9r7vd8ebn5","","1272","","<p>Press the button below when you are ready to continue.</p>","0","","","","","","","","","","","","","","","","",""
"audio-keyboard-response","220","549432","0.0-5.0-1.0-0.9","1","1","2j59k9r7vd8ebn5","","null","","sounds/sentences/left/14_01_cfSWS.wav","","null","","","","","","","","","","","","","","","",""
"sentence-resp","221","561345","0.0-5.0-1.0-1.9","1","1","2j59k9r7vd8ebn5","","11911","","","","","","","SWS-SENT-RESPONSE","","","{""Q0"":""it is time to go to the cornerstore""}","A cramp is no small danger on a swim.","cramp,no,small,danger,swim","IT IS TIME TO GO TO THE CORNERSTORE","0","0","0","0","0","0","0"
"html-keyboard-response","222","562597","0.0-5.0-1.0-2.9","1","1","2j59k9r7vd8ebn5","","null","","","","null","","","","","","","","","","","","","","","",""
"audio-keyboard-response","223","565213","0.0-5.0-1.0-3.9","1","1","2j59k9r7vd8ebn5","","null","","sounds/sentences/left/14_01_cfSWS.wav","","null","","","","","","","","","","","","","","","",""
"html-keyboard-response","224","566214","0.0-5.0-1.0-4.9","1","1","2j59k9r7vd8ebn5","","null","","","","null","","","","","","","","","","","","","","","",""
"html-button-response","225","567840","0.0-5.0-1.0-5.9","1","1","2j59k9r7vd8ebn5","","1126","","<p>Press the button below when you are ready to continue.</p>","0","","","","","","","","","","","","","","","","",""
"html-keyboard-response","226","588907","0.0-6.0-0.0","1","1","2j59k9r7vd8ebn5","","20567","","<p>In this part of the study, you will hear sounds similar to those you just heard.</p><p>Please focus on these sounds, as you may be asked questions about them later.</p><p>Occasionally, the sounds will pause for up to two seconds. When this happens, please press SPACEBAR as quickly as you can.</br>This helps ensure that you are paying attention to the sounds.</p><p>This part of the study will take about 12 minutes to complete, and you will be given the opportunity to take a couple of short breaks every few minutes.</p><p><strong>Press SPACEBAR to begin</strong></p>","","32","","","","","","","","","","","","","","","",""
"html-keyboard-response","227","589908","0.0-6.0-1.0-0.0","1","1","2j59k9r7vd8ebn5","","null","","<p style=""font-size: 40px;"">+</p>","","null","","","","","","","","","","","","","","","",""
