"trial_type","trial_index","time_elapsed","internal_node_id","counterbalance","lang_instruct","ParticipantID","view_history","rt","url","stimulus","button_pressed","key_press","correctRESP","correct","designation","location","correctanswer","timeouts","pause_rt01","pause_rt02","train_file","numKeyPress","sound","fam_type","SYLLABLE","EXEMPLAR","TD_LOCS","TD_TYPE","TDLOC_01","TDLOC_02","TDLOC_03","TDLOC_04","TD_RT_01","TD_RT_02","TD_RT_03","TD_RT_04","TD_SUBJ_RTs","number_of_plays","responses","slider_start","response","question_order","syllable","syllable_type"
"pavlovia","0","5","0.0-0.0","2","0","8tyzz0ck534y7ud","","","","","","","","","","","","","","","","","","","","","","","","","","","","","","","","","","","","","",""
"instructions","1","13733","0.0-1.0","2","0","8tyzz0ck534y7ud","[{""page_index"":0,""viewing_time"":3399.9000000953674},{""page_index"":1,""viewing_time"":10324.299999713898}]","13727","","","","","","","","","","","","","","","","","","","","","","","","","","","","","","","","","","","",""
"external-html","2","21145","0.0-2.0","2","0","8tyzz0ck534y7ud","","7078.400000095367","consent/consent.html","","","","","","","","","","","","","","","","","","","","","","","","","","","","","","","","","","",""
"html-button-response","3","22401","0.0-3.0-0.0-0.0","2","0","8tyzz0ck534y7ud","","1253.1999998092651","","<p>Welcome to the study. You will first complete a short volume calibration and headphone check.</p><p>Please make sure you are in a quiet listening environment, that you are wearing headphones, and that your computer's volume is turned on.<p></p>","0","","","","","","","","","","","","","","","","","","","","","","","","","","","","","","","","",""
"html-button-response","4","27953","0.0-3.0-0.0-1.0","2","0","8tyzz0ck534y7ud","","5298.900000095367","","<p>The volume calibration will be first.</p><p>You will hear a thirty-second noise. Please adjust your computer's volume so that this noise is being presented at a comfortable level.<p></p>","0","","","","","","","","","","","","","","","","","","","","","","","","","","","","","","","","",""
"audio-button-response","5","40819","0.0-3.0-0.0-2.0","2","0","8tyzz0ck534y7ud","","12381","","audCalib/volumetest.mp3","0","","","","","","","","","","","","","","","","","","","","","","","","","","","","","","","","",""
"html-button-response","6","48526","0.0-3.0-1.0-0.0","2","0","8tyzz0ck534y7ud","","7705.699999809265","","<p>You will now complete a short headphone check.</p><p>On each trial, you will hear three tones. One of these tones will be quieter than the others. Your task is to identify whether the quiet tone occured first, second, or third.</p><p>There are six trials in total.<p></p>","0","","","","","","","","","","","","","","","","","","","","","","","","","","","","","","","","",""
"html-keyboard-response","7","49281","0.0-3.0-1.0-1.0-0.0","2","0","8tyzz0ck534y7ud","","null","","<div style=""font-size:60px;"">+</div>","","null","","","","","","","","","","","","","","","","","","","","","","","","","","","","","","","",""
"audio-button-response","8","55736","0.0-3.0-1.0-1.0-1.0","2","0","8tyzz0ck534y7ud","","6451","","audCalib/t3_2.mp3","2","","2","1","headphone-test","","","","","","","","","","","","","","","","","","","","","","","","","","","","",""
"html-keyboard-response","9","56490","0.0-3.0-1.0-1.0-0.1","2","0","8tyzz0ck534y7ud","","null","","<div style=""font-size:60px;"">+</div>","","null","","","","","","","","","","","","","","","","","","","","","","","","","","","","","","","",""
"audio-button-response","10","61621","0.0-3.0-1.0-1.0-1.1","2","0","8tyzz0ck534y7ud","","5131","","audCalib/t1_2.mp3","0","","0","1","headphone-test","","","","","","","","","","","","","","","","","","","","","","","","","","","","",""
"html-keyboard-response","11","62374","0.0-3.0-1.0-1.0-0.2","2","0","8tyzz0ck534y7ud","","null","","<div style=""font-size:60px;"">+</div>","","null","","","","","","","","","","","","","","","","","","","","","","","","","","","","","","","",""
"audio-button-response","12","72613","0.0-3.0-1.0-1.0-1.2","2","0","8tyzz0ck534y7ud","","10229","","audCalib/t2_2.mp3","0","","1","0","headphone-test","","","","","","","","","","","","","","","","","","","","","","","","","","","","",""
"html-keyboard-response","13","73366","0.0-3.0-1.0-1.0-0.3","2","0","8tyzz0ck534y7ud","","null","","<div style=""font-size:60px;"">+</div>","","null","","","","","","","","","","","","","","","","","","","","","","","","","","","","","","","",""
"audio-button-response","14","77671","0.0-3.0-1.0-1.0-1.3","2","0","8tyzz0ck534y7ud","","4299","","audCalib/t2_1.mp3","1","","1","1","headphone-test","","","","","","","","","","","","","","","","","","","","","","","","","","","","",""
"html-keyboard-response","15","78423","0.0-3.0-1.0-1.0-0.4","2","0","8tyzz0ck534y7ud","","null","","<div style=""font-size:60px;"">+</div>","","null","","","","","","","","","","","","","","","","","","","","","","","","","","","","","","","",""
"audio-button-response","16","82427","0.0-3.0-1.0-1.0-1.4","2","0","8tyzz0ck534y7ud","","4000","","audCalib/t1_1.mp3","0","","0","1","headphone-test","","","","","","","","","","","","","","","","","","","","","","","","","","","","",""
"html-keyboard-response","17","83181","0.0-3.0-1.0-1.0-0.5","2","0","8tyzz0ck534y7ud","","null","","<div style=""font-size:60px;"">+</div>","","null","","","","","","","","","","","","","","","","","","","","","","","","","","","","","","","",""
"audio-button-response","18","87505","0.0-3.0-1.0-1.0-1.5","2","0","8tyzz0ck534y7ud","","4328","","audCalib/t3_1.mp3","2","","2","1","headphone-test","","","","","","","","","","","","","","","","","","","","","","","","","","","","",""
"html-button-response","19","90256","0.0-3.0-2.0","2","0","8tyzz0ck534y7ud","","2498.5999999046326","","<p>The volume calibration and headphone check are now complete.</p>","0","","","","","","","","","","","","","","","","","","","","","","","","","","","","","","","","",""
"instructions","20","108986","0.0-4.0-0.0","2","0","8tyzz0ck534y7ud","[{""page_index"":0,""viewing_time"":3723.800000190735},{""page_index"":1,""viewing_time"":12677},{""page_index"":2,""viewing_time"":2329}]","18730.199999809265","","","","","","","","","","","","","","","","","","","","","","","","","","","","","","","","","","","",""
"audio-keyboard-response","21","109283","0.0-4.0-1.0-0.0","2","0","8tyzz0ck534y7ud","","null","","sounds/induction/right_rev/pu_SWS.wav","","null","","","","","","","","","","","","","","","","","","","","","","","","","","","","","","","",""
"html-button-response","22","111717","0.0-4.0-1.0-1.0","2","0","8tyzz0ck534y7ud","","2432.5999999046326","","Was the sound coming from the left or the right?","1","","","1","INDUCTION-JUDGMENT","right","1","","","","","","","","","","","","","","","","","","","","","","","","","","",""
"html-keyboard-response","23","112719","0.0-4.0-1.0-2.0","2","0","8tyzz0ck534y7ud","","null","","<p style=""color:#054d00;""><b>Correct!</b></p>","","null","","","","","","","","","","","","","","","","","","","","","","","","","","","","","","","",""
"audio-keyboard-response","24","113523","0.0-4.0-1.0-0.1","2","0","8tyzz0ck534y7ud","","null","","sounds/induction/left_rev/me_SWS.wav","","null","","","","","","","","","","","","","","","","","","","","","","","","","","","","","","","",""
"html-button-response","25","114572","0.0-4.0-1.0-1.1","2","0","8tyzz0ck534y7ud","","1047.5999999046326","","Was the sound coming from the left or the right?","0","","","1","INDUCTION-JUDGMENT","left","0","","","","","","","","","","","","","","","","","","","","","","","","","","",""
"html-keyboard-response","26","115573","0.0-4.0-1.0-2.1","2","0","8tyzz0ck534y7ud","","null","","<p style=""color:#054d00;""><b>Correct!</b></p>","","null","","","","","","","","","","","","","","","","","","","","","","","","","","","","","","","",""
"audio-keyboard-response","27","116373","0.0-4.0-1.0-0.2","2","0","8tyzz0ck534y7ud","","null","","sounds/induction/right_rev/ta_SWS.wav","","null","","","","","","","","","","","","","","","","","","","","","","","","","","","","","","","",""
"html-button-response","28","117507","0.0-4.0-1.0-1.2","2","0","8tyzz0ck534y7ud","","1132.5999999046326","","Was the sound coming from the left or the right?","1","","","1","INDUCTION-JUDGMENT","right","1","","","","","","","","","","","","","","","","","","","","","","","","","","",""
"html-keyboard-response","29","118508","0.0-4.0-1.0-2.2","2","0","8tyzz0ck534y7ud","","null","","<p style=""color:#054d00;""><b>Correct!</b></p>","","null","","","","","","","","","","","","","","","","","","","","","","","","","","","","","","","",""
"audio-keyboard-response","30","119314","0.0-4.0-1.0-0.3","2","0","8tyzz0ck534y7ud","","null","","sounds/induction/right_rev/su_SWS.wav","","null","","","","","","","","","","","","","","","","","","","","","","","","","","","","","","","",""
"html-button-response","31","120371","0.0-4.0-1.0-1.3","2","0","8tyzz0ck534y7ud","","1056","","Was the sound coming from the left or the right?","1","","","1","INDUCTION-JUDGMENT","right","1","","","","","","","","","","","","","","","","","","","","","","","","","","",""
"html-keyboard-response","32","121376","0.0-4.0-1.0-2.3","2","0","8tyzz0ck534y7ud","","null","","<p style=""color:#054d00;""><b>Correct!</b></p>","","null","","","","","","","","","","","","","","","","","","","","","","","","","","","","","","","",""
"audio-keyboard-response","33","122174","0.0-4.0-1.0-0.4","2","0","8tyzz0ck534y7ud","","null","","sounds/induction/left_rev/fu_SWS.wav","","null","","","","","","","","","","","","","","","","","","","","","","","","","","","","","","","",""
"html-button-response","34","123229","0.0-4.0-1.0-1.4","2","0","8tyzz0ck534y7ud","","1054.3000001907349","","Was the sound coming from the left or the right?","0","","","1","INDUCTION-JUDGMENT","left","0","","","","","","","","","","","","","","","","","","","","","","","","","","",""
"html-keyboard-response","35","124231","0.0-4.0-1.0-2.4","2","0","8tyzz0ck534y7ud","","null","","<p style=""color:#054d00;""><b>Correct!</b></p>","","null","","","","","","","","","","","","","","","","","","","","","","","","","","","","","","","",""
"audio-keyboard-response","36","125033","0.0-4.0-1.0-0.5","2","0","8tyzz0ck534y7ud","","null","","sounds/induction/right_rev/fe_SWS.wav","","null","","","","","","","","","","","","","","","","","","","","","","","","","","","","","","","",""
"html-button-response","37","125778","0.0-4.0-1.0-1.5","2","0","8tyzz0ck534y7ud","","744.2999997138977","","Was the sound coming from the left or the right?","1","","","1","INDUCTION-JUDGMENT","right","1","","","","","","","","","","","","","","","","","","","","","","","","","","",""
"html-keyboard-response","38","126781","0.0-4.0-1.0-2.5","2","0","8tyzz0ck534y7ud","","null","","<p style=""color:#054d00;""><b>Correct!</b></p>","","null","","","","","","","","","","","","","","","","","","","","","","","","","","","","","","","",""
"audio-keyboard-response","39","127573","0.0-4.0-1.0-0.6","2","0","8tyzz0ck534y7ud","","null","","sounds/induction/right_rev/re_SWS.wav","","null","","","","","","","","","","","","","","","","","","","","","","","","","","","","","","","",""
"html-button-response","40","128550","0.0-4.0-1.0-1.6","2","0","8tyzz0ck534y7ud","","975.8000001907349","","Was the sound coming from the left or the right?","1","","","1","INDUCTION-JUDGMENT","right","1","","","","","","","","","","","","","","","","","","","","","","","","","","",""
"html-keyboard-response","41","129554","0.0-4.0-1.0-2.6","2","0","8tyzz0ck534y7ud","","null","","<p style=""color:#054d00;""><b>Correct!</b></p>","","null","","","","","","","","","","","","","","","","","","","","","","","","","","","","","","","",""
"audio-keyboard-response","42","130363","0.0-4.0-1.0-0.7","2","0","8tyzz0ck534y7ud","","null","","sounds/induction/left_rev/re_SWS.wav","","null","","","","","","","","","","","","","","","","","","","","","","","","","","","","","","","",""
"html-button-response","43","130845","0.0-4.0-1.0-1.7","2","0","8tyzz0ck534y7ud","","480.2000002861023","","Was the sound coming from the left or the right?","0","","","1","INDUCTION-JUDGMENT","left","0","","","","","","","","","","","","","","","","","","","","","","","","","","",""
"html-keyboard-response","44","131846","0.0-4.0-1.0-2.7","2","0","8tyzz0ck534y7ud","","null","","<p style=""color:#054d00;""><b>Correct!</b></p>","","null","","","","","","","","","","","","","","","","","","","","","","","","","","","","","","","",""
"audio-keyboard-response","45","132644","0.0-4.0-1.0-0.8","2","0","8tyzz0ck534y7ud","","null","","sounds/induction/left_rev/ge_SWS.wav","","null","","","","","","","","","","","","","","","","","","","","","","","","","","","","","","","",""
"html-button-response","46","133293","0.0-4.0-1.0-1.8","2","0","8tyzz0ck534y7ud","","647.5","","Was the sound coming from the left or the right?","0","","","1","INDUCTION-JUDGMENT","left","0","","","","","","","","","","","","","","","","","","","","","","","","","","",""
"html-keyboard-response","47","134295","0.0-4.0-1.0-2.8","2","0","8tyzz0ck534y7ud","","null","","<p style=""color:#054d00;""><b>Correct!</b></p>","","null","","","","","","","","","","","","","","","","","","","","","","","","","","","","","","","",""
"audio-keyboard-response","48","135094","0.0-4.0-1.0-0.9","2","0","8tyzz0ck534y7ud","","null","","sounds/induction/right_rev/ta_SWS.wav","","null","","","","","","","","","","","","","","","","","","","","","","","","","","","","","","","",""
"html-button-response","49","136436","0.0-4.0-1.0-1.9","2","0","8tyzz0ck534y7ud","","1341.2000002861023","","Was the sound coming from the left or the right?","1","","","1","INDUCTION-JUDGMENT","right","1","","","","","","","","","","","","","","","","","","","","","","","","","","",""
"html-keyboard-response","50","137438","0.0-4.0-1.0-2.9","2","0","8tyzz0ck534y7ud","","null","","<p style=""color:#054d00;""><b>Correct!</b></p>","","null","","","","","","","","","","","","","","","","","","","","","","","","","","","","","","","",""
"audio-keyboard-response","51","138243","0.0-4.0-1.0-0.10","2","0","8tyzz0ck534y7ud","","null","","sounds/induction/right_rev/ru_SWS.wav","","null","","","","","","","","","","","","","","","","","","","","","","","","","","","","","","","",""
"html-button-response","52","138971","0.0-4.0-1.0-1.10","2","0","8tyzz0ck534y7ud","","726.3999996185303","","Was the sound coming from the left or the right?","1","","","1","INDUCTION-JUDGMENT","right","1","","","","","","","","","","","","","","","","","","","","","","","","","","",""
"html-keyboard-response","53","139974","0.0-4.0-1.0-2.10","2","0","8tyzz0ck534y7ud","","null","","<p style=""color:#054d00;""><b>Correct!</b></p>","","null","","","","","","","","","","","","","","","","","","","","","","","","","","","","","","","",""
"audio-keyboard-response","54","140773","0.0-4.0-1.0-0.11","2","0","8tyzz0ck534y7ud","","null","","sounds/induction/right_rev/su_SWS.wav","","null","","","","","","","","","","","","","","","","","","","","","","","","","","","","","","","",""
"html-button-response","55","141509","0.0-4.0-1.0-1.11","2","0","8tyzz0ck534y7ud","","734.6999998092651","","Was the sound coming from the left or the right?","1","","","1","INDUCTION-JUDGMENT","right","1","","","","","","","","","","","","","","","","","","","","","","","","","","",""
"html-keyboard-response","56","142512","0.0-4.0-1.0-2.11","2","0","8tyzz0ck534y7ud","","null","","<p style=""color:#054d00;""><b>Correct!</b></p>","","null","","","","","","","","","","","","","","","","","","","","","","","","","","","","","","","",""
"audio-keyboard-response","57","143314","0.0-4.0-1.0-0.12","2","0","8tyzz0ck534y7ud","","null","","sounds/induction/right_rev/ru_SWS.wav","","null","","","","","","","","","","","","","","","","","","","","","","","","","","","","","","","",""
"html-button-response","58","143968","0.0-4.0-1.0-1.12","2","0","8tyzz0ck534y7ud","","653.1000003814697","","Was the sound coming from the left or the right?","1","","","1","INDUCTION-JUDGMENT","right","1","","","","","","","","","","","","","","","","","","","","","","","","","","",""
"html-keyboard-response","59","144970","0.0-4.0-1.0-2.12","2","0","8tyzz0ck534y7ud","","null","","<p style=""color:#054d00;""><b>Correct!</b></p>","","null","","","","","","","","","","","","","","","","","","","","","","","","","","","","","","","",""
"audio-keyboard-response","60","145763","0.0-4.0-1.0-0.13","2","0","8tyzz0ck534y7ud","","null","","sounds/induction/left_rev/ko_SWS.wav","","null","","","","","","","","","","","","","","","","","","","","","","","","","","","","","","","",""
"html-button-response","61","146293","0.0-4.0-1.0-1.13","2","0","8tyzz0ck534y7ud","","528.2999997138977","","Was the sound coming from the left or the right?","0","","","1","INDUCTION-JUDGMENT","left","0","","","","","","","","","","","","","","","","","","","","","","","","","","",""
"html-keyboard-response","62","147296","0.0-4.0-1.0-2.13","2","0","8tyzz0ck534y7ud","","null","","<p style=""color:#054d00;""><b>Correct!</b></p>","","null","","","","","","","","","","","","","","","","","","","","","","","","","","","","","","","",""
"audio-keyboard-response","63","148094","0.0-4.0-1.0-0.14","2","0","8tyzz0ck534y7ud","","null","","sounds/induction/left_rev/re_SWS.wav","","null","","","","","","","","","","","","","","","","","","","","","","","","","","","","","","","",""
"html-button-response","64","148611","0.0-4.0-1.0-1.14","2","0","8tyzz0ck534y7ud","","516.2000002861023","","Was the sound coming from the left or the right?","0","","","1","INDUCTION-JUDGMENT","left","0","","","","","","","","","","","","","","","","","","","","","","","","","","",""
"html-keyboard-response","65","149613","0.0-4.0-1.0-2.14","2","0","8tyzz0ck534y7ud","","null","","<p style=""color:#054d00;""><b>Correct!</b></p>","","null","","","","","","","","","","","","","","","","","","","","","","","","","","","","","","","",""
"audio-keyboard-response","66","150414","0.0-4.0-1.0-0.15","2","0","8tyzz0ck534y7ud","","null","","sounds/induction/left_rev/ti_SWS.wav","","null","","","","","","","","","","","","","","","","","","","","","","","","","","","","","","","",""
"html-button-response","67","150935","0.0-4.0-1.0-1.15","2","0","8tyzz0ck534y7ud","","520.2000002861023","","Was the sound coming from the left or the right?","0","","","1","INDUCTION-JUDGMENT","left","0","","","","","","","","","","","","","","","","","","","","","","","","","","",""
"html-keyboard-response","68","151938","0.0-4.0-1.0-2.15","2","0","8tyzz0ck534y7ud","","null","","<p style=""color:#054d00;""><b>Correct!</b></p>","","null","","","","","","","","","","","","","","","","","","","","","","","","","","","","","","","",""
"audio-keyboard-response","69","152733","0.0-4.0-1.0-0.16","2","0","8tyzz0ck534y7ud","","null","","sounds/induction/left_rev/ta_SWS.wav","","null","","","","","","","","","","","","","","","","","","","","","","","","","","","","","","","",""
"html-button-response","70","153846","0.0-4.0-1.0-1.16","2","0","8tyzz0ck534y7ud","","1107.5","","Was the sound coming from the left or the right?","0","","","1","INDUCTION-JUDGMENT","left","0","","","","","","","","","","","","","","","","","","","","","","","","","","",""
"html-keyboard-response","71","154849","0.0-4.0-1.0-2.16","2","0","8tyzz0ck534y7ud","","null","","<p style=""color:#054d00;""><b>Correct!</b></p>","","null","","","","","","","","","","","","","","","","","","","","","","","","","","","","","","","",""
"audio-keyboard-response","72","155643","0.0-4.0-1.0-0.17","2","0","8tyzz0ck534y7ud","","null","","sounds/induction/right_rev/ge_SWS.wav","","null","","","","","","","","","","","","","","","","","","","","","","","","","","","","","","","",""
"html-button-response","73","156199","0.0-4.0-1.0-1.17","2","0","8tyzz0ck534y7ud","","553.9000000953674","","Was the sound coming from the left or the right?","1","","","1","INDUCTION-JUDGMENT","right","1","","","","","","","","","","","","","","","","","","","","","","","","","","",""
"html-keyboard-response","74","157202","0.0-4.0-1.0-2.17","2","0","8tyzz0ck534y7ud","","null","","<p style=""color:#054d00;""><b>Correct!</b></p>","","null","","","","","","","","","","","","","","","","","","","","","","","","","","","","","","","",""
"audio-keyboard-response","75","158003","0.0-4.0-1.0-0.18","2","0","8tyzz0ck534y7ud","","null","","sounds/induction/right_rev/ni_SWS.wav","","null","","","","","","","","","","","","","","","","","","","","","","","","","","","","","","","",""
"html-button-response","76","158604","0.0-4.0-1.0-1.18","2","0","8tyzz0ck534y7ud","","600","","Was the sound coming from the left or the right?","1","","","1","INDUCTION-JUDGMENT","right","1","","","","","","","","","","","","","","","","","","","","","","","","","","",""
"html-keyboard-response","77","159605","0.0-4.0-1.0-2.18","2","0","8tyzz0ck534y7ud","","null","","<p style=""color:#054d00;""><b>Correct!</b></p>","","null","","","","","","","","","","","","","","","","","","","","","","","","","","","","","","","",""
"audio-keyboard-response","78","160403","0.0-4.0-1.0-0.19","2","0","8tyzz0ck534y7ud","","null","","sounds/induction/right_rev/ti_SWS.wav","","null","","","","","","","","","","","","","","","","","","","","","","","","","","","","","","","",""
"html-button-response","79","161687","0.0-4.0-1.0-1.19","2","0","8tyzz0ck534y7ud","","1282.8000001907349","","Was the sound coming from the left or the right?","1","","","1","INDUCTION-JUDGMENT","right","1","","","","","","","","","","","","","","","","","","","","","","","","","","",""
"html-keyboard-response","80","162689","0.0-4.0-1.0-2.19","2","0","8tyzz0ck534y7ud","","null","","<p style=""color:#054d00;""><b>Correct!</b></p>","","null","","","","","","","","","","","","","","","","","","","","","","","","","","","","","","","",""
"audio-keyboard-response","81","163484","0.0-4.0-1.0-0.20","2","0","8tyzz0ck534y7ud","","null","","sounds/induction/right_rev/me_SWS.wav","","null","","","","","","","","","","","","","","","","","","","","","","","","","","","","","","","",""
"html-button-response","82","164113","0.0-4.0-1.0-1.20","2","0","8tyzz0ck534y7ud","","628.3000001907349","","Was the sound coming from the left or the right?","1","","","1","INDUCTION-JUDGMENT","right","1","","","","","","","","","","","","","","","","","","","","","","","","","","",""
"html-keyboard-response","83","165116","0.0-4.0-1.0-2.20","2","0","8tyzz0ck534y7ud","","null","","<p style=""color:#054d00;""><b>Correct!</b></p>","","null","","","","","","","","","","","","","","","","","","","","","","","","","","","","","","","",""
"audio-keyboard-response","84","165925","0.0-4.0-1.0-0.21","2","0","8tyzz0ck534y7ud","","null","","sounds/induction/right_rev/ti_SWS.wav","","null","","","","","","","","","","","","","","","","","","","","","","","","","","","","","","","",""
"html-button-response","85","166575","0.0-4.0-1.0-1.21","2","0","8tyzz0ck534y7ud","","649.3000001907349","","Was the sound coming from the left or the right?","1","","","1","INDUCTION-JUDGMENT","right","1","","","","","","","","","","","","","","","","","","","","","","","","","","",""
"html-keyboard-response","86","167578","0.0-4.0-1.0-2.21","2","0","8tyzz0ck534y7ud","","null","","<p style=""color:#054d00;""><b>Correct!</b></p>","","null","","","","","","","","","","","","","","","","","","","","","","","","","","","","","","","",""
"audio-keyboard-response","87","168374","0.0-4.0-1.0-0.22","2","0","8tyzz0ck534y7ud","","null","","sounds/induction/right_rev/ni_SWS.wav","","null","","","","","","","","","","","","","","","","","","","","","","","","","","","","","","","",""
"html-button-response","88","168931","0.0-4.0-1.0-1.22","2","0","8tyzz0ck534y7ud","","554.4000000953674","","Was the sound coming from the left or the right?","1","","","1","INDUCTION-JUDGMENT","right","1","","","","","","","","","","","","","","","","","","","","","","","","","","",""
"html-keyboard-response","89","169934","0.0-4.0-1.0-2.22","2","0","8tyzz0ck534y7ud","","null","","<p style=""color:#054d00;""><b>Correct!</b></p>","","null","","","","","","","","","","","","","","","","","","","","","","","","","","","","","","","",""
"audio-keyboard-response","90","170735","0.0-4.0-1.0-0.23","2","0","8tyzz0ck534y7ud","","null","","sounds/induction/right_rev/ge_SWS.wav","","null","","","","","","","","","","","","","","","","","","","","","","","","","","","","","","","",""
"html-button-response","91","171324","0.0-4.0-1.0-1.23","2","0","8tyzz0ck534y7ud","","588","","Was the sound coming from the left or the right?","1","","","1","INDUCTION-JUDGMENT","right","1","","","","","","","","","","","","","","","","","","","","","","","","","","",""
"html-keyboard-response","92","172326","0.0-4.0-1.0-2.23","2","0","8tyzz0ck534y7ud","","null","","<p style=""color:#054d00;""><b>Correct!</b></p>","","null","","","","","","","","","","","","","","","","","","","","","","","","","","","","","","","",""
"audio-keyboard-response","93","173124","0.0-4.0-1.0-0.24","2","0","8tyzz0ck534y7ud","","null","","sounds/induction/right_rev/ko_SWS.wav","","null","","","","","","","","","","","","","","","","","","","","","","","","","","","","","","","",""
"html-button-response","94","173735","0.0-4.0-1.0-1.24","2","0","8tyzz0ck534y7ud","","609.5","","Was the sound coming from the left or the right?","1","","","1","INDUCTION-JUDGMENT","right","1","","","","","","","","","","","","","","","","","","","","","","","","","","",""
"html-keyboard-response","95","174738","0.0-4.0-1.0-2.24","2","0","8tyzz0ck534y7ud","","null","","<p style=""color:#054d00;""><b>Correct!</b></p>","","null","","","","","","","","","","","","","","","","","","","","","","","","","","","","","","","",""
"audio-keyboard-response","96","175535","0.0-4.0-1.0-0.25","2","0","8tyzz0ck534y7ud","","null","","sounds/induction/left_rev/ru_SWS.wav","","null","","","","","","","","","","","","","","","","","","","","","","","","","","","","","","","",""
"html-button-response","97","176734","0.0-4.0-1.0-1.25","2","0","8tyzz0ck534y7ud","","1197.0999999046326","","Was the sound coming from the left or the right?","0","","","1","INDUCTION-JUDGMENT","left","0","","","","","","","","","","","","","","","","","","","","","","","","","","",""
"html-keyboard-response","98","177736","0.0-4.0-1.0-2.25","2","0","8tyzz0ck534y7ud","","null","","<p style=""color:#054d00;""><b>Correct!</b></p>","","null","","","","","","","","","","","","","","","","","","","","","","","","","","","","","","","",""
"audio-keyboard-response","99","178534","0.0-4.0-1.0-0.26","2","0","8tyzz0ck534y7ud","","null","","sounds/induction/left_rev/su_SWS.wav","","null","","","","","","","","","","","","","","","","","","","","","","","","","","","","","","","",""
"html-button-response","100","179124","0.0-4.0-1.0-1.26","2","0","8tyzz0ck534y7ud","","589.5999999046326","","Was the sound coming from the left or the right?","0","","","1","INDUCTION-JUDGMENT","left","0","","","","","","","","","","","","","","","","","","","","","","","","","","",""
"html-keyboard-response","101","180127","0.0-4.0-1.0-2.26","2","0","8tyzz0ck534y7ud","","null","","<p style=""color:#054d00;""><b>Correct!</b></p>","","null","","","","","","","","","","","","","","","","","","","","","","","","","","","","","","","",""
"audio-keyboard-response","102","180924","0.0-4.0-1.0-0.27","2","0","8tyzz0ck534y7ud","","null","","sounds/induction/left_rev/pu_SWS.wav","","null","","","","","","","","","","","","","","","","","","","","","","","","","","","","","","","",""
"html-button-response","103","181364","0.0-4.0-1.0-1.27","2","0","8tyzz0ck534y7ud","","439","","Was the sound coming from the left or the right?","0","","","1","INDUCTION-JUDGMENT","left","0","","","","","","","","","","","","","","","","","","","","","","","","","","",""
"html-keyboard-response","104","182366","0.0-4.0-1.0-2.27","2","0","8tyzz0ck534y7ud","","null","","<p style=""color:#054d00;""><b>Correct!</b></p>","","null","","","","","","","","","","","","","","","","","","","","","","","","","","","","","","","",""
"audio-keyboard-response","105","183164","0.0-4.0-1.0-0.28","2","0","8tyzz0ck534y7ud","","null","","sounds/induction/left_rev/su_SWS.wav","","null","","","","","","","","","","","","","","","","","","","","","","","","","","","","","","","",""
"html-button-response","106","184207","0.0-4.0-1.0-1.28","2","0","8tyzz0ck534y7ud","","1041.0999999046326","","Was the sound coming from the left or the right?","0","","","1","INDUCTION-JUDGMENT","left","0","","","","","","","","","","","","","","","","","","","","","","","","","","",""
"html-keyboard-response","107","185211","0.0-4.0-1.0-2.28","2","0","8tyzz0ck534y7ud","","null","","<p style=""color:#054d00;""><b>Correct!</b></p>","","null","","","","","","","","","","","","","","","","","","","","","","","","","","","","","","","",""
"audio-keyboard-response","108","186004","0.0-4.0-1.0-0.29","2","0","8tyzz0ck534y7ud","","null","","sounds/induction/right_rev/re_SWS.wav","","null","","","","","","","","","","","","","","","","","","","","","","","","","","","","","","","",""
"html-button-response","109","186562","0.0-4.0-1.0-1.29","2","0","8tyzz0ck534y7ud","","557.5","","Was the sound coming from the left or the right?","1","","","1","INDUCTION-JUDGMENT","right","1","","","","","","","","","","","","","","","","","","","","","","","","","","",""
"html-keyboard-response","110","187565","0.0-4.0-1.0-2.29","2","0","8tyzz0ck534y7ud","","null","","<p style=""color:#054d00;""><b>Correct!</b></p>","","null","","","","","","","","","","","","","","","","","","","","","","","","","","","","","","","",""
"audio-keyboard-response","111","188364","0.0-4.0-1.0-0.30","2","0","8tyzz0ck534y7ud","","null","","sounds/induction/right_rev/fu_SWS.wav","","null","","","","","","","","","","","","","","","","","","","","","","","","","","","","","","","",""
"html-button-response","112","189596","0.0-4.0-1.0-1.30","2","0","8tyzz0ck534y7ud","","1230.5999999046326","","Was the sound coming from the left or the right?","1","","","1","INDUCTION-JUDGMENT","right","1","","","","","","","","","","","","","","","","","","","","","","","","","","",""
"html-keyboard-response","113","190598","0.0-4.0-1.0-2.30","2","0","8tyzz0ck534y7ud","","null","","<p style=""color:#054d00;""><b>Correct!</b></p>","","null","","","","","","","","","","","","","","","","","","","","","","","","","","","","","","","",""
"audio-keyboard-response","114","191404","0.0-4.0-1.0-0.31","2","0","8tyzz0ck534y7ud","","null","","sounds/induction/left_rev/fu_SWS.wav","","null","","","","","","","","","","","","","","","","","","","","","","","","","","","","","","","",""
"html-button-response","115","192031","0.0-4.0-1.0-1.31","2","0","8tyzz0ck534y7ud","","625.5999999046326","","Was the sound coming from the left or the right?","0","","","1","INDUCTION-JUDGMENT","left","0","","","","","","","","","","","","","","","","","","","","","","","","","","",""
"html-keyboard-response","116","193033","0.0-4.0-1.0-2.31","2","0","8tyzz0ck534y7ud","","null","","<p style=""color:#054d00;""><b>Correct!</b></p>","","null","","","","","","","","","","","","","","","","","","","","","","","","","","","","","","","",""
"audio-keyboard-response","117","193844","0.0-4.0-1.0-0.32","2","0","8tyzz0ck534y7ud","","null","","sounds/induction/left_rev/ni_SWS.wav","","null","","","","","","","","","","","","","","","","","","","","","","","","","","","","","","","",""
"html-button-response","118","194430","0.0-4.0-1.0-1.32","2","0","8tyzz0ck534y7ud","","584.7999997138977","","Was the sound coming from the left or the right?","1","","","0","INDUCTION-JUDGMENT","left","0","","","","","","","","","","","","","","","","","","","","","","","","","","",""
"html-keyboard-response","119","195433","0.0-4.0-1.0-2.32","2","0","8tyzz0ck534y7ud","","null","","<p style=""color:#690000;""><b>Incorrect!</b></p>","","null","","","","","","","","","","","","","","","","","","","","","","","","","","","","","","","",""
"audio-keyboard-response","120","196245","0.0-4.0-1.0-0.33","2","0","8tyzz0ck534y7ud","","null","","sounds/induction/right_rev/fe_SWS.wav","","null","","","","","","","","","","","","","","","","","","","","","","","","","","","","","","","",""
"html-button-response","121","196892","0.0-4.0-1.0-1.33","2","0","8tyzz0ck534y7ud","","645.5","","Was the sound coming from the left or the right?","1","","","1","INDUCTION-JUDGMENT","right","1","","","","","","","","","","","","","","","","","","","","","","","","","","",""
"html-keyboard-response","122","197893","0.0-4.0-1.0-2.33","2","0","8tyzz0ck534y7ud","","null","","<p style=""color:#054d00;""><b>Correct!</b></p>","","null","","","","","","","","","","","","","","","","","","","","","","","","","","","","","","","",""
"audio-keyboard-response","123","198694","0.0-4.0-1.0-0.34","2","0","8tyzz0ck534y7ud","","null","","sounds/induction/left_rev/ta_SWS.wav","","null","","","","","","","","","","","","","","","","","","","","","","","","","","","","","","","",""
"html-button-response","124","199749","0.0-4.0-1.0-1.34","2","0","8tyzz0ck534y7ud","","1053.9000000953674","","Was the sound coming from the left or the right?","0","","","1","INDUCTION-JUDGMENT","left","0","","","","","","","","","","","","","","","","","","","","","","","","","","",""
"html-keyboard-response","125","200751","0.0-4.0-1.0-2.34","2","0","8tyzz0ck534y7ud","","null","","<p style=""color:#054d00;""><b>Correct!</b></p>","","null","","","","","","","","","","","","","","","","","","","","","","","","","","","","","","","",""
"audio-keyboard-response","126","201554","0.0-4.0-1.0-0.35","2","0","8tyzz0ck534y7ud","","null","","sounds/induction/left_rev/ru_SWS.wav","","null","","","","","","","","","","","","","","","","","","","","","","","","","","","","","","","",""
"html-button-response","127","202124","0.0-4.0-1.0-1.35","2","0","8tyzz0ck534y7ud","","568.3000001907349","","Was the sound coming from the left or the right?","0","","","1","INDUCTION-JUDGMENT","left","0","","","","","","","","","","","","","","","","","","","","","","","","","","",""
"html-keyboard-response","128","203125","0.0-4.0-1.0-2.35","2","0","8tyzz0ck534y7ud","","null","","<p style=""color:#054d00;""><b>Correct!</b></p>","","null","","","","","","","","","","","","","","","","","","","","","","","","","","","","","","","",""
"audio-keyboard-response","129","203925","0.0-4.0-1.0-0.36","2","0","8tyzz0ck534y7ud","","null","","sounds/induction/left_rev/pu_SWS.wav","","null","","","","","","","","","","","","","","","","","","","","","","","","","","","","","","","",""
"html-button-response","130","204870","0.0-4.0-1.0-1.36","2","0","8tyzz0ck534y7ud","","942.7000002861023","","Was the sound coming from the left or the right?","0","","","1","INDUCTION-JUDGMENT","left","0","","","","","","","","","","","","","","","","","","","","","","","","","","",""
"html-keyboard-response","131","205872","0.0-4.0-1.0-2.36","2","0","8tyzz0ck534y7ud","","null","","<p style=""color:#054d00;""><b>Correct!</b></p>","","null","","","","","","","","","","","","","","","","","","","","","","","","","","","","","","","",""
"audio-keyboard-response","132","206674","0.0-4.0-1.0-0.37","2","0","8tyzz0ck534y7ud","","null","","sounds/induction/left_rev/fe_SWS.wav","","null","","","","","","","","","","","","","","","","","","","","","","","","","","","","","","","",""
"html-button-response","133","207184","0.0-4.0-1.0-1.37","2","0","8tyzz0ck534y7ud","","508.2999997138977","","Was the sound coming from the left or the right?","0","","","1","INDUCTION-JUDGMENT","left","0","","","","","","","","","","","","","","","","","","","","","","","","","","",""
"html-keyboard-response","134","208188","0.0-4.0-1.0-2.37","2","0","8tyzz0ck534y7ud","","null","","<p style=""color:#054d00;""><b>Correct!</b></p>","","null","","","","","","","","","","","","","","","","","","","","","","","","","","","","","","","",""
"audio-keyboard-response","135","208994","0.0-4.0-1.0-0.38","2","0","8tyzz0ck534y7ud","","null","","sounds/induction/right_rev/me_SWS.wav","","null","","","","","","","","","","","","","","","","","","","","","","","","","","","","","","","",""
"html-button-response","136","209719","0.0-4.0-1.0-1.38","2","0","8tyzz0ck534y7ud","","723.0999999046326","","Was the sound coming from the left or the right?","1","","","1","INDUCTION-JUDGMENT","right","1","","","","","","","","","","","","","","","","","","","","","","","","","","",""
"html-keyboard-response","137","210722","0.0-4.0-1.0-2.38","2","0","8tyzz0ck534y7ud","","null","","<p style=""color:#054d00;""><b>Correct!</b></p>","","null","","","","","","","","","","","","","","","","","","","","","","","","","","","","","","","",""
"audio-keyboard-response","138","211524","0.0-4.0-1.0-0.39","2","0","8tyzz0ck534y7ud","","null","","sounds/induction/left_rev/ko_SWS.wav","","null","","","","","","","","","","","","","","","","","","","","","","","","","","","","","","","",""
"html-button-response","139","212247","0.0-4.0-1.0-1.39","2","0","8tyzz0ck534y7ud","","720.7999997138977","","Was the sound coming from the left or the right?","0","","","1","INDUCTION-JUDGMENT","left","0","","","","","","","","","","","","","","","","","","","","","","","","","","",""
"html-keyboard-response","140","213250","0.0-4.0-1.0-2.39","2","0","8tyzz0ck534y7ud","","null","","<p style=""color:#054d00;""><b>Correct!</b></p>","","null","","","","","","","","","","","","","","","","","","","","","","","","","","","","","","","",""
"audio-keyboard-response","141","214044","0.0-4.0-1.0-0.40","2","0","8tyzz0ck534y7ud","","null","","sounds/induction/left_rev/ni_SWS.wav","","null","","","","","","","","","","","","","","","","","","","","","","","","","","","","","","","",""
"html-button-response","142","214518","0.0-4.0-1.0-1.40","2","0","8tyzz0ck534y7ud","","471.90000009536743","","Was the sound coming from the left or the right?","0","","","1","INDUCTION-JUDGMENT","left","0","","","","","","","","","","","","","","","","","","","","","","","","","","",""
"html-keyboard-response","143","215521","0.0-4.0-1.0-2.40","2","0","8tyzz0ck534y7ud","","null","","<p style=""color:#054d00;""><b>Correct!</b></p>","","null","","","","","","","","","","","","","","","","","","","","","","","","","","","","","","","",""
"audio-keyboard-response","144","216324","0.0-4.0-1.0-0.41","2","0","8tyzz0ck534y7ud","","null","","sounds/induction/left_rev/me_SWS.wav","","null","","","","","","","","","","","","","","","","","","","","","","","","","","","","","","","",""
"html-button-response","145","216747","0.0-4.0-1.0-1.41","2","0","8tyzz0ck534y7ud","","421.69999980926514","","Was the sound coming from the left or the right?","0","","","1","INDUCTION-JUDGMENT","left","0","","","","","","","","","","","","","","","","","","","","","","","","","","",""
"html-keyboard-response","146","217750","0.0-4.0-1.0-2.41","2","0","8tyzz0ck534y7ud","","null","","<p style=""color:#054d00;""><b>Correct!</b></p>","","null","","","","","","","","","","","","","","","","","","","","","","","","","","","","","","","",""
"audio-keyboard-response","147","218555","0.0-4.0-1.0-0.42","2","0","8tyzz0ck534y7ud","","null","","sounds/induction/right_rev/ko_SWS.wav","","null","","","","","","","","","","","","","","","","","","","","","","","","","","","","","","","",""
"html-button-response","148","219213","0.0-4.0-1.0-1.42","2","0","8tyzz0ck534y7ud","","656","","Was the sound coming from the left or the right?","1","","","1","INDUCTION-JUDGMENT","right","1","","","","","","","","","","","","","","","","","","","","","","","","","","",""
"html-keyboard-response","149","220215","0.0-4.0-1.0-2.42","2","0","8tyzz0ck534y7ud","","null","","<p style=""color:#054d00;""><b>Correct!</b></p>","","null","","","","","","","","","","","","","","","","","","","","","","","","","","","","","","","",""
"audio-keyboard-response","150","221015","0.0-4.0-1.0-0.43","2","0","8tyzz0ck534y7ud","","null","","sounds/induction/left_rev/ti_SWS.wav","","null","","","","","","","","","","","","","","","","","","","","","","","","","","","","","","","",""
"html-button-response","151","221483","0.0-4.0-1.0-1.43","2","0","8tyzz0ck534y7ud","","466.40000009536743","","Was the sound coming from the left or the right?","0","","","1","INDUCTION-JUDGMENT","left","0","","","","","","","","","","","","","","","","","","","","","","","","","","",""
"html-keyboard-response","152","222486","0.0-4.0-1.0-2.43","2","0","8tyzz0ck534y7ud","","null","","<p style=""color:#054d00;""><b>Correct!</b></p>","","null","","","","","","","","","","","","","","","","","","","","","","","","","","","","","","","",""
"audio-keyboard-response","153","223284","0.0-4.0-1.0-0.44","2","0","8tyzz0ck534y7ud","","null","","sounds/induction/right_rev/pu_SWS.wav","","null","","","","","","","","","","","","","","","","","","","","","","","","","","","","","","","",""
"html-button-response","154","224130","0.0-4.0-1.0-1.44","2","0","8tyzz0ck534y7ud","","843.3000001907349","","Was the sound coming from the left or the right?","1","","","1","INDUCTION-JUDGMENT","right","1","","","","","","","","","","","","","","","","","","","","","","","","","","",""
"html-keyboard-response","155","225133","0.0-4.0-1.0-2.44","2","0","8tyzz0ck534y7ud","","null","","<p style=""color:#054d00;""><b>Correct!</b></p>","","null","","","","","","","","","","","","","","","","","","","","","","","","","","","","","","","",""
"audio-keyboard-response","156","225933","0.0-4.0-1.0-0.45","2","0","8tyzz0ck534y7ud","","null","","sounds/induction/left_rev/fe_SWS.wav","","null","","","","","","","","","","","","","","","","","","","","","","","","","","","","","","","",""
"html-button-response","157","226411","0.0-4.0-1.0-1.45","2","0","8tyzz0ck534y7ud","","475.09999990463257","","Was the sound coming from the left or the right?","0","","","1","INDUCTION-JUDGMENT","left","0","","","","","","","","","","","","","","","","","","","","","","","","","","",""
"html-keyboard-response","158","227414","0.0-4.0-1.0-2.45","2","0","8tyzz0ck534y7ud","","null","","<p style=""color:#054d00;""><b>Correct!</b></p>","","null","","","","","","","","","","","","","","","","","","","","","","","","","","","","","","","",""
"audio-keyboard-response","159","228213","0.0-4.0-1.0-0.46","2","0","8tyzz0ck534y7ud","","null","","sounds/induction/right_rev/fu_SWS.wav","","null","","","","","","","","","","","","","","","","","","","","","","","","","","","","","","","",""
"html-button-response","160","228883","0.0-4.0-1.0-1.46","2","0","8tyzz0ck534y7ud","","668.2000002861023","","Was the sound coming from the left or the right?","1","","","1","INDUCTION-JUDGMENT","right","1","","","","","","","","","","","","","","","","","","","","","","","","","","",""
"html-keyboard-response","161","229886","0.0-4.0-1.0-2.46","2","0","8tyzz0ck534y7ud","","null","","<p style=""color:#054d00;""><b>Correct!</b></p>","","null","","","","","","","","","","","","","","","","","","","","","","","","","","","","","","","",""
"audio-keyboard-response","162","230683","0.0-4.0-1.0-0.47","2","0","8tyzz0ck534y7ud","","null","","sounds/induction/left_rev/ge_SWS.wav","","null","","","","","","","","","","","","","","","","","","","","","","","","","","","","","","","",""
"html-button-response","163","231248","0.0-4.0-1.0-1.47","2","0","8tyzz0ck534y7ud","","563.4000000953674","","Was the sound coming from the left or the right?","0","","","1","INDUCTION-JUDGMENT","left","0","","","","","","","","","","","","","","","","","","","","","","","","","","",""
"html-keyboard-response","164","232250","0.0-4.0-1.0-2.47","2","0","8tyzz0ck534y7ud","","null","","<p style=""color:#054d00;""><b>Correct!</b></p>","","null","","","","","","","","","","","","","","","","","","","","","","","","","","","","","","","",""
"html-button-response","165","242856","0.0-5.0-0.0","2","0","8tyzz0ck534y7ud","","10102.599999904633","","<p>Thank you for your answers.</p><p>You will now listen to similar sounds. The main difference is that the sounds will be longer.</p><p>Just as before, you will be asked to judge whether the sound was coming from the left or the right.</p><p>There are 10 of these longer sounds in total.","0","","","","","","","","","","","","","","","","","","","","","","","","","","","","","","","","",""
"audio-keyboard-response","166","245973","0.0-5.0-1.0-0.0","2","0","8tyzz0ck534y7ud","","null","","sounds/sentences/left_rev/14_01_cfSWS.wav","","null","","","","","","","","","","","","","","","","","","","","","","","","","","","","","","","",""
"html-button-response","167","246939","0.0-5.0-1.0-1.0","2","0","8tyzz0ck534y7ud","","963.9000000953674","","Was the sound coming from the left or the right?","0","","","1","INDUCTION-JUDGMENT","left","0","","","","","","","","","","","","","","","","","","","","","","","","","","",""
"html-keyboard-response","168","247942","0.0-5.0-1.0-2.0","2","0","8tyzz0ck534y7ud","","null","","<p style=""color:#054d00;""><b>Correct!</b></p>","","null","","","","","","","","","","","","","","","","","","","","","","","","","","","","","","","",""
"html-button-response","169","250450","0.0-5.0-1.0-3.0","2","0","8tyzz0ck534y7ud","","2005.3000001907349","","<p>Press the button below when you are ready to continue.</p>","0","","","","","","","","","","","","","","","","","","","","","","","","","","","","","","","","",""
"audio-keyboard-response","170","253443","0.0-5.0-1.0-0.1","2","0","8tyzz0ck534y7ud","","null","","sounds/sentences/left_rev/14_05_cfSWS.wav","","null","","","","","","","","","","","","","","","","","","","","","","","","","","","","","","","",""
"html-button-response","171","254004","0.0-5.0-1.0-1.1","2","0","8tyzz0ck534y7ud","","556.7999997138977","","Was the sound coming from the left or the right?","0","","","1","INDUCTION-JUDGMENT","left","0","","","","","","","","","","","","","","","","","","","","","","","","","","",""
"html-keyboard-response","172","255006","0.0-5.0-1.0-2.1","2","0","8tyzz0ck534y7ud","","null","","<p style=""color:#054d00;""><b>Correct!</b></p>","","null","","","","","","","","","","","","","","","","","","","","","","","","","","","","","","","",""
"html-button-response","173","256347","0.0-5.0-1.0-3.1","2","0","8tyzz0ck534y7ud","","837.7999997138977","","<p>Press the button below when you are ready to continue.</p>","0","","","","","","","","","","","","","","","","","","","","","","","","","","","","","","","","",""
"audio-keyboard-response","174","259074","0.0-5.0-1.0-0.2","2","0","8tyzz0ck534y7ud","","null","","sounds/sentences/right_rev/14_09_cfSWS.wav","","null","","","","","","","","","","","","","","","","","","","","","","","","","","","","","","","",""
"html-button-response","175","260431","0.0-5.0-1.0-1.2","2","0","8tyzz0ck534y7ud","","1354.1999998092651","","Was the sound coming from the left or the right?","1","","","1","INDUCTION-JUDGMENT","right","1","","","","","","","","","","","","","","","","","","","","","","","","","","",""
"html-keyboard-response","176","261433","0.0-5.0-1.0-2.2","2","0","8tyzz0ck534y7ud","","null","","<p style=""color:#054d00;""><b>Correct!</b></p>","","null","","","","","","","","","","","","","","","","","","","","","","","","","","","","","","","",""
"html-button-response","177","263182","0.0-5.0-1.0-3.2","2","0","8tyzz0ck534y7ud","","1247.6999998092651","","<p>Press the button below when you are ready to continue.</p>","0","","","","","","","","","","","","","","","","","","","","","","","","","","","","","","","","",""
"audio-keyboard-response","178","265743","0.0-5.0-1.0-0.3","2","0","8tyzz0ck534y7ud","","null","","sounds/sentences/left_rev/14_04_cfSWS.wav","","null","","","","","","","","","","","","","","","","","","","","","","","","","","","","","","","",""
"html-button-response","179","266723","0.0-5.0-1.0-1.3","2","0","8tyzz0ck534y7ud","","979.0999999046326","","Was the sound coming from the left or the right?","0","","","1","INDUCTION-JUDGMENT","left","0","","","","","","","","","","","","","","","","","","","","","","","","","","",""
"html-keyboard-response","180","267726","0.0-5.0-1.0-2.3","2","0","8tyzz0ck534y7ud","","null","","<p style=""color:#054d00;""><b>Correct!</b></p>","","null","","","","","","","","","","","","","","","","","","","","","","","","","","","","","","","",""
"html-button-response","181","268973","0.0-5.0-1.0-3.3","2","0","8tyzz0ck534y7ud","","746.3000001907349","","<p>Press the button below when you are ready to continue.</p>","0","","","","","","","","","","","","","","","","","","","","","","","","","","","","","","","","",""
"audio-keyboard-response","182","271734","0.0-5.0-1.0-0.4","2","0","8tyzz0ck534y7ud","","null","","sounds/sentences/right_rev/14_08_cfSWS.wav","","null","","","","","","","","","","","","","","","","","","","","","","","","","","","","","","","",""
"html-button-response","183","272225","0.0-5.0-1.0-1.4","2","0","8tyzz0ck534y7ud","","487.2999997138977","","Was the sound coming from the left or the right?","1","","","1","INDUCTION-JUDGMENT","right","1","","","","","","","","","","","","","","","","","","","","","","","","","","",""
"html-keyboard-response","184","273232","0.0-5.0-1.0-2.4","2","0","8tyzz0ck534y7ud","","null","","<p style=""color:#054d00;""><b>Correct!</b></p>","","null","","","","","","","","","","","","","","","","","","","","","","","","","","","","","","","",""
"html-button-response","185","274478","0.0-5.0-1.0-3.4","2","0","8tyzz0ck534y7ud","","744.3000001907349","","<p>Press the button below when you are ready to continue.</p>","0","","","","","","","","","","","","","","","","","","","","","","","","","","","","","","","","",""
"audio-keyboard-response","186","277293","0.0-5.0-1.0-0.5","2","0","8tyzz0ck534y7ud","","null","","sounds/sentences/left_rev/14_02_cfSWS.wav","","null","","","","","","","","","","","","","","","","","","","","","","","","","","","","","","","",""
"html-button-response","187","277785","0.0-5.0-1.0-1.5","2","0","8tyzz0ck534y7ud","","489.69999980926514","","Was the sound coming from the left or the right?","0","","","1","INDUCTION-JUDGMENT","left","0","","","","","","","","","","","","","","","","","","","","","","","","","","",""
"html-keyboard-response","188","278788","0.0-5.0-1.0-2.5","2","0","8tyzz0ck534y7ud","","null","","<p style=""color:#054d00;""><b>Correct!</b></p>","","null","","","","","","","","","","","","","","","","","","","","","","","","","","","","","","","",""
"html-button-response","189","280788","0.0-5.0-1.0-3.5","2","0","8tyzz0ck534y7ud","","1497","","<p>Press the button below when you are ready to continue.</p>","0","","","","","","","","","","","","","","","","","","","","","","","","","","","","","","","","",""
"audio-keyboard-response","190","283674","0.0-5.0-1.0-0.6","2","0","8tyzz0ck534y7ud","","null","","sounds/sentences/right_rev/14_07_cfSWS.wav","","null","","","","","","","","","","","","","","","","","","","","","","","","","","","","","","","",""
"html-button-response","191","284350","0.0-5.0-1.0-1.6","2","0","8tyzz0ck534y7ud","","673.7000002861023","","Was the sound coming from the left or the right?","1","","","1","INDUCTION-JUDGMENT","right","1","","","","","","","","","","","","","","","","","","","","","","","","","","",""
"html-keyboard-response","192","285353","0.0-5.0-1.0-2.6","2","0","8tyzz0ck534y7ud","","null","","<p style=""color:#054d00;""><b>Correct!</b></p>","","null","","","","","","","","","","","","","","","","","","","","","","","","","","","","","","","",""
"html-button-response","193","286669","0.0-5.0-1.0-3.6","2","0","8tyzz0ck534y7ud","","812.7999997138977","","<p>Press the button below when you are ready to continue.</p>","0","","","","","","","","","","","","","","","","","","","","","","","","","","","","","","","","",""
"audio-keyboard-response","194","289414","0.0-5.0-1.0-0.7","2","0","8tyzz0ck534y7ud","","null","","sounds/sentences/right_rev/14_06_cfSWS.wav","","null","","","","","","","","","","","","","","","","","","","","","","","","","","","","","","","",""
"html-button-response","195","289666","0.0-5.0-1.0-1.7","2","0","8tyzz0ck534y7ud","","248.90000009536743","","Was the sound coming from the left or the right?","1","","","1","INDUCTION-JUDGMENT","right","1","","","","","","","","","","","","","","","","","","","","","","","","","","",""
"html-keyboard-response","196","290668","0.0-5.0-1.0-2.7","2","0","8tyzz0ck534y7ud","","null","","<p style=""color:#054d00;""><b>Correct!</b></p>","","null","","","","","","","","","","","","","","","","","","","","","","","","","","","","","","","",""
"html-button-response","197","291827","0.0-5.0-1.0-3.7","2","0","8tyzz0ck534y7ud","","656.5","","<p>Press the button below when you are ready to continue.</p>","0","","","","","","","","","","","","","","","","","","","","","","","","","","","","","","","","",""
"audio-keyboard-response","198","294413","0.0-5.0-1.0-0.8","2","0","8tyzz0ck534y7ud","","null","","sounds/sentences/left_rev/14_03_cfSWS.wav","","null","","","","","","","","","","","","","","","","","","","","","","","","","","","","","","","",""
"html-button-response","199","295363","0.0-5.0-1.0-1.8","2","0","8tyzz0ck534y7ud","","947.5","","Was the sound coming from the left or the right?","0","","","1","INDUCTION-JUDGMENT","left","0","","","","","","","","","","","","","","","","","","","","","","","","","","",""
"html-keyboard-response","200","296366","0.0-5.0-1.0-2.8","2","0","8tyzz0ck534y7ud","","null","","<p style=""color:#054d00;""><b>Correct!</b></p>","","null","","","","","","","","","","","","","","","","","","","","","","","","","","","","","","","",""
"html-button-response","201","297633","0.0-5.0-1.0-3.8","2","0","8tyzz0ck534y7ud","","764.9000000953674","","<p>Press the button below when you are ready to continue.</p>","0","","","","","","","","","","","","","","","","","","","","","","","","","","","","","","","","",""
"audio-keyboard-response","202","300654","0.0-5.0-1.0-0.9","2","0","8tyzz0ck534y7ud","","null","","sounds/sentences/right_rev/14_10_cfSWS.wav","","null","","","","","","","","","","","","","","","","","","","","","","","","","","","","","","","",""
"html-button-response","203","300932","0.0-5.0-1.0-1.9","2","0","8tyzz0ck534y7ud","","275.69999980926514","","Was the sound coming from the left or the right?","1","","","1","INDUCTION-JUDGMENT","right","1","","","","","","","","","","","","","","","","","","","","","","","","","","",""
"html-keyboard-response","204","301935","0.0-5.0-1.0-2.9","2","0","8tyzz0ck534y7ud","","null","","<p style=""color:#054d00;""><b>Correct!</b></p>","","null","","","","","","","","","","","","","","","","","","","","","","","","","","","","","","","",""
"html-button-response","205","302533","0.0-5.0-1.0-3.9","2","0","8tyzz0ck534y7ud","","95.5","","<p>Press the button below when you are ready to continue.</p>","0","","","","","","","","","","","","","","","","","","","","","","","","","","","","","","","","",""
"html-keyboard-response","206","335296","0.0-6.0-0.0","2","0","8tyzz0ck534y7ud","","32260.099999904633","","<p>In this part of the study, you will hear sounds similar to those you just heard.</p><p>Please focus on these sounds, as you may be asked questions about them later.</p><p>Occasionally, the sounds will pause for up to two seconds. When this happens, please press SPACEBAR as quickly as you can.</br>This helps ensure that you are paying attention to the sounds.</p><p>This part of the study will take about 12 minutes to complete, and you will be given the opportunity to take a couple of short breaks every few minutes.</p><p><strong>Press SPACEBAR to begin</strong></p>","","32","","","","","","","","","","","","","","","","","","","","","","","","","","","","","","","",""
"html-keyboard-response","207","336300","0.0-6.0-1.0-0.0","2","0","8tyzz0ck534y7ud","","null","","<p style=""font-size: 40px;"">+</p>","","null","","","","","","","","","","","","","","","","","","","","","","","","","","","","","","","",""
"html-keyboard-response","208","521320","0.0-6.0-1.0-1.0","2","0","8tyzz0ck534y7ud","","null","","","","null","","","SL-TRAIN","","","1","1843.2000002861023","null","sounds/B/TRAIN/SEQ__06.mp3","173","","","","","","","","","","","","","","","","","","","","","",""
"html-button-response","209","524407","0.0-6.0-1.0-2.0","2","0","8tyzz0ck534y7ud","","3084.2000002861023","","<p>You may take a short break if you wish.</p>","0","","","","","","","","","","","","","","","","","","","","","","","","","","","","","","","","",""
"html-keyboard-response","210","525409","0.0-6.0-1.0-3.0","2","0","8tyzz0ck534y7ud","","null","","<p style=""font-size: 40px;"">+</p>","","null","","","","","","","","","","","","","","","","","","","","","","","","","","","","","","","",""
"html-keyboard-response","211","710414","0.0-6.0-1.0-4.0","2","0","8tyzz0ck534y7ud","","null","","","","null","","","SL-TRAIN","","","2","null","null","sounds/B/TRAIN/SEQ__02.mp3","108","","","","","","","","","","","","","","","","","","","","","",""
"html-button-response","212","714659","0.0-6.0-1.0-5.0","2","0","8tyzz0ck534y7ud","","4242.699999809265","","<p>You may take a short break if you wish.</p>","0","","","","","","","","","","","","","","","","","","","","","","","","","","","","","","","","",""
"html-keyboard-response","213","715662","0.0-6.0-1.0-6.0","2","0","8tyzz0ck534y7ud","","null","","<p style=""font-size: 40px;"">+</p>","","null","","","","","","","","","","","","","","","","","","","","","","","","","","","","","","","",""
"html-keyboard-response","214","900667","0.0-6.0-1.0-7.0","2","0","8tyzz0ck534y7ud","","null","","","","null","","","SL-TRAIN","","","2","null","null","sounds/B/TRAIN/SEQ__11.mp3","130","","","","","","","","","","","","","","","","","","","","","",""
"html-button-response","215","902543","0.0-6.0-1.0-8.0","2","0","8tyzz0ck534y7ud","","1874.6000003814697","","<p>You may take a short break if you wish.</p>","0","","","","","","","","","","","","","","","","","","","","","","","","","","","","","","","","",""
"html-keyboard-response","216","903544","0.0-6.0-1.0-9.0","2","0","8tyzz0ck534y7ud","","null","","<p style=""font-size: 40px;"">+</p>","","null","","","","","","","","","","","","","","","","","","","","","","","","","","","","","","","",""
"html-keyboard-response","217","1088548","0.0-6.0-1.0-10.0","2","0","8tyzz0ck534y7ud","","null","","","","null","","","SL-TRAIN","","","2","null","null","sounds/B/TRAIN/SEQ__04.mp3","103","","","","","","","","","","","","","","","","","","","","","",""
"html-button-response","218","1090639","0.0-6.0-1.0-11.0","2","0","8tyzz0ck534y7ud","","2090","","<p>You may take a short break if you wish.</p>","0","","","","","","","","","","","","","","","","","","","","","","","","","","","","","","","","",""
"html-button-response","219","1104482","0.0-7.0-0.0","2","0","8tyzz0ck534y7ud","","13839.5","","<p>Welcome to the second part of the study. This is a <u>familiarity task</u>.</p><p>You will now hear short sounds and will be asked to rate how familiar they sound to you <b>based on what you heard in the previous part of the study</b>.</p><p>You will rate 12 sounds in total.</p>","0","","","","","","","","","","","","","","","","","","","","","","","","","","","","","","","","",""
"html-keyboard-response","220","1105485","0.0-7.0-1.0-0.0","2","0","8tyzz0ck534y7ud","","null","","","","null","","","","","","","","","","","","","","","","","","","","","","","","","","","","","","","",""
"audio-keyboard-response","221","1106460","0.0-7.0-1.0-1.0","2","0","8tyzz0ck534y7ud","","null","","sounds/B/FAM/N003.mp3","","null","","","","","","","","","","","","","","","","","","","","","","","","","","","","","","","",""
"html-keyboard-response","222","1119626","0.0-7.0-1.0-2.0","2","0","8tyzz0ck534y7ud","","12662.099999904633","","<p>How familiar did this sound to you?</p><p>1&nbsp;&nbsp;&nbsp;&nbsp;&nbsp;&nbsp;&nbsp;&nbsp;&nbsp;&nbsp;&nbsp;&nbsp;&nbsp;&nbsp;&nbsp;&nbsp;&nbsp;&nbsp;&nbsp;2&nbsp;&nbsp;&nbsp;&nbsp;&nbsp;&nbsp;&nbsp;&nbsp;&nbsp;&nbsp;&nbsp;&nbsp;&nbsp;&nbsp;&nbsp;&nbsp;&nbsp;&nbsp;&nbsp;3&nbsp;&nbsp;&nbsp;&nbsp;&nbsp;&nbsp;&nbsp;&nbsp;&nbsp;&nbsp;&nbsp;&nbsp;&nbsp;&nbsp;&nbsp;&nbsp;&nbsp;&nbsp;&nbsp;4</p><p style=""font-size:14px"">Not at all familiar&nbsp;&nbsp;&nbsp;&nbsp;A little familiar&nbsp;&nbsp;&nbsp;Moderately familiar&nbsp;&nbsp;&nbsp;Extremely familiar</p><p>(press the corresponding number on your keyboard)</p>","","52","","","FAM-RESPONSE","","","","","","","","sounds/B/FAM/N003.mp3","nonword","","","","","","","","","","","","","","","","","","","",""
"html-keyboard-response","223","1121629","0.0-7.0-1.0-0.1","2","0","8tyzz0ck534y7ud","","null","","","","null","","","","","","","","","","","","","","","","","","","","","","","","","","","","","","","",""
"audio-keyboard-response","224","1122580","0.0-7.0-1.0-1.1","2","0","8tyzz0ck534y7ud","","null","","sounds/B/FAM/W004.mp3","","null","","","","","","","","","","","","","","","","","","","","","","","","","","","","","","","",""
"html-keyboard-response","225","1123670","0.0-7.0-1.0-2.1","2","0","8tyzz0ck534y7ud","","588.1999998092651","","<p>How familiar did this sound to you?</p><p>1&nbsp;&nbsp;&nbsp;&nbsp;&nbsp;&nbsp;&nbsp;&nbsp;&nbsp;&nbsp;&nbsp;&nbsp;&nbsp;&nbsp;&nbsp;&nbsp;&nbsp;&nbsp;&nbsp;2&nbsp;&nbsp;&nbsp;&nbsp;&nbsp;&nbsp;&nbsp;&nbsp;&nbsp;&nbsp;&nbsp;&nbsp;&nbsp;&nbsp;&nbsp;&nbsp;&nbsp;&nbsp;&nbsp;3&nbsp;&nbsp;&nbsp;&nbsp;&nbsp;&nbsp;&nbsp;&nbsp;&nbsp;&nbsp;&nbsp;&nbsp;&nbsp;&nbsp;&nbsp;&nbsp;&nbsp;&nbsp;&nbsp;4</p><p style=""font-size:14px"">Not at all familiar&nbsp;&nbsp;&nbsp;&nbsp;A little familiar&nbsp;&nbsp;&nbsp;Moderately familiar&nbsp;&nbsp;&nbsp;Extremely familiar</p><p>(press the corresponding number on your keyboard)</p>","","52","","","FAM-RESPONSE","","","","","","","","sounds/B/FAM/W004.mp3","word","","","","","","","","","","","","","","","","","","","",""
"html-keyboard-response","226","1125674","0.0-7.0-1.0-0.2","2","0","8tyzz0ck534y7ud","","null","","","","null","","","","","","","","","","","","","","","","","","","","","","","","","","","","","","","",""
"audio-keyboard-response","227","1126621","0.0-7.0-1.0-1.2","2","0","8tyzz0ck534y7ud","","null","","sounds/B/FAM/N004.mp3","","null","","","","","","","","","","","","","","","","","","","","","","","","","","","","","","","",""
"html-keyboard-response","228","1127525","0.0-7.0-1.0-2.2","2","0","8tyzz0ck534y7ud","","400.7999997138977","","<p>How familiar did this sound to you?</p><p>1&nbsp;&nbsp;&nbsp;&nbsp;&nbsp;&nbsp;&nbsp;&nbsp;&nbsp;&nbsp;&nbsp;&nbsp;&nbsp;&nbsp;&nbsp;&nbsp;&nbsp;&nbsp;&nbsp;2&nbsp;&nbsp;&nbsp;&nbsp;&nbsp;&nbsp;&nbsp;&nbsp;&nbsp;&nbsp;&nbsp;&nbsp;&nbsp;&nbsp;&nbsp;&nbsp;&nbsp;&nbsp;&nbsp;3&nbsp;&nbsp;&nbsp;&nbsp;&nbsp;&nbsp;&nbsp;&nbsp;&nbsp;&nbsp;&nbsp;&nbsp;&nbsp;&nbsp;&nbsp;&nbsp;&nbsp;&nbsp;&nbsp;4</p><p style=""font-size:14px"">Not at all familiar&nbsp;&nbsp;&nbsp;&nbsp;A little familiar&nbsp;&nbsp;&nbsp;Moderately familiar&nbsp;&nbsp;&nbsp;Extremely familiar</p><p>(press the corresponding number on your keyboard)</p>","","52","","","FAM-RESPONSE","","","","","","","","sounds/B/FAM/N004.mp3","nonword","","","","","","","","","","","","","","","","","","","",""
"html-keyboard-response","229","1129528","0.0-7.0-1.0-0.3","2","0","8tyzz0ck534y7ud","","null","","","","null","","","","","","","","","","","","","","","","","","","","","","","","","","","","","","","",""
"audio-keyboard-response","230","1130471","0.0-7.0-1.0-1.3","2","0","8tyzz0ck534y7ud","","null","","sounds/B/FAM/N002.mp3","","null","","","","","","","","","","","","","","","","","","","","","","","","","","","","","","","",""
"html-keyboard-response","231","1133059","0.0-7.0-1.0-2.3","2","0","8tyzz0ck534y7ud","","2086.5","","<p>How familiar did this sound to you?</p><p>1&nbsp;&nbsp;&nbsp;&nbsp;&nbsp;&nbsp;&nbsp;&nbsp;&nbsp;&nbsp;&nbsp;&nbsp;&nbsp;&nbsp;&nbsp;&nbsp;&nbsp;&nbsp;&nbsp;2&nbsp;&nbsp;&nbsp;&nbsp;&nbsp;&nbsp;&nbsp;&nbsp;&nbsp;&nbsp;&nbsp;&nbsp;&nbsp;&nbsp;&nbsp;&nbsp;&nbsp;&nbsp;&nbsp;3&nbsp;&nbsp;&nbsp;&nbsp;&nbsp;&nbsp;&nbsp;&nbsp;&nbsp;&nbsp;&nbsp;&nbsp;&nbsp;&nbsp;&nbsp;&nbsp;&nbsp;&nbsp;&nbsp;4</p><p style=""font-size:14px"">Not at all familiar&nbsp;&nbsp;&nbsp;&nbsp;A little familiar&nbsp;&nbsp;&nbsp;Moderately familiar&nbsp;&nbsp;&nbsp;Extremely familiar</p><p>(press the corresponding number on your keyboard)</p>","","50","","","FAM-RESPONSE","","","","","","","","sounds/B/FAM/N002.mp3","nonword","","","","","","","","","","","","","","","","","","","",""
"html-keyboard-response","232","1135062","0.0-7.0-1.0-0.4","2","0","8tyzz0ck534y7ud","","null","","","","null","","","","","","","","","","","","","","","","","","","","","","","","","","","","","","","",""
"audio-keyboard-response","233","1136001","0.0-7.0-1.0-1.4","2","0","8tyzz0ck534y7ud","","null","","sounds/B/FAM/W002.mp3","","null","","","","","","","","","","","","","","","","","","","","","","","","","","","","","","","",""
"html-keyboard-response","234","1136824","0.0-7.0-1.0-2.4","2","0","8tyzz0ck534y7ud","","320.5","","<p>How familiar did this sound to you?</p><p>1&nbsp;&nbsp;&nbsp;&nbsp;&nbsp;&nbsp;&nbsp;&nbsp;&nbsp;&nbsp;&nbsp;&nbsp;&nbsp;&nbsp;&nbsp;&nbsp;&nbsp;&nbsp;&nbsp;2&nbsp;&nbsp;&nbsp;&nbsp;&nbsp;&nbsp;&nbsp;&nbsp;&nbsp;&nbsp;&nbsp;&nbsp;&nbsp;&nbsp;&nbsp;&nbsp;&nbsp;&nbsp;&nbsp;3&nbsp;&nbsp;&nbsp;&nbsp;&nbsp;&nbsp;&nbsp;&nbsp;&nbsp;&nbsp;&nbsp;&nbsp;&nbsp;&nbsp;&nbsp;&nbsp;&nbsp;&nbsp;&nbsp;4</p><p style=""font-size:14px"">Not at all familiar&nbsp;&nbsp;&nbsp;&nbsp;A little familiar&nbsp;&nbsp;&nbsp;Moderately familiar&nbsp;&nbsp;&nbsp;Extremely familiar</p><p>(press the corresponding number on your keyboard)</p>","","52","","","FAM-RESPONSE","","","","","","","","sounds/B/FAM/W002.mp3","word","","","","","","","","","","","","","","","","","","","",""
"html-keyboard-response","235","1138827","0.0-7.0-1.0-0.5","2","0","8tyzz0ck534y7ud","","null","","","","null","","","","","","","","","","","","","","","","","","","","","","","","","","","","","","","",""
"audio-keyboard-response","236","1139761","0.0-7.0-1.0-1.5","2","0","8tyzz0ck534y7ud","","null","","sounds/B/FAM/P002.mp3","","null","","","","","","","","","","","","","","","","","","","","","","","","","","","","","","","",""
"html-keyboard-response","237","1140668","0.0-7.0-1.0-2.5","2","0","8tyzz0ck534y7ud","","402.5","","<p>How familiar did this sound to you?</p><p>1&nbsp;&nbsp;&nbsp;&nbsp;&nbsp;&nbsp;&nbsp;&nbsp;&nbsp;&nbsp;&nbsp;&nbsp;&nbsp;&nbsp;&nbsp;&nbsp;&nbsp;&nbsp;&nbsp;2&nbsp;&nbsp;&nbsp;&nbsp;&nbsp;&nbsp;&nbsp;&nbsp;&nbsp;&nbsp;&nbsp;&nbsp;&nbsp;&nbsp;&nbsp;&nbsp;&nbsp;&nbsp;&nbsp;3&nbsp;&nbsp;&nbsp;&nbsp;&nbsp;&nbsp;&nbsp;&nbsp;&nbsp;&nbsp;&nbsp;&nbsp;&nbsp;&nbsp;&nbsp;&nbsp;&nbsp;&nbsp;&nbsp;4</p><p style=""font-size:14px"">Not at all familiar&nbsp;&nbsp;&nbsp;&nbsp;A little familiar&nbsp;&nbsp;&nbsp;Moderately familiar&nbsp;&nbsp;&nbsp;Extremely familiar</p><p>(press the corresponding number on your keyboard)</p>","","51","","","FAM-RESPONSE","","","","","","","","sounds/B/FAM/P002.mp3","partword","","","","","","","","","","","","","","","","","","","",""
"html-keyboard-response","238","1142671","0.0-7.0-1.0-0.6","2","0","8tyzz0ck534y7ud","","null","","","","null","","","","","","","","","","","","","","","","","","","","","","","","","","","","","","","",""
"audio-keyboard-response","239","1143621","0.0-7.0-1.0-1.6","2","0","8tyzz0ck534y7ud","","null","","sounds/B/FAM/P004.mp3","","null","","","","","","","","","","","","","","","","","","","","","","","","","","","","","","","",""
"html-keyboard-response","240","1145143","0.0-7.0-1.0-2.6","2","0","8tyzz0ck534y7ud","","1019.4000000953674","","<p>How familiar did this sound to you?</p><p>1&nbsp;&nbsp;&nbsp;&nbsp;&nbsp;&nbsp;&nbsp;&nbsp;&nbsp;&nbsp;&nbsp;&nbsp;&nbsp;&nbsp;&nbsp;&nbsp;&nbsp;&nbsp;&nbsp;2&nbsp;&nbsp;&nbsp;&nbsp;&nbsp;&nbsp;&nbsp;&nbsp;&nbsp;&nbsp;&nbsp;&nbsp;&nbsp;&nbsp;&nbsp;&nbsp;&nbsp;&nbsp;&nbsp;3&nbsp;&nbsp;&nbsp;&nbsp;&nbsp;&nbsp;&nbsp;&nbsp;&nbsp;&nbsp;&nbsp;&nbsp;&nbsp;&nbsp;&nbsp;&nbsp;&nbsp;&nbsp;&nbsp;4</p><p style=""font-size:14px"">Not at all familiar&nbsp;&nbsp;&nbsp;&nbsp;A little familiar&nbsp;&nbsp;&nbsp;Moderately familiar&nbsp;&nbsp;&nbsp;Extremely familiar</p><p>(press the corresponding number on your keyboard)</p>","","51","","","FAM-RESPONSE","","","","","","","","sounds/B/FAM/P004.mp3","partword","","","","","","","","","","","","","","","","","","","",""
"html-keyboard-response","241","1147145","0.0-7.0-1.0-0.7","2","0","8tyzz0ck534y7ud","","null","","","","null","","","","","","","","","","","","","","","","","","","","","","","","","","","","","","","",""
"audio-keyboard-response","242","1148081","0.0-7.0-1.0-1.7","2","0","8tyzz0ck534y7ud","","null","","sounds/B/FAM/W003.mp3","","null","","","","","","","","","","","","","","","","","","","","","","","","","","","","","","","",""
"html-keyboard-response","243","1148914","0.0-7.0-1.0-2.7","2","0","8tyzz0ck534y7ud","","331.3999996185303","","<p>How familiar did this sound to you?</p><p>1&nbsp;&nbsp;&nbsp;&nbsp;&nbsp;&nbsp;&nbsp;&nbsp;&nbsp;&nbsp;&nbsp;&nbsp;&nbsp;&nbsp;&nbsp;&nbsp;&nbsp;&nbsp;&nbsp;2&nbsp;&nbsp;&nbsp;&nbsp;&nbsp;&nbsp;&nbsp;&nbsp;&nbsp;&nbsp;&nbsp;&nbsp;&nbsp;&nbsp;&nbsp;&nbsp;&nbsp;&nbsp;&nbsp;3&nbsp;&nbsp;&nbsp;&nbsp;&nbsp;&nbsp;&nbsp;&nbsp;&nbsp;&nbsp;&nbsp;&nbsp;&nbsp;&nbsp;&nbsp;&nbsp;&nbsp;&nbsp;&nbsp;4</p><p style=""font-size:14px"">Not at all familiar&nbsp;&nbsp;&nbsp;&nbsp;A little familiar&nbsp;&nbsp;&nbsp;Moderately familiar&nbsp;&nbsp;&nbsp;Extremely familiar</p><p>(press the corresponding number on your keyboard)</p>","","52","","","FAM-RESPONSE","","","","","","","","sounds/B/FAM/W003.mp3","word","","","","","","","","","","","","","","","","","","","",""
"html-keyboard-response","244","1150916","0.0-7.0-1.0-0.8","2","0","8tyzz0ck534y7ud","","null","","","","null","","","","","","","","","","","","","","","","","","","","","","","","","","","","","","","",""
"audio-keyboard-response","245","1151860","0.0-7.0-1.0-1.8","2","0","8tyzz0ck534y7ud","","null","","sounds/B/FAM/N001.mp3","","null","","","","","","","","","","","","","","","","","","","","","","","","","","","","","","","",""
"html-keyboard-response","246","1154564","0.0-7.0-1.0-2.8","2","0","8tyzz0ck534y7ud","","2201.699999809265","","<p>How familiar did this sound to you?</p><p>1&nbsp;&nbsp;&nbsp;&nbsp;&nbsp;&nbsp;&nbsp;&nbsp;&nbsp;&nbsp;&nbsp;&nbsp;&nbsp;&nbsp;&nbsp;&nbsp;&nbsp;&nbsp;&nbsp;2&nbsp;&nbsp;&nbsp;&nbsp;&nbsp;&nbsp;&nbsp;&nbsp;&nbsp;&nbsp;&nbsp;&nbsp;&nbsp;&nbsp;&nbsp;&nbsp;&nbsp;&nbsp;&nbsp;3&nbsp;&nbsp;&nbsp;&nbsp;&nbsp;&nbsp;&nbsp;&nbsp;&nbsp;&nbsp;&nbsp;&nbsp;&nbsp;&nbsp;&nbsp;&nbsp;&nbsp;&nbsp;&nbsp;4</p><p style=""font-size:14px"">Not at all familiar&nbsp;&nbsp;&nbsp;&nbsp;A little familiar&nbsp;&nbsp;&nbsp;Moderately familiar&nbsp;&nbsp;&nbsp;Extremely familiar</p><p>(press the corresponding number on your keyboard)</p>","","51","","","FAM-RESPONSE","","","","","","","","sounds/B/FAM/N001.mp3","nonword","","","","","","","","","","","","","","","","","","","",""
"html-keyboard-response","247","1156568","0.0-7.0-1.0-0.9","2","0","8tyzz0ck534y7ud","","null","","","","null","","","","","","","","","","","","","","","","","","","","","","","","","","","","","","","",""
"audio-keyboard-response","248","1157510","0.0-7.0-1.0-1.9","2","0","8tyzz0ck534y7ud","","null","","sounds/B/FAM/P001.mp3","","null","","","","","","","","","","","","","","","","","","","","","","","","","","","","","","","",""
"html-keyboard-response","249","1158277","0.0-7.0-1.0-2.9","2","0","8tyzz0ck534y7ud","","264.09999990463257","","<p>How familiar did this sound to you?</p><p>1&nbsp;&nbsp;&nbsp;&nbsp;&nbsp;&nbsp;&nbsp;&nbsp;&nbsp;&nbsp;&nbsp;&nbsp;&nbsp;&nbsp;&nbsp;&nbsp;&nbsp;&nbsp;&nbsp;2&nbsp;&nbsp;&nbsp;&nbsp;&nbsp;&nbsp;&nbsp;&nbsp;&nbsp;&nbsp;&nbsp;&nbsp;&nbsp;&nbsp;&nbsp;&nbsp;&nbsp;&nbsp;&nbsp;3&nbsp;&nbsp;&nbsp;&nbsp;&nbsp;&nbsp;&nbsp;&nbsp;&nbsp;&nbsp;&nbsp;&nbsp;&nbsp;&nbsp;&nbsp;&nbsp;&nbsp;&nbsp;&nbsp;4</p><p style=""font-size:14px"">Not at all familiar&nbsp;&nbsp;&nbsp;&nbsp;A little familiar&nbsp;&nbsp;&nbsp;Moderately familiar&nbsp;&nbsp;&nbsp;Extremely familiar</p><p>(press the corresponding number on your keyboard)</p>","","52","","","FAM-RESPONSE","","","","","","","","sounds/B/FAM/P001.mp3","partword","","","","","","","","","","","","","","","","","","","",""
"html-keyboard-response","250","1160279","0.0-7.0-1.0-0.10","2","0","8tyzz0ck534y7ud","","null","","","","null","","","","","","","","","","","","","","","","","","","","","","","","","","","","","","","",""
"audio-keyboard-response","251","1161220","0.0-7.0-1.0-1.10","2","0","8tyzz0ck534y7ud","","null","","sounds/B/FAM/P003.mp3","","null","","","","","","","","","","","","","","","","","","","","","","","","","","","","","","","",""
"html-keyboard-response","252","1162110","0.0-7.0-1.0-2.10","2","0","8tyzz0ck534y7ud","","388.09999990463257","","<p>How familiar did this sound to you?</p><p>1&nbsp;&nbsp;&nbsp;&nbsp;&nbsp;&nbsp;&nbsp;&nbsp;&nbsp;&nbsp;&nbsp;&nbsp;&nbsp;&nbsp;&nbsp;&nbsp;&nbsp;&nbsp;&nbsp;2&nbsp;&nbsp;&nbsp;&nbsp;&nbsp;&nbsp;&nbsp;&nbsp;&nbsp;&nbsp;&nbsp;&nbsp;&nbsp;&nbsp;&nbsp;&nbsp;&nbsp;&nbsp;&nbsp;3&nbsp;&nbsp;&nbsp;&nbsp;&nbsp;&nbsp;&nbsp;&nbsp;&nbsp;&nbsp;&nbsp;&nbsp;&nbsp;&nbsp;&nbsp;&nbsp;&nbsp;&nbsp;&nbsp;4</p><p style=""font-size:14px"">Not at all familiar&nbsp;&nbsp;&nbsp;&nbsp;A little familiar&nbsp;&nbsp;&nbsp;Moderately familiar&nbsp;&nbsp;&nbsp;Extremely familiar</p><p>(press the corresponding number on your keyboard)</p>","","50","","","FAM-RESPONSE","","","","","","","","sounds/B/FAM/P003.mp3","partword","","","","","","","","","","","","","","","","","","","",""
"html-keyboard-response","253","1164113","0.0-7.0-1.0-0.11","2","0","8tyzz0ck534y7ud","","null","","","","null","","","","","","","","","","","","","","","","","","","","","","","","","","","","","","","",""
"audio-keyboard-response","254","1165061","0.0-7.0-1.0-1.11","2","0","8tyzz0ck534y7ud","","null","","sounds/B/FAM/W001.mp3","","null","","","","","","","","","","","","","","","","","","","","","","","","","","","","","","","",""
"html-keyboard-response","255","1166262","0.0-7.0-1.0-2.11","2","0","8tyzz0ck534y7ud","","699.5999999046326","","<p>How familiar did this sound to you?</p><p>1&nbsp;&nbsp;&nbsp;&nbsp;&nbsp;&nbsp;&nbsp;&nbsp;&nbsp;&nbsp;&nbsp;&nbsp;&nbsp;&nbsp;&nbsp;&nbsp;&nbsp;&nbsp;&nbsp;2&nbsp;&nbsp;&nbsp;&nbsp;&nbsp;&nbsp;&nbsp;&nbsp;&nbsp;&nbsp;&nbsp;&nbsp;&nbsp;&nbsp;&nbsp;&nbsp;&nbsp;&nbsp;&nbsp;3&nbsp;&nbsp;&nbsp;&nbsp;&nbsp;&nbsp;&nbsp;&nbsp;&nbsp;&nbsp;&nbsp;&nbsp;&nbsp;&nbsp;&nbsp;&nbsp;&nbsp;&nbsp;&nbsp;4</p><p style=""font-size:14px"">Not at all familiar&nbsp;&nbsp;&nbsp;&nbsp;A little familiar&nbsp;&nbsp;&nbsp;Moderately familiar&nbsp;&nbsp;&nbsp;Extremely familiar</p><p>(press the corresponding number on your keyboard)</p>","","50","","","FAM-RESPONSE","","","","","","","","sounds/B/FAM/W001.mp3","word","","","","","","","","","","","","","","","","","","","",""
"html-button-response","256","1184613","0.0-8.0-0.0","2","0","8tyzz0ck534y7ud","","17349","","<p>You will now listen to longer sound sequences.</p><p>Each sound sequence will last about 16 seconds.</p><p>On each trial, you will be given a <u>TARGET SOUND</u>. Your task is to listen very carefully for this sound.</p><p>Every time you hear the <u>TARGET SOUND</u>, you will press the <b>SPACEBAR</b> as quickly and accurately as you can.</p>","0","","","","","","","","","","","","","","","","","","","","","","","","","","","","","","","","",""
"html-button-response","257","1193828","0.0-8.0-1.0","2","0","8tyzz0ck534y7ud","","8961.400000095367","","<p>It is very important that you make your responses as quickly and accurately as possible.</p><p>To help you make your responses, you will be able to listen to the <u>TARGET SOUND</u> at the beginning of each trial.</p><p>There will be 36 total trials.</p><p><b>Note: This is meant to be a difficult task. We simply want you to try your best.</p>","0","","","","","","","","","","","","","","","","","","","","","","","","","","","","","","","","",""
"html-button-response","258","1195750","0.0-8.0-2.0-0.0","2","0","8tyzz0ck534y7ud","","1666","","<p>Trial 1 of 36</p>","0","","","","","","","","","","","","","","ME","sounds/syllables/me_SWS.wav","3000,9300,11100,12900","2","","","","","","","","","","","","","","","",""
"html-keyboard-response","259","1201335","0.0-8.0-2.0-1.0","2","0","8tyzz0ck534y7ud","","5584","","","","80","","","","","","","","","","","","","ME","","3000,9300,11100,12900","2","","","","","","","","","","","","","","","",""
"audio-keyboard-response","260","1201670","0.0-8.0-2.0-2.0-0.0","2","0","8tyzz0ck534y7ud","","null","","sounds/syllables/me_SWS.wav","","null","","","","","","","","","","","","","","","","","","","","","","","","","","","","","","","",""
"html-keyboard-response","261","1215834","0.0-8.0-2.0-2.0-1.0","2","0","8tyzz0ck534y7ud","","14162.900000095367","","<p>To replay the <u>TARGET SOUND</u>, press P.</p> When you are ready to begin, press SPACEBAR.","","80","","","","","","","","","","","","","","","","","","","","","","","","","","","","","","","",""
"audio-keyboard-response","262","1216631","0.0-8.0-2.0-2.1-0.1","2","0","8tyzz0ck534y7ud","","null","","sounds/syllables/me_SWS.wav","","null","","","","","","","","","","","","","","","","","","","","","","","","","","","","","","","",""
"html-keyboard-response","263","1223064","0.0-8.0-2.0-2.1-1.1","2","0","8tyzz0ck534y7ud","","6431.299999713898","","<p>To replay the <u>TARGET SOUND</u>, press P.</p> When you are ready to begin, press SPACEBAR.","","32","","","","","","","","","","","","","","","","","","","","","","","","","","","","","","","",""
"audio-keyboard-response","264","1238012","0.0-8.0-2.0-3.0","2","0","8tyzz0ck534y7ud","","6720","","sounds/B/TD/ME_05_TD.mp3","","32","","","TD_SUMMARY","","","","","","","","","","ME","","3000,9300,11100,12900","2","3000","9300","11100","12900","null","null","null","null","6717.699999809265_8290.900000095367","2","","","","","",""
"html-button-response","265","1242646","0.0-8.0-2.0-0.1","2","0","8tyzz0ck534y7ud","","4629.700000286102","","<p>Trial 2 of 36</p>","0","","","","","","","","","","","","","","GE","sounds/syllables/ge_SWS.wav","900,4500,6300,8100","1","","","","","","","","","","","","","","","",""
"html-keyboard-response","266","1244041","0.0-8.0-2.0-1.1","2","0","8tyzz0ck534y7ud","","1391.5","","","","80","","","","","","","","","","","","","GE","","900,4500,6300,8100","1","","","","","","","","","","","","","","","",""
"audio-keyboard-response","267","1244341","0.0-8.0-2.0-2.2-0.2","2","0","8tyzz0ck534y7ud","","null","","sounds/syllables/ge_SWS.wav","","null","","","","","","","","","","","","","","","","","","","","","","","","","","","","","","","",""
"html-keyboard-response","268","1244888","0.0-8.0-2.0-2.2-1.2","2","0","8tyzz0ck534y7ud","","546.0999999046326","","<p>To replay the <u>TARGET SOUND</u>, press P.</p> When you are ready to begin, press SPACEBAR.","","80","","","","","","","","","","","","","","","","","","","","","","","","","","","","","","","",""
"audio-keyboard-response","269","1245692","0.0-8.0-2.0-2.3-0.3","2","0","8tyzz0ck534y7ud","","null","","sounds/syllables/ge_SWS.wav","","null","","","","","","","","","","","","","","","","","","","","","","","","","","","","","","","",""
"html-keyboard-response","270","1246085","0.0-8.0-2.0-2.3-1.3","2","0","8tyzz0ck534y7ud","","388.80000019073486","","<p>To replay the <u>TARGET SOUND</u>, press P.</p> When you are ready to begin, press SPACEBAR.","","80","","","","","","","","","","","","","","","","","","","","","","","","","","","","","","","",""
"audio-keyboard-response","271","1246891","0.0-8.0-2.0-2.4-0.4","2","0","8tyzz0ck534y7ud","","null","","sounds/syllables/ge_SWS.wav","","null","","","","","","","","","","","","","","","","","","","","","","","","","","","","","","","",""
"html-keyboard-response","272","1247167","0.0-8.0-2.0-2.4-1.4","2","0","8tyzz0ck534y7ud","","274.5","","<p>To replay the <u>TARGET SOUND</u>, press P.</p> When you are ready to begin, press SPACEBAR.","","80","","","","","","","","","","","","","","","","","","","","","","","","","","","","","","","",""
"audio-keyboard-response","273","1247972","0.0-8.0-2.0-2.5-0.5","2","0","8tyzz0ck534y7ud","","null","","sounds/syllables/ge_SWS.wav","","null","","","","","","","","","","","","","","","","","","","","","","","","","","","","","","","",""
"html-keyboard-response","274","1248210","0.0-8.0-2.0-2.5-1.5","2","0","8tyzz0ck534y7ud","","237.40000009536743","","<p>To replay the <u>TARGET SOUND</u>, press P.</p> When you are ready to begin, press SPACEBAR.","","80","","","","","","","","","","","","","","","","","","","","","","","","","","","","","","","",""
"audio-keyboard-response","275","1249021","0.0-8.0-2.0-2.6-0.6","2","0","8tyzz0ck534y7ud","","null","","sounds/syllables/ge_SWS.wav","","null","","","","","","","","","","","","","","","","","","","","","","","","","","","","","","","",""
"html-keyboard-response","276","1249666","0.0-8.0-2.0-2.6-1.6","2","0","8tyzz0ck534y7ud","","644.0999999046326","","<p>To replay the <u>TARGET SOUND</u>, press P.</p> When you are ready to begin, press SPACEBAR.","","80","","","","","","","","","","","","","","","","","","","","","","","","","","","","","","","",""
"audio-keyboard-response","277","1250461","0.0-8.0-2.0-2.7-0.7","2","0","8tyzz0ck534y7ud","","null","","sounds/syllables/ge_SWS.wav","","null","","","","","","","","","","","","","","","","","","","","","","","","","","","","","","","",""
"html-keyboard-response","278","1250932","0.0-8.0-2.0-2.7-1.7","2","0","8tyzz0ck534y7ud","","470.2000002861023","","<p>To replay the <u>TARGET SOUND</u>, press P.</p> When you are ready to begin, press SPACEBAR.","","32","","","","","","","","","","","","","","","","","","","","","","","","","","","","","","","",""
"audio-keyboard-response","279","1265882","0.0-8.0-2.0-3.1","2","0","8tyzz0ck534y7ud","","560","","sounds/B/TD/GE_01_TD.mp3","","32","","","TD_SUMMARY","","","","","","","","","","GE","","900,4500,6300,8100","1","900","4500","6300","8100","638.2000002861023","997.5999999046326","1199.8000001907349","1039.3000001907349","__562.9000000953674_1538.2000002861023_3044.5999999046326_3169.9000000953674_3321_4204.300000190735_4543.200000286102_5497.599999904633_5736.5_6833.300000190735_6989.5_7316_7499.800000190735_8422_8600.700000286102_8851.900000095367_9139.300000190735_9891.900000095367_10113.099999904633_11697.200000286102_11989.200000286102","6","","","","","",""
"html-button-response","280","1266942","0.0-8.0-2.0-0.2","2","0","8tyzz0ck534y7ud","","1055.5","","<p>Trial 3 of 36</p>","0","","","","","","","","","","","","","","NI","sounds/syllables/ni_SWS.wav","3000,8400,10200,12900","2","","","","","","","","","","","","","","","",""
"html-keyboard-response","281","1268062","0.0-8.0-2.0-1.2","2","0","8tyzz0ck534y7ud","","1118.9000000953674","","","","80","","","","","","","","","","","","","NI","","3000,8400,10200,12900","2","","","","","","","","","","","","","","","",""
"audio-keyboard-response","282","1268371","0.0-8.0-2.0-2.8-0.8","2","0","8tyzz0ck534y7ud","","null","","sounds/syllables/ni_SWS.wav","","null","","","","","","","","","","","","","","","","","","","","","","","","","","","","","","","",""
"html-keyboard-response","283","1268870","0.0-8.0-2.0-2.8-1.8","2","0","8tyzz0ck534y7ud","","498","","<p>To replay the <u>TARGET SOUND</u>, press P.</p> When you are ready to begin, press SPACEBAR.","","80","","","","","","","","","","","","","","","","","","","","","","","","","","","","","","","",""
"audio-keyboard-response","284","1269672","0.0-8.0-2.0-2.9-0.9","2","0","8tyzz0ck534y7ud","","null","","sounds/syllables/ni_SWS.wav","","null","","","","","","","","","","","","","","","","","","","","","","","","","","","","","","","",""
"html-keyboard-response","285","1269955","0.0-8.0-2.0-2.9-1.9","2","0","8tyzz0ck534y7ud","","282.2000002861023","","<p>To replay the <u>TARGET SOUND</u>, press P.</p> When you are ready to begin, press SPACEBAR.","","80","","","","","","","","","","","","","","","","","","","","","","","","","","","","","","","",""
"audio-keyboard-response","286","1270751","0.0-8.0-2.0-2.10-0.10","2","0","8tyzz0ck534y7ud","","null","","sounds/syllables/ni_SWS.wav","","null","","","","","","","","","","","","","","","","","","","","","","","","","","","","","","","",""
"html-keyboard-response","287","1270935","0.0-8.0-2.0-2.10-1.10","2","0","8tyzz0ck534y7ud","","182.7000002861023","","<p>To replay the <u>TARGET SOUND</u>, press P.</p> When you are ready to begin, press SPACEBAR.","","80","","","","","","","","","","","","","","","","","","","","","","","","","","","","","","","",""
"audio-keyboard-response","288","1271742","0.0-8.0-2.0-2.11-0.11","2","0","8tyzz0ck534y7ud","","null","","sounds/syllables/ni_SWS.wav","","null","","","","","","","","","","","","","","","","","","","","","","","","","","","","","","","",""
"html-keyboard-response","289","1272177","0.0-8.0-2.0-2.11-1.11","2","0","8tyzz0ck534y7ud","","433.09999990463257","","<p>To replay the <u>TARGET SOUND</u>, press P.</p> When you are ready to begin, press SPACEBAR.","","80","","","","","","","","","","","","","","","","","","","","","","","","","","","","","","","",""
"audio-keyboard-response","290","1272981","0.0-8.0-2.0-2.12-0.12","2","0","8tyzz0ck534y7ud","","null","","sounds/syllables/ni_SWS.wav","","null","","","","","","","","","","","","","","","","","","","","","","","","","","","","","","","",""
"html-keyboard-response","291","1273341","0.0-8.0-2.0-2.12-1.12","2","0","8tyzz0ck534y7ud","","359.5","","<p>To replay the <u>TARGET SOUND</u>, press P.</p> When you are ready to begin, press SPACEBAR.","","32","","","","","","","","","","","","","","","","","","","","","","","","","","","","","","","",""
"audio-keyboard-response","292","1288292","0.0-8.0-2.0-3.2","2","0","8tyzz0ck534y7ud","","1651","","sounds/B/TD/NI_04_TD.mp3","","32","","","TD_SUMMARY","","","","","","","","","","NI","","3000,8400,10200,12900","2","3000","8400","10200","12900","580.0999999046326","1151.4000000953674","464.09999990463257","524.5999999046326","_______________________1654.8000001907349_3580.0999999046326_5228.300000190735_7988.099999904633_8962.900000095367_9551.400000095367_10664.099999904633_11929.200000286102_13424.599999904633","5","","","","","",""
"html-button-response","293","1289324","0.0-8.0-2.0-0.3","2","0","8tyzz0ck534y7ud","","1028.2999997138977","","<p>Trial 4 of 36</p>","0","","","","","","","","","","","","","","TI","sounds/syllables/ti_SWS.wav","4500,6300,9000,11700","1","","","","","","","","","","","","","","","",""
"html-keyboard-response","294","1291593","0.0-8.0-2.0-1.3","2","0","8tyzz0ck534y7ud","","2267.699999809265","","","","80","","","","","","","","","","","","","TI","","4500,6300,9000,11700","1","","","","","","","","","","","","","","","",""
"audio-keyboard-response","295","1291901","0.0-8.0-2.0-2.13-0.13","2","0","8tyzz0ck534y7ud","","null","","sounds/syllables/ti_SWS.wav","","null","","","","","","","","","","","","","","","","","","","","","","","","","","","","","","","",""
"html-keyboard-response","296","1292234","0.0-8.0-2.0-2.13-1.13","2","0","8tyzz0ck534y7ud","","333.09999990463257","","<p>To replay the <u>TARGET SOUND</u>, press P.</p> When you are ready to begin, press SPACEBAR.","","80","","","","","","","","","","","","","","","","","","","","","","","","","","","","","","","",""
"audio-keyboard-response","297","1293032","0.0-8.0-2.0-2.14-0.14","2","0","8tyzz0ck534y7ud","","null","","sounds/syllables/ti_SWS.wav","","null","","","","","","","","","","","","","","","","","","","","","","","","","","","","","","","",""
"html-keyboard-response","298","1293265","0.0-8.0-2.0-2.14-1.14","2","0","8tyzz0ck534y7ud","","231.59999990463257","","<p>To replay the <u>TARGET SOUND</u>, press P.</p> When you are ready to begin, press SPACEBAR.","","80","","","","","","","","","","","","","","","","","","","","","","","","","","","","","","","",""
"audio-keyboard-response","299","1294061","0.0-8.0-2.0-2.15-0.15","2","0","8tyzz0ck534y7ud","","null","","sounds/syllables/ti_SWS.wav","","null","","","","","","","","","","","","","","","","","","","","","","","","","","","","","","","",""
"html-keyboard-response","300","1294349","0.0-8.0-2.0-2.15-1.15","2","0","8tyzz0ck534y7ud","","286.40000009536743","","<p>To replay the <u>TARGET SOUND</u>, press P.</p> When you are ready to begin, press SPACEBAR.","","32","","","","","","","","","","","","","","","","","","","","","","","","","","","","","","","",""
"audio-keyboard-response","301","1309302","0.0-8.0-2.0-3.3","2","0","8tyzz0ck534y7ud","","909","","sounds/B/TD/TI_02_TD.mp3","","32","","","TD_SUMMARY","","","","","","","","","","TI","","4500,6300,9000,11700","1","4500","6300","9000","11700","null","null","442.90000009536743","null","________________________________917.9000000953674_2033_2815.0999999046326_3883_6214.199999809265_9442.900000095367","3","","","","","",""
"html-button-response","302","1311218","0.0-8.0-2.0-0.4","2","0","8tyzz0ck534y7ud","","1913.5999999046326","","<p>Trial 5 of 36</p>","0","","","","","","","","","","","","","","ME","sounds/syllables/me_SWS.wav","2100,3900,8400,12000","2","","","","","","","","","","","","","","","",""
"html-keyboard-response","303","1311983","0.0-8.0-2.0-1.4","2","0","8tyzz0ck534y7ud","","764.5999999046326","","","","80","","","","","","","","","","","","","ME","","2100,3900,8400,12000","2","","","","","","","","","","","","","","","",""
"audio-keyboard-response","304","1312292","0.0-8.0-2.0-2.16-0.16","2","0","8tyzz0ck534y7ud","","null","","sounds/syllables/me_SWS.wav","","null","","","","","","","","","","","","","","","","","","","","","","","","","","","","","","","",""
"html-keyboard-response","305","1312687","0.0-8.0-2.0-2.16-1.16","2","0","8tyzz0ck534y7ud","","394.5","","<p>To replay the <u>TARGET SOUND</u>, press P.</p> When you are ready to begin, press SPACEBAR.","","80","","","","","","","","","","","","","","","","","","","","","","","","","","","","","","","",""
"audio-keyboard-response","306","1313492","0.0-8.0-2.0-2.17-0.17","2","0","8tyzz0ck534y7ud","","null","","sounds/syllables/me_SWS.wav","","null","","","","","","","","","","","","","","","","","","","","","","","","","","","","","","","",""
"html-keyboard-response","307","1313754","0.0-8.0-2.0-2.17-1.17","2","0","8tyzz0ck534y7ud","","261.40000009536743","","<p>To replay the <u>TARGET SOUND</u>, press P.</p> When you are ready to begin, press SPACEBAR.","","32","","","","","","","","","","","","","","","","","","","","","","","","","","","","","","","",""
"audio-keyboard-response","308","1328701","0.0-8.0-2.0-3.4","2","0","8tyzz0ck534y7ud","","2429","","sounds/B/TD/ME_06_TD.mp3","","32","","","TD_SUMMARY","","","","","","","","","","ME","","2100,3900,8400,12000","2","2100","3900","8400","12000","932.2000002861023","1036.2000002861023","446.40000009536743","927.5999999046326","______________________________________2424.7000002861023_2863.9000000953674_3032.2000002861023_3930.9000000953674_4777.5_4936.200000286102_7530.5_7726.200000286102_8846.400000095367_9906.800000190735_12279.300000190735_12493_12752.5_12927.599999904633_13838","2","","","","","",""
"html-button-response","309","1329931","0.0-8.0-2.0-0.5","2","0","8tyzz0ck534y7ud","","1227.3000001907349","","<p>Trial 6 of 36</p>","0","","","","","","","","","","","","","","TI","sounds/syllables/ti_SWS.wav","900,7200,9000,11700","1","","","","","","","","","","","","","","","",""
"html-keyboard-response","310","1330639","0.0-8.0-2.0-1.5","2","0","8tyzz0ck534y7ud","","706.5999999046326","","","","80","","","","","","","","","","","","","TI","","900,7200,9000,11700","1","","","","","","","","","","","","","","","",""
"audio-keyboard-response","311","1330942","0.0-8.0-2.0-2.18-0.18","2","0","8tyzz0ck534y7ud","","null","","sounds/syllables/ti_SWS.wav","","null","","","","","","","","","","","","","","","","","","","","","","","","","","","","","","","",""
"html-keyboard-response","312","1331312","0.0-8.0-2.0-2.18-1.18","2","0","8tyzz0ck534y7ud","","368.69999980926514","","<p>To replay the <u>TARGET SOUND</u>, press P.</p> When you are ready to begin, press SPACEBAR.","","80","","","","","","","","","","","","","","","","","","","","","","","","","","","","","","","",""
"audio-keyboard-response","313","1332112","0.0-8.0-2.0-2.19-0.19","2","0","8tyzz0ck534y7ud","","null","","sounds/syllables/ti_SWS.wav","","null","","","","","","","","","","","","","","","","","","","","","","","","","","","","","","","",""
"html-keyboard-response","314","1332367","0.0-8.0-2.0-2.19-1.19","2","0","8tyzz0ck534y7ud","","254.40000009536743","","<p>To replay the <u>TARGET SOUND</u>, press P.</p> When you are ready to begin, press SPACEBAR.","","32","","","","","","","","","","","","","","","","","","","","","","","","","","","","","","","",""
"audio-keyboard-response","315","1347313","0.0-8.0-2.0-3.5","2","0","8tyzz0ck534y7ud","","1539","","sounds/B/TD/TI_04_TD.mp3","","32","","","TD_SUMMARY","","","","","","","","","","TI","","900,7200,9000,11700","1","900","7200","9000","11700","635","688.0999999046326","769.3999996185303","null","_____________________________________________________1535_5724.699999809265_7888.099999904633_9769.39999961853","2","","","","","",""
"html-button-response","316","1348561","0.0-8.0-2.0-0.6","2","0","8tyzz0ck534y7ud","","1244.5","","<p>Trial 7 of 36</p>","0","","","","","","","","","","","","","","TA","sounds/syllables/ta_SWS.wav","1500,3300,9600,11400","3","","","","","","","","","","","","","","","",""
"html-keyboard-response","317","1349134","0.0-8.0-2.0-1.6","2","0","8tyzz0ck534y7ud","","570.1999998092651","","","","80","","","","","","","","","","","","","TA","","1500,3300,9600,11400","3","","","","","","","","","","","","","","","",""
"audio-keyboard-response","318","1349432","0.0-8.0-2.0-2.20-0.20","2","0","8tyzz0ck534y7ud","","null","","sounds/syllables/ta_SWS.wav","","null","","","","","","","","","","","","","","","","","","","","","","","","","","","","","","","",""
"html-keyboard-response","319","1349838","0.0-8.0-2.0-2.20-1.20","2","0","8tyzz0ck534y7ud","","405.59999990463257","","<p>To replay the <u>TARGET SOUND</u>, press P.</p> When you are ready to begin, press SPACEBAR.","","80","","","","","","","","","","","","","","","","","","","","","","","","","","","","","","","",""
"audio-keyboard-response","320","1350632","0.0-8.0-2.0-2.21-0.21","2","0","8tyzz0ck534y7ud","","null","","sounds/syllables/ta_SWS.wav","","null","","","","","","","","","","","","","","","","","","","","","","","","","","","","","","","",""
"html-keyboard-response","321","1350851","0.0-8.0-2.0-2.21-1.21","2","0","8tyzz0ck534y7ud","","218.2999997138977","","<p>To replay the <u>TARGET SOUND</u>, press P.</p> When you are ready to begin, press SPACEBAR.","","32","","","","","","","","","","","","","","","","","","","","","","","","","","","","","","","",""
"audio-keyboard-response","322","1365802","0.0-8.0-2.0-3.6","2","0","8tyzz0ck534y7ud","","2240","","sounds/B/TD/TA_02_TD.mp3","","32","","","TD_SUMMARY","","","","","","","","","","TA","","1500,3300,9600,11400","3","1500","3300","9600","11400","740.9000000953674","855.3000001907349","771.6000003814697","694.9000000953674","_________________________________________________________2240.9000000953674_4155.300000190735_7285.10000038147_9157.800000190735_10371.60000038147_12094.900000095367_14367.200000286102","2","","","","","",""
"html-button-response","323","1368019","0.0-8.0-2.0-0.7","2","0","8tyzz0ck534y7ud","","2214.800000190735","","<p>Trial 8 of 36</p>","0","","","","","","","","","","","","","","RE","sounds/syllables/re_SWS.wav","3300,6000,9600,11400","3","","","","","","","","","","","","","","","",""
"html-keyboard-response","324","1368467","0.0-8.0-2.0-1.7","2","0","8tyzz0ck534y7ud","","447","","","","80","","","","","","","","","","","","","RE","","3300,6000,9600,11400","3","","","","","","","","","","","","","","","",""
"audio-keyboard-response","325","1368771","0.0-8.0-2.0-2.22-0.22","2","0","8tyzz0ck534y7ud","","null","","sounds/syllables/re_SWS.wav","","null","","","","","","","","","","","","","","","","","","","","","","","","","","","","","","","",""
"html-keyboard-response","326","1369124","0.0-8.0-2.0-2.22-1.22","2","0","8tyzz0ck534y7ud","","352.40000009536743","","<p>To replay the <u>TARGET SOUND</u>, press P.</p> When you are ready to begin, press SPACEBAR.","","80","","","","","","","","","","","","","","","","","","","","","","","","","","","","","","","",""
"audio-keyboard-response","327","1369931","0.0-8.0-2.0-2.23-0.23","2","0","8tyzz0ck534y7ud","","null","","sounds/syllables/re_SWS.wav","","null","","","","","","","","","","","","","","","","","","","","","","","","","","","","","","","",""
"html-keyboard-response","328","1370166","0.0-8.0-2.0-2.23-1.23","2","0","8tyzz0ck534y7ud","","234","","<p>To replay the <u>TARGET SOUND</u>, press P.</p> When you are ready to begin, press SPACEBAR.","","32","","","","","","","","","","","","","","","","","","","","","","","","","","","","","","","",""
"audio-keyboard-response","329","1385113","0.0-8.0-2.0-3.7","2","0","8tyzz0ck534y7ud","","3040","","sounds/B/TD/RE_02_TD.mp3","","32","","","TD_SUMMARY","","","","","","","","","","RE","","3300,6000,9600,11400","3","3300","6000","9600","11400","777.5","710.8000001907349","null","null","________________________________________________________________3038.6000003814697_3515.6000003814697_3802.9000000953674_4077.5_5990_6310.10000038147_6485.900000095367_6710.800000190735_11410.5_13334.60000038147","2","","","","","",""
"html-button-response","330","1386822","0.0-8.0-2.0-0.8","2","0","8tyzz0ck534y7ud","","1704.8999996185303","","<p>Trial 9 of 36</p>","0","","","","","","","","","","","","","","FE","sounds/syllables/fe_SWS.wav","1500,3300,6000,8700","3","","","","","","","","","","","","","","","",""
"html-keyboard-response","331","1387813","0.0-8.0-2.0-1.8","2","0","8tyzz0ck534y7ud","","989.3000001907349","","","","80","","","","","","","","","","","","","FE","","1500,3300,6000,8700","3","","","","","","","","","","","","","","","",""
"audio-keyboard-response","332","1388111","0.0-8.0-2.0-2.24-0.24","2","0","8tyzz0ck534y7ud","","null","","sounds/syllables/fe_SWS.wav","","null","","","","","","","","","","","","","","","","","","","","","","","","","","","","","","","",""
"html-keyboard-response","333","1388528","0.0-8.0-2.0-2.24-1.24","2","0","8tyzz0ck534y7ud","","415.7000002861023","","<p>To replay the <u>TARGET SOUND</u>, press P.</p> When you are ready to begin, press SPACEBAR.","","80","","","","","","","","","","","","","","","","","","","","","","","","","","","","","","","",""
"audio-keyboard-response","334","1389331","0.0-8.0-2.0-2.25-0.25","2","0","8tyzz0ck534y7ud","","null","","sounds/syllables/fe_SWS.wav","","null","","","","","","","","","","","","","","","","","","","","","","","","","","","","","","","",""
"html-keyboard-response","335","1390121","0.0-8.0-2.0-2.25-1.25","2","0","8tyzz0ck534y7ud","","788.0999999046326","","<p>To replay the <u>TARGET SOUND</u>, press P.</p> When you are ready to begin, press SPACEBAR.","","32","","","","","","","","","","","","","","","","","","","","","","","","","","","","","","","",""
"audio-keyboard-response","336","1405073","0.0-8.0-2.0-3.8","2","0","8tyzz0ck534y7ud","","560","","sounds/B/TD/FE_02_TD.mp3","","32","","","TD_SUMMARY","","","","","","","","","","FE","","1500,3300,6000,8700","3","1500","3300","6000","8700","655.0999999046326","null","1192.2999997138977","911.5999999046326","__________________________________________________________________________565.1999998092651_855.5_1123.4000000953674_2155.0999999046326_4652.400000095367_7192.299999713898_9611.599999904633","2","","","","","",""
"html-button-response","337","1406702","0.0-8.0-2.0-0.9","2","0","8tyzz0ck534y7ud","","1625","","<p>Trial 10 of 36</p>","0","","","","","","","","","","","","","","RE","sounds/syllables/re_SWS.wav","1500,5100,7800,11400","3","","","","","","","","","","","","","","","",""
