"trial_type","trial_index","time_elapsed","internal_node_id","counterbalance","lang_instruct","ParticipantID","view_history","rt","url","stimulus","button_pressed","key_press","correctRESP","correct","designation","location","correctanswer","responses","sentence","keywords","typed_resp","keyword1_acc","keyword2_acc","keyword3_acc","keyword4_acc","keyword5_acc","total_acc","prop_acc","timeouts","pause_rt01","pause_rt02","train_file","numKeyPress","sound","fam_type","SYLLABLE","EXEMPLAR","TD_LOCS","TD_TYPE","TDLOC_01","TDLOC_02","TDLOC_03","TDLOC_04","TD_RT_01","TD_RT_02","TD_RT_03","TD_RT_04","TD_SUBJ_RTs","number_of_plays","slider_start","response","question_order","syllable","syllable_type"
"pavlovia","0","4","0.0-0.0","2","1","re9agk8723kx2mj","","","","","","","","","","","","","","","","","","","","","","","","","","","","","","","","","","","","","","","","","","","","","","","",""
"instructions","1","4777","0.0-1.0","2","1","re9agk8723kx2mj","[{""page_index"":0,""viewing_time"":1259},{""page_index"":1,""viewing_time"":3510}]","4773","","","","","","","","","","","","","","","","","","","","","","","","","","","","","","","","","","","","","","","","","","","","","",""
"external-html","2","6908","0.0-2.0","2","1","re9agk8723kx2mj","","2130","consent/consent.html","","","","","","","","","","","","","","","","","","","","","","","","","","","","","","","","","","","","","","","","","","","","",""
"html-button-response","3","8126","0.0-3.0-0.0-0.0","2","1","re9agk8723kx2mj","","1208","","<p>Welcome to the study. You will first complete a short volume calibration and headphone check.</p><p>Please make sure you are in a quiet listening environment, that you are wearing headphones, and that your computer's volume is turned on.<p></p>","0","","","","","","","","","","","","","","","","","","","","","","","","","","","","","","","","","","","","","","","","","","",""
"html-button-response","4","9952","0.0-3.0-0.0-1.0","2","1","re9agk8723kx2mj","","1573","","<p>The volume calibration will be first.</p><p>You will hear a thirty-second noise. Please adjust your computer's volume so that this noise is being presented at a comfortable level.<p></p>","0","","","","","","","","","","","","","","","","","","","","","","","","","","","","","","","","","","","","","","","","","","",""
"audio-button-response","5","11883","0.0-3.0-0.0-2.0","2","1","re9agk8723kx2mj","","1107","","audCalib/volumetest.mp3","0","","","","","","","","","","","","","","","","","","","","","","","","","","","","","","","","","","","","","","","","","","",""
"html-button-response","6","13003","0.0-3.0-1.0-0.0","2","1","re9agk8723kx2mj","","1120","","<p>You will now complete a short headphone check.</p><p>On each trial, you will hear three tones. One of these tones will be quieter than the others. Your task is to identify whether the quiet tone occured first, second, or third.</p><p>There are six trials in total.<p></p>","0","","","","","","","","","","","","","","","","","","","","","","","","","","","","","","","","","","","","","","","","","","",""
"html-keyboard-response","7","13756","0.0-3.0-1.0-1.0-0.0","2","1","re9agk8723kx2mj","","null","","<div style=""font-size:60px;"">+</div>","","null","","","","","","","","","","","","","","","","","","","","","","","","","","","","","","","","","","","","","","","","","",""
"audio-button-response","8","17654","0.0-3.0-1.0-1.0-1.0","2","1","re9agk8723kx2mj","","3896","","audCalib/t3_1.mp3","2","","2","1","headphone-test","","","","","","","","","","","","","","","","","","","","","","","","","","","","","","","","","","","","","","",""
"html-keyboard-response","9","18406","0.0-3.0-1.0-1.0-0.1","2","1","re9agk8723kx2mj","","null","","<div style=""font-size:60px;"">+</div>","","null","","","","","","","","","","","","","","","","","","","","","","","","","","","","","","","","","","","","","","","","","",""
"audio-button-response","10","22396","0.0-3.0-1.0-1.0-1.1","2","1","re9agk8723kx2mj","","3989","","audCalib/t3_2.mp3","2","","2","1","headphone-test","","","","","","","","","","","","","","","","","","","","","","","","","","","","","","","","","","","","","","",""
"html-keyboard-response","11","23149","0.0-3.0-1.0-1.0-0.2","2","1","re9agk8723kx2mj","","null","","<div style=""font-size:60px;"">+</div>","","null","","","","","","","","","","","","","","","","","","","","","","","","","","","","","","","","","","","","","","","","","",""
"audio-button-response","12","27632","0.0-3.0-1.0-1.0-1.2","2","1","re9agk8723kx2mj","","4483","","audCalib/t2_1.mp3","1","","1","1","headphone-test","","","","","","","","","","","","","","","","","","","","","","","","","","","","","","","","","","","","","","",""
"html-keyboard-response","13","28385","0.0-3.0-1.0-1.0-0.3","2","1","re9agk8723kx2mj","","null","","<div style=""font-size:60px;"">+</div>","","null","","","","","","","","","","","","","","","","","","","","","","","","","","","","","","","","","","","","","","","","","",""
"audio-button-response","14","29707","0.0-3.0-1.0-1.0-1.3","2","1","re9agk8723kx2mj","","1320","","audCalib/t1_1.mp3","0","","0","1","headphone-test","","","","","","","","","","","","","","","","","","","","","","","","","","","","","","","","","","","","","","",""
"html-keyboard-response","15","30460","0.0-3.0-1.0-1.0-0.4","2","1","re9agk8723kx2mj","","null","","<div style=""font-size:60px;"">+</div>","","null","","","","","","","","","","","","","","","","","","","","","","","","","","","","","","","","","","","","","","","","","",""
"audio-button-response","16","35248","0.0-3.0-1.0-1.0-1.4","2","1","re9agk8723kx2mj","","4787","","audCalib/t2_2.mp3","1","","1","1","headphone-test","","","","","","","","","","","","","","","","","","","","","","","","","","","","","","","","","","","","","","",""
"html-keyboard-response","17","36000","0.0-3.0-1.0-1.0-0.5","2","1","re9agk8723kx2mj","","null","","<div style=""font-size:60px;"">+</div>","","null","","","","","","","","","","","","","","","","","","","","","","","","","","","","","","","","","","","","","","","","","",""
"audio-button-response","18","40145","0.0-3.0-1.0-1.0-1.5","2","1","re9agk8723kx2mj","","4144","","audCalib/t1_2.mp3","0","","0","1","headphone-test","","","","","","","","","","","","","","","","","","","","","","","","","","","","","","","","","","","","","","",""
"html-button-response","19","41701","0.0-3.0-2.0","2","1","re9agk8723kx2mj","","1305","","<p>The volume calibration and headphone check are now complete.</p>","0","","","","","","","","","","","","","","","","","","","","","","","","","","","","","","","","","","","","","","","","","","",""
"instructions","20","46780","0.0-4.0-0.0","2","1","re9agk8723kx2mj","[{""page_index"":0,""viewing_time"":987},{""page_index"":1,""viewing_time"":2922},{""page_index"":2,""viewing_time"":1169.0000000000073}]","5078.000000000007","","","","","","","","","","","","","","","","","","","","","","","","","","","","","","","","","","","","","","","","","","","","","",""
"audio-keyboard-response","21","47080","0.0-4.0-1.0-0.0","2","1","re9agk8723kx2mj","","null","","sounds/induction/right/re_SWS.wav","","null","","","","","","","","","","","","","","","","","","","","","","","","","","","","","","","","","","","","","","","","","",""
"html-button-response","22","48295","0.0-4.0-1.0-1.0","2","1","re9agk8723kx2mj","","1215","","What sound did you hear?","1","","","1","INDUCTION-JUDGMENT","right","1","","","","","","","","","","","","","","","","","","","","","","","","","","","","","","","","","","","","",""
"html-keyboard-response","23","49297","0.0-4.0-1.0-2.0","2","1","re9agk8723kx2mj","","null","","<p style=""color:green;""><b>Correct!</b></p>","","null","","","","","","","","","","","","","","","","","","","","","","","","","","","","","","","","","","","","","","","","","",""
"audio-keyboard-response","24","50098","0.0-4.0-1.0-0.1","2","1","re9agk8723kx2mj","","null","","sounds/induction/left/ni_SWS.wav","","null","","","","","","","","","","","","","","","","","","","","","","","","","","","","","","","","","","","","","","","","","",""
"html-button-response","25","51267","0.0-4.0-1.0-1.1","2","1","re9agk8723kx2mj","","1168","","What sound did you hear?","1","","","1","INDUCTION-JUDGMENT","left","1","","","","","","","","","","","","","","","","","","","","","","","","","","","","","","","","","","","","",""
"html-keyboard-response","26","52269","0.0-4.0-1.0-2.1","2","1","re9agk8723kx2mj","","null","","<p style=""color:green;""><b>Correct!</b></p>","","null","","","","","","","","","","","","","","","","","","","","","","","","","","","","","","","","","","","","","","","","","",""
"audio-keyboard-response","27","53072","0.0-4.0-1.0-0.2","2","1","re9agk8723kx2mj","","null","","sounds/induction/left/su_SWS.wav","","null","","","","","","","","","","","","","","","","","","","","","","","","","","","","","","","","","","","","","","","","","",""
"html-button-response","28","54149","0.0-4.0-1.0-1.2","2","1","re9agk8723kx2mj","","1077","","What sound did you hear?","0","","","1","INDUCTION-JUDGMENT","left","0","","","","","","","","","","","","","","","","","","","","","","","","","","","","","","","","","","","","",""
"html-keyboard-response","29","55151","0.0-4.0-1.0-2.2","2","1","re9agk8723kx2mj","","null","","<p style=""color:green;""><b>Correct!</b></p>","","null","","","","","","","","","","","","","","","","","","","","","","","","","","","","","","","","","","","","","","","","","",""
"audio-keyboard-response","30","55952","0.0-4.0-1.0-0.3","2","1","re9agk8723kx2mj","","null","","sounds/induction/left/ta_SWS.wav","","null","","","","","","","","","","","","","","","","","","","","","","","","","","","","","","","","","","","","","","","","","",""
"html-button-response","31","56667","0.0-4.0-1.0-1.3","2","1","re9agk8723kx2mj","","715","","What sound did you hear?","0","","","1","INDUCTION-JUDGMENT","left","0","","","","","","","","","","","","","","","","","","","","","","","","","","","","","","","","","","","","",""
"html-keyboard-response","32","57668","0.0-4.0-1.0-2.3","2","1","re9agk8723kx2mj","","null","","<p style=""color:green;""><b>Correct!</b></p>","","null","","","","","","","","","","","","","","","","","","","","","","","","","","","","","","","","","","","","","","","","","",""
"audio-keyboard-response","33","58469","0.0-4.0-1.0-0.4","2","1","re9agk8723kx2mj","","null","","sounds/induction/left/me_SWS.wav","","null","","","","","","","","","","","","","","","","","","","","","","","","","","","","","","","","","","","","","","","","","",""
"html-button-response","34","59401","0.0-4.0-1.0-1.4","2","1","re9agk8723kx2mj","","931.0000000000073","","What sound did you hear?","1","","","1","INDUCTION-JUDGMENT","left","1","","","","","","","","","","","","","","","","","","","","","","","","","","","","","","","","","","","","",""
"html-keyboard-response","35","60402","0.0-4.0-1.0-2.4","2","1","re9agk8723kx2mj","","null","","<p style=""color:green;""><b>Correct!</b></p>","","null","","","","","","","","","","","","","","","","","","","","","","","","","","","","","","","","","","","","","","","","","",""
"audio-keyboard-response","36","61205","0.0-4.0-1.0-0.5","2","1","re9agk8723kx2mj","","null","","sounds/induction/right/ti_SWS.wav","","null","","","","","","","","","","","","","","","","","","","","","","","","","","","","","","","","","","","","","","","","","",""
"html-button-response","37","62051","0.0-4.0-1.0-1.5","2","1","re9agk8723kx2mj","","846.9999999999927","","What sound did you hear?","1","","","1","INDUCTION-JUDGMENT","right","1","","","","","","","","","","","","","","","","","","","","","","","","","","","","","","","","","","","","",""
"html-keyboard-response","38","63053","0.0-4.0-1.0-2.5","2","1","re9agk8723kx2mj","","null","","<p style=""color:green;""><b>Correct!</b></p>","","null","","","","","","","","","","","","","","","","","","","","","","","","","","","","","","","","","","","","","","","","","",""
"audio-keyboard-response","39","63855","0.0-4.0-1.0-0.6","2","1","re9agk8723kx2mj","","null","","sounds/induction/right/ge_SWS.wav","","null","","","","","","","","","","","","","","","","","","","","","","","","","","","","","","","","","","","","","","","","","",""
"html-button-response","40","64622","0.0-4.0-1.0-1.6","2","1","re9agk8723kx2mj","","766.0000000000146","","What sound did you hear?","0","","","1","INDUCTION-JUDGMENT","right","0","","","","","","","","","","","","","","","","","","","","","","","","","","","","","","","","","","","","",""
"html-keyboard-response","41","65623","0.0-4.0-1.0-2.6","2","1","re9agk8723kx2mj","","null","","<p style=""color:green;""><b>Correct!</b></p>","","null","","","","","","","","","","","","","","","","","","","","","","","","","","","","","","","","","","","","","","","","","",""
"audio-keyboard-response","42","66426","0.0-4.0-1.0-0.7","2","1","re9agk8723kx2mj","","null","","sounds/induction/left/ge_SWS.wav","","null","","","","","","","","","","","","","","","","","","","","","","","","","","","","","","","","","","","","","","","","","",""
"html-button-response","43","67782","0.0-4.0-1.0-1.7","2","1","re9agk8723kx2mj","","1355","","What sound did you hear?","1","","","1","INDUCTION-JUDGMENT","left","1","","","","","","","","","","","","","","","","","","","","","","","","","","","","","","","","","","","","",""
"html-keyboard-response","44","68783","0.0-4.0-1.0-2.7","2","1","re9agk8723kx2mj","","null","","<p style=""color:green;""><b>Correct!</b></p>","","null","","","","","","","","","","","","","","","","","","","","","","","","","","","","","","","","","","","","","","","","","",""
"audio-keyboard-response","45","69586","0.0-4.0-1.0-0.8","2","1","re9agk8723kx2mj","","null","","sounds/induction/left/ti_SWS.wav","","null","","","","","","","","","","","","","","","","","","","","","","","","","","","","","","","","","","","","","","","","","",""
"html-button-response","46","70673","0.0-4.0-1.0-1.8","2","1","re9agk8723kx2mj","","1086","","What sound did you hear?","0","","","1","INDUCTION-JUDGMENT","left","0","","","","","","","","","","","","","","","","","","","","","","","","","","","","","","","","","","","","",""
"html-keyboard-response","47","71674","0.0-4.0-1.0-2.8","2","1","re9agk8723kx2mj","","null","","<p style=""color:green;""><b>Correct!</b></p>","","null","","","","","","","","","","","","","","","","","","","","","","","","","","","","","","","","","","","","","","","","","",""
"audio-keyboard-response","48","72476","0.0-4.0-1.0-0.9","2","1","re9agk8723kx2mj","","null","","sounds/induction/right/ta_SWS.wav","","null","","","","","","","","","","","","","","","","","","","","","","","","","","","","","","","","","","","","","","","","","",""
"html-button-response","49","73373","0.0-4.0-1.0-1.9","2","1","re9agk8723kx2mj","","897","","What sound did you hear?","1","","","1","INDUCTION-JUDGMENT","right","1","","","","","","","","","","","","","","","","","","","","","","","","","","","","","","","","","","","","",""
"html-keyboard-response","50","74375","0.0-4.0-1.0-2.9","2","1","re9agk8723kx2mj","","null","","<p style=""color:green;""><b>Correct!</b></p>","","null","","","","","","","","","","","","","","","","","","","","","","","","","","","","","","","","","","","","","","","","","",""
"audio-keyboard-response","51","75178","0.0-4.0-1.0-0.10","2","1","re9agk8723kx2mj","","null","","sounds/induction/right/ru_SWS.wav","","null","","","","","","","","","","","","","","","","","","","","","","","","","","","","","","","","","","","","","","","","","",""
"html-button-response","52","76093","0.0-4.0-1.0-1.10","2","1","re9agk8723kx2mj","","915","","What sound did you hear?","1","","","1","INDUCTION-JUDGMENT","right","1","","","","","","","","","","","","","","","","","","","","","","","","","","","","","","","","","","","","",""
"html-keyboard-response","53","77095","0.0-4.0-1.0-2.10","2","1","re9agk8723kx2mj","","null","","<p style=""color:green;""><b>Correct!</b></p>","","null","","","","","","","","","","","","","","","","","","","","","","","","","","","","","","","","","","","","","","","","","",""
"audio-keyboard-response","54","77897","0.0-4.0-1.0-0.11","2","1","re9agk8723kx2mj","","null","","sounds/induction/left/pu_SWS.wav","","null","","","","","","","","","","","","","","","","","","","","","","","","","","","","","","","","","","","","","","","","","",""
"html-button-response","55","78910","0.0-4.0-1.0-1.11","2","1","re9agk8723kx2mj","","1012","","What sound did you hear?","0","","","1","INDUCTION-JUDGMENT","left","0","","","","","","","","","","","","","","","","","","","","","","","","","","","","","","","","","","","","",""
"html-keyboard-response","56","79911","0.0-4.0-1.0-2.11","2","1","re9agk8723kx2mj","","null","","<p style=""color:green;""><b>Correct!</b></p>","","null","","","","","","","","","","","","","","","","","","","","","","","","","","","","","","","","","","","","","","","","","",""
"audio-keyboard-response","57","80713","0.0-4.0-1.0-0.12","2","1","re9agk8723kx2mj","","null","","sounds/induction/right/ko_SWS.wav","","null","","","","","","","","","","","","","","","","","","","","","","","","","","","","","","","","","","","","","","","","","",""
"html-button-response","58","82383","0.0-4.0-1.0-1.12","2","1","re9agk8723kx2mj","","1669.0000000000146","","What sound did you hear?","0","","","1","INDUCTION-JUDGMENT","right","0","","","","","","","","","","","","","","","","","","","","","","","","","","","","","","","","","","","","",""
"html-keyboard-response","59","83384","0.0-4.0-1.0-2.12","2","1","re9agk8723kx2mj","","null","","<p style=""color:green;""><b>Correct!</b></p>","","null","","","","","","","","","","","","","","","","","","","","","","","","","","","","","","","","","","","","","","","","","",""
"audio-keyboard-response","60","84185","0.0-4.0-1.0-0.13","2","1","re9agk8723kx2mj","","null","","sounds/induction/left/pu_SWS.wav","","null","","","","","","","","","","","","","","","","","","","","","","","","","","","","","","","","","","","","","","","","","",""
"html-button-response","61","85026","0.0-4.0-1.0-1.13","2","1","re9agk8723kx2mj","","841","","What sound did you hear?","0","","","1","INDUCTION-JUDGMENT","left","0","","","","","","","","","","","","","","","","","","","","","","","","","","","","","","","","","","","","",""
"html-keyboard-response","62","86028","0.0-4.0-1.0-2.13","2","1","re9agk8723kx2mj","","null","","<p style=""color:green;""><b>Correct!</b></p>","","null","","","","","","","","","","","","","","","","","","","","","","","","","","","","","","","","","","","","","","","","","",""
"audio-keyboard-response","63","86830","0.0-4.0-1.0-0.14","2","1","re9agk8723kx2mj","","null","","sounds/induction/right/ko_SWS.wav","","null","","","","","","","","","","","","","","","","","","","","","","","","","","","","","","","","","","","","","","","","","",""
"html-button-response","64","87775","0.0-4.0-1.0-1.14","2","1","re9agk8723kx2mj","","945.0000000000146","","What sound did you hear?","1","","","0","INDUCTION-JUDGMENT","right","0","","","","","","","","","","","","","","","","","","","","","","","","","","","","","","","","","","","","",""
"html-keyboard-response","65","88777","0.0-4.0-1.0-2.14","2","1","re9agk8723kx2mj","","null","","<p style=""color:red;""><b>Incorrect!</b></p>","","null","","","","","","","","","","","","","","","","","","","","","","","","","","","","","","","","","","","","","","","","","",""
"audio-keyboard-response","66","89579","0.0-4.0-1.0-0.15","2","1","re9agk8723kx2mj","","null","","sounds/induction/left/ko_SWS.wav","","null","","","","","","","","","","","","","","","","","","","","","","","","","","","","","","","","","","","","","","","","","",""
"html-button-response","67","90476","0.0-4.0-1.0-1.15","2","1","re9agk8723kx2mj","","896","","What sound did you hear?","1","","","1","INDUCTION-JUDGMENT","left","1","","","","","","","","","","","","","","","","","","","","","","","","","","","","","","","","","","","","",""
"html-keyboard-response","68","91477","0.0-4.0-1.0-2.15","2","1","re9agk8723kx2mj","","null","","<p style=""color:green;""><b>Correct!</b></p>","","null","","","","","","","","","","","","","","","","","","","","","","","","","","","","","","","","","","","","","","","","","",""
"audio-keyboard-response","69","92278","0.0-4.0-1.0-0.16","2","1","re9agk8723kx2mj","","null","","sounds/induction/left/ru_SWS.wav","","null","","","","","","","","","","","","","","","","","","","","","","","","","","","","","","","","","","","","","","","","","",""
"html-button-response","70","92946","0.0-4.0-1.0-1.16","2","1","re9agk8723kx2mj","","668","","What sound did you hear?","0","","","1","INDUCTION-JUDGMENT","left","0","","","","","","","","","","","","","","","","","","","","","","","","","","","","","","","","","","","","",""
"html-keyboard-response","71","93947","0.0-4.0-1.0-2.16","2","1","re9agk8723kx2mj","","null","","<p style=""color:green;""><b>Correct!</b></p>","","null","","","","","","","","","","","","","","","","","","","","","","","","","","","","","","","","","","","","","","","","","",""
"audio-keyboard-response","72","94750","0.0-4.0-1.0-0.17","2","1","re9agk8723kx2mj","","null","","sounds/induction/left/fu_SWS.wav","","null","","","","","","","","","","","","","","","","","","","","","","","","","","","","","","","","","","","","","","","","","",""
"html-button-response","73","95835","0.0-4.0-1.0-1.17","2","1","re9agk8723kx2mj","","1085","","What sound did you hear?","1","","","1","INDUCTION-JUDGMENT","left","1","","","","","","","","","","","","","","","","","","","","","","","","","","","","","","","","","","","","",""
"html-keyboard-response","74","96837","0.0-4.0-1.0-2.17","2","1","re9agk8723kx2mj","","null","","<p style=""color:green;""><b>Correct!</b></p>","","null","","","","","","","","","","","","","","","","","","","","","","","","","","","","","","","","","","","","","","","","","",""
"audio-keyboard-response","75","97638","0.0-4.0-1.0-0.18","2","1","re9agk8723kx2mj","","null","","sounds/induction/right/ru_SWS.wav","","null","","","","","","","","","","","","","","","","","","","","","","","","","","","","","","","","","","","","","","","","","",""
"html-button-response","76","98552","0.0-4.0-1.0-1.18","2","1","re9agk8723kx2mj","","913.9999999999854","","What sound did you hear?","1","","","1","INDUCTION-JUDGMENT","right","1","","","","","","","","","","","","","","","","","","","","","","","","","","","","","","","","","","","","",""
"html-keyboard-response","77","99553","0.0-4.0-1.0-2.18","2","1","re9agk8723kx2mj","","null","","<p style=""color:green;""><b>Correct!</b></p>","","null","","","","","","","","","","","","","","","","","","","","","","","","","","","","","","","","","","","","","","","","","",""
"audio-keyboard-response","78","100355","0.0-4.0-1.0-0.19","2","1","re9agk8723kx2mj","","null","","sounds/induction/left/ru_SWS.wav","","null","","","","","","","","","","","","","","","","","","","","","","","","","","","","","","","","","","","","","","","","","",""
"html-button-response","79","101408","0.0-4.0-1.0-1.19","2","1","re9agk8723kx2mj","","1052","","What sound did you hear?","0","","","1","INDUCTION-JUDGMENT","left","0","","","","","","","","","","","","","","","","","","","","","","","","","","","","","","","","","","","","",""
"html-keyboard-response","80","102409","0.0-4.0-1.0-2.19","2","1","re9agk8723kx2mj","","null","","<p style=""color:green;""><b>Correct!</b></p>","","null","","","","","","","","","","","","","","","","","","","","","","","","","","","","","","","","","","","","","","","","","",""
"audio-keyboard-response","81","103211","0.0-4.0-1.0-0.20","2","1","re9agk8723kx2mj","","null","","sounds/induction/right/me_SWS.wav","","null","","","","","","","","","","","","","","","","","","","","","","","","","","","","","","","","","","","","","","","","","",""
"html-button-response","82","104316","0.0-4.0-1.0-1.20","2","1","re9agk8723kx2mj","","1104","","What sound did you hear?","0","","","1","INDUCTION-JUDGMENT","right","0","","","","","","","","","","","","","","","","","","","","","","","","","","","","","","","","","","","","",""
"html-keyboard-response","83","105317","0.0-4.0-1.0-2.20","2","1","re9agk8723kx2mj","","null","","<p style=""color:green;""><b>Correct!</b></p>","","null","","","","","","","","","","","","","","","","","","","","","","","","","","","","","","","","","","","","","","","","","",""
"audio-keyboard-response","84","106120","0.0-4.0-1.0-0.21","2","1","re9agk8723kx2mj","","null","","sounds/induction/right/fe_SWS.wav","","null","","","","","","","","","","","","","","","","","","","","","","","","","","","","","","","","","","","","","","","","","",""
"html-button-response","85","107627","0.0-4.0-1.0-1.21","2","1","re9agk8723kx2mj","","1506","","What sound did you hear?","0","","","1","INDUCTION-JUDGMENT","right","0","","","","","","","","","","","","","","","","","","","","","","","","","","","","","","","","","","","","",""
"html-keyboard-response","86","108628","0.0-4.0-1.0-2.21","2","1","re9agk8723kx2mj","","null","","<p style=""color:green;""><b>Correct!</b></p>","","null","","","","","","","","","","","","","","","","","","","","","","","","","","","","","","","","","","","","","","","","","",""
"audio-keyboard-response","87","109429","0.0-4.0-1.0-0.22","2","1","re9agk8723kx2mj","","null","","sounds/induction/right/ni_SWS.wav","","null","","","","","","","","","","","","","","","","","","","","","","","","","","","","","","","","","","","","","","","","","",""
"html-button-response","88","110795","0.0-4.0-1.0-1.22","2","1","re9agk8723kx2mj","","1366","","What sound did you hear?","0","","","1","INDUCTION-JUDGMENT","right","0","","","","","","","","","","","","","","","","","","","","","","","","","","","","","","","","","","","","",""
"html-keyboard-response","89","111797","0.0-4.0-1.0-2.22","2","1","re9agk8723kx2mj","","null","","<p style=""color:green;""><b>Correct!</b></p>","","null","","","","","","","","","","","","","","","","","","","","","","","","","","","","","","","","","","","","","","","","","",""
"audio-keyboard-response","90","112600","0.0-4.0-1.0-0.23","2","1","re9agk8723kx2mj","","null","","sounds/induction/right/ni_SWS.wav","","null","","","","","","","","","","","","","","","","","","","","","","","","","","","","","","","","","","","","","","","","","",""
"html-button-response","91","113537","0.0-4.0-1.0-1.23","2","1","re9agk8723kx2mj","","936.0000000000146","","What sound did you hear?","0","","","1","INDUCTION-JUDGMENT","right","0","","","","","","","","","","","","","","","","","","","","","","","","","","","","","","","","","","","","",""
"html-keyboard-response","92","114538","0.0-4.0-1.0-2.23","2","1","re9agk8723kx2mj","","null","","<p style=""color:green;""><b>Correct!</b></p>","","null","","","","","","","","","","","","","","","","","","","","","","","","","","","","","","","","","","","","","","","","","",""
"audio-keyboard-response","93","115341","0.0-4.0-1.0-0.24","2","1","re9agk8723kx2mj","","null","","sounds/induction/right/fu_SWS.wav","","null","","","","","","","","","","","","","","","","","","","","","","","","","","","","","","","","","","","","","","","","","",""
"html-button-response","94","116137","0.0-4.0-1.0-1.24","2","1","re9agk8723kx2mj","","796.0000000000146","","What sound did you hear?","0","","","1","INDUCTION-JUDGMENT","right","0","","","","","","","","","","","","","","","","","","","","","","","","","","","","","","","","","","","","",""
"html-keyboard-response","95","117138","0.0-4.0-1.0-2.24","2","1","re9agk8723kx2mj","","null","","<p style=""color:green;""><b>Correct!</b></p>","","null","","","","","","","","","","","","","","","","","","","","","","","","","","","","","","","","","","","","","","","","","",""
"audio-keyboard-response","96","117941","0.0-4.0-1.0-0.25","2","1","re9agk8723kx2mj","","null","","sounds/induction/left/re_SWS.wav","","null","","","","","","","","","","","","","","","","","","","","","","","","","","","","","","","","","","","","","","","","","",""
"html-button-response","97","118827","0.0-4.0-1.0-1.25","2","1","re9agk8723kx2mj","","886","","What sound did you hear?","0","","","1","INDUCTION-JUDGMENT","left","0","","","","","","","","","","","","","","","","","","","","","","","","","","","","","","","","","","","","",""
"html-keyboard-response","98","119829","0.0-4.0-1.0-2.25","2","1","re9agk8723kx2mj","","null","","<p style=""color:green;""><b>Correct!</b></p>","","null","","","","","","","","","","","","","","","","","","","","","","","","","","","","","","","","","","","","","","","","","",""
"audio-keyboard-response","99","120631","0.0-4.0-1.0-0.26","2","1","re9agk8723kx2mj","","null","","sounds/induction/right/re_SWS.wav","","null","","","","","","","","","","","","","","","","","","","","","","","","","","","","","","","","","","","","","","","","","",""
"html-button-response","100","121865","0.0-4.0-1.0-1.26","2","1","re9agk8723kx2mj","","1233","","What sound did you hear?","1","","","1","INDUCTION-JUDGMENT","right","1","","","","","","","","","","","","","","","","","","","","","","","","","","","","","","","","","","","","",""
"html-keyboard-response","101","122866","0.0-4.0-1.0-2.26","2","1","re9agk8723kx2mj","","null","","<p style=""color:green;""><b>Correct!</b></p>","","null","","","","","","","","","","","","","","","","","","","","","","","","","","","","","","","","","","","","","","","","","",""
"audio-keyboard-response","102","123668","0.0-4.0-1.0-0.27","2","1","re9agk8723kx2mj","","null","","sounds/induction/right/pu_SWS.wav","","null","","","","","","","","","","","","","","","","","","","","","","","","","","","","","","","","","","","","","","","","","",""
"html-button-response","103","125158","0.0-4.0-1.0-1.27","2","1","re9agk8723kx2mj","","1489.0000000000146","","What sound did you hear?","1","","","1","INDUCTION-JUDGMENT","right","1","","","","","","","","","","","","","","","","","","","","","","","","","","","","","","","","","","","","",""
"html-keyboard-response","104","126160","0.0-4.0-1.0-2.27","2","1","re9agk8723kx2mj","","null","","<p style=""color:green;""><b>Correct!</b></p>","","null","","","","","","","","","","","","","","","","","","","","","","","","","","","","","","","","","","","","","","","","","",""
"audio-keyboard-response","105","126962","0.0-4.0-1.0-0.28","2","1","re9agk8723kx2mj","","null","","sounds/induction/right/fe_SWS.wav","","null","","","","","","","","","","","","","","","","","","","","","","","","","","","","","","","","","","","","","","","","","",""
"html-button-response","106","128065","0.0-4.0-1.0-1.28","2","1","re9agk8723kx2mj","","1102.9999999999854","","What sound did you hear?","0","","","1","INDUCTION-JUDGMENT","right","0","","","","","","","","","","","","","","","","","","","","","","","","","","","","","","","","","","","","",""
"html-keyboard-response","107","129067","0.0-4.0-1.0-2.28","2","1","re9agk8723kx2mj","","null","","<p style=""color:green;""><b>Correct!</b></p>","","null","","","","","","","","","","","","","","","","","","","","","","","","","","","","","","","","","","","","","","","","","",""
"audio-keyboard-response","108","129868","0.0-4.0-1.0-0.29","2","1","re9agk8723kx2mj","","null","","sounds/induction/left/su_SWS.wav","","null","","","","","","","","","","","","","","","","","","","","","","","","","","","","","","","","","","","","","","","","","",""
"html-button-response","109","130757","0.0-4.0-1.0-1.29","2","1","re9agk8723kx2mj","","889","","What sound did you hear?","0","","","1","INDUCTION-JUDGMENT","left","0","","","","","","","","","","","","","","","","","","","","","","","","","","","","","","","","","","","","",""
"html-keyboard-response","110","131759","0.0-4.0-1.0-2.29","2","1","re9agk8723kx2mj","","null","","<p style=""color:green;""><b>Correct!</b></p>","","null","","","","","","","","","","","","","","","","","","","","","","","","","","","","","","","","","","","","","","","","","",""
"audio-keyboard-response","111","132561","0.0-4.0-1.0-0.30","2","1","re9agk8723kx2mj","","null","","sounds/induction/left/me_SWS.wav","","null","","","","","","","","","","","","","","","","","","","","","","","","","","","","","","","","","","","","","","","","","",""
"html-button-response","112","134165","0.0-4.0-1.0-1.30","2","1","re9agk8723kx2mj","","1604","","What sound did you hear?","1","","","1","INDUCTION-JUDGMENT","left","1","","","","","","","","","","","","","","","","","","","","","","","","","","","","","","","","","","","","",""
"html-keyboard-response","113","135167","0.0-4.0-1.0-2.30","2","1","re9agk8723kx2mj","","null","","<p style=""color:green;""><b>Correct!</b></p>","","null","","","","","","","","","","","","","","","","","","","","","","","","","","","","","","","","","","","","","","","","","",""
"audio-keyboard-response","114","135969","0.0-4.0-1.0-0.31","2","1","re9agk8723kx2mj","","null","","sounds/induction/left/ni_SWS.wav","","null","","","","","","","","","","","","","","","","","","","","","","","","","","","","","","","","","","","","","","","","","",""
"html-button-response","115","137196","0.0-4.0-1.0-1.31","2","1","re9agk8723kx2mj","","1226","","What sound did you hear?","1","","","1","INDUCTION-JUDGMENT","left","1","","","","","","","","","","","","","","","","","","","","","","","","","","","","","","","","","","","","",""
"html-keyboard-response","116","138197","0.0-4.0-1.0-2.31","2","1","re9agk8723kx2mj","","null","","<p style=""color:green;""><b>Correct!</b></p>","","null","","","","","","","","","","","","","","","","","","","","","","","","","","","","","","","","","","","","","","","","","",""
"audio-keyboard-response","117","138998","0.0-4.0-1.0-0.32","2","1","re9agk8723kx2mj","","null","","sounds/induction/left/re_SWS.wav","","null","","","","","","","","","","","","","","","","","","","","","","","","","","","","","","","","","","","","","","","","","",""
"html-button-response","118","139707","0.0-4.0-1.0-1.32","2","1","re9agk8723kx2mj","","708","","What sound did you hear?","0","","","1","INDUCTION-JUDGMENT","left","0","","","","","","","","","","","","","","","","","","","","","","","","","","","","","","","","","","","","",""
"html-keyboard-response","119","140708","0.0-4.0-1.0-2.32","2","1","re9agk8723kx2mj","","null","","<p style=""color:green;""><b>Correct!</b></p>","","null","","","","","","","","","","","","","","","","","","","","","","","","","","","","","","","","","","","","","","","","","",""
"audio-keyboard-response","120","141510","0.0-4.0-1.0-0.33","2","1","re9agk8723kx2mj","","null","","sounds/induction/left/fe_SWS.wav","","null","","","","","","","","","","","","","","","","","","","","","","","","","","","","","","","","","","","","","","","","","",""
"html-button-response","121","142869","0.0-4.0-1.0-1.33","2","1","re9agk8723kx2mj","","1358","","What sound did you hear?","1","","","1","INDUCTION-JUDGMENT","left","1","","","","","","","","","","","","","","","","","","","","","","","","","","","","","","","","","","","","",""
"html-keyboard-response","122","143870","0.0-4.0-1.0-2.33","2","1","re9agk8723kx2mj","","null","","<p style=""color:green;""><b>Correct!</b></p>","","null","","","","","","","","","","","","","","","","","","","","","","","","","","","","","","","","","","","","","","","","","",""
"audio-keyboard-response","123","144673","0.0-4.0-1.0-0.34","2","1","re9agk8723kx2mj","","null","","sounds/induction/right/ge_SWS.wav","","null","","","","","","","","","","","","","","","","","","","","","","","","","","","","","","","","","","","","","","","","","",""
"html-button-response","124","145700","0.0-4.0-1.0-1.34","2","1","re9agk8723kx2mj","","1026.000000000029","","What sound did you hear?","0","","","1","INDUCTION-JUDGMENT","right","0","","","","","","","","","","","","","","","","","","","","","","","","","","","","","","","","","","","","",""
"html-keyboard-response","125","146702","0.0-4.0-1.0-2.34","2","1","re9agk8723kx2mj","","null","","<p style=""color:green;""><b>Correct!</b></p>","","null","","","","","","","","","","","","","","","","","","","","","","","","","","","","","","","","","","","","","","","","","",""
"audio-keyboard-response","126","147505","0.0-4.0-1.0-0.35","2","1","re9agk8723kx2mj","","null","","sounds/induction/right/su_SWS.wav","","null","","","","","","","","","","","","","","","","","","","","","","","","","","","","","","","","","","","","","","","","","",""
"html-button-response","127","149100","0.0-4.0-1.0-1.35","2","1","re9agk8723kx2mj","","1596","","What sound did you hear?","0","","","0","INDUCTION-JUDGMENT","right","1","","","","","","","","","","","","","","","","","","","","","","","","","","","","","","","","","","","","",""
"html-keyboard-response","128","150102","0.0-4.0-1.0-2.35","2","1","re9agk8723kx2mj","","null","","<p style=""color:red;""><b>Incorrect!</b></p>","","null","","","","","","","","","","","","","","","","","","","","","","","","","","","","","","","","","","","","","","","","","",""
"audio-keyboard-response","129","150904","0.0-4.0-1.0-0.36","2","1","re9agk8723kx2mj","","null","","sounds/induction/right/ti_SWS.wav","","null","","","","","","","","","","","","","","","","","","","","","","","","","","","","","","","","","","","","","","","","","",""
"html-button-response","130","152270","0.0-4.0-1.0-1.36","2","1","re9agk8723kx2mj","","1365","","What sound did you hear?","1","","","1","INDUCTION-JUDGMENT","right","1","","","","","","","","","","","","","","","","","","","","","","","","","","","","","","","","","","","","",""
"html-keyboard-response","131","153272","0.0-4.0-1.0-2.36","2","1","re9agk8723kx2mj","","null","","<p style=""color:green;""><b>Correct!</b></p>","","null","","","","","","","","","","","","","","","","","","","","","","","","","","","","","","","","","","","","","","","","","",""
"audio-keyboard-response","132","154072","0.0-4.0-1.0-0.37","2","1","re9agk8723kx2mj","","null","","sounds/induction/left/ta_SWS.wav","","null","","","","","","","","","","","","","","","","","","","","","","","","","","","","","","","","","","","","","","","","","",""
"html-button-response","133","155546","0.0-4.0-1.0-1.37","2","1","re9agk8723kx2mj","","1473","","What sound did you hear?","0","","","1","INDUCTION-JUDGMENT","left","0","","","","","","","","","","","","","","","","","","","","","","","","","","","","","","","","","","","","",""
"html-keyboard-response","134","156547","0.0-4.0-1.0-2.37","2","1","re9agk8723kx2mj","","null","","<p style=""color:green;""><b>Correct!</b></p>","","null","","","","","","","","","","","","","","","","","","","","","","","","","","","","","","","","","","","","","","","","","",""
"audio-keyboard-response","135","157349","0.0-4.0-1.0-0.38","2","1","re9agk8723kx2mj","","null","","sounds/induction/left/ko_SWS.wav","","null","","","","","","","","","","","","","","","","","","","","","","","","","","","","","","","","","","","","","","","","","",""
"html-button-response","136","158896","0.0-4.0-1.0-1.38","2","1","re9agk8723kx2mj","","1546","","What sound did you hear?","1","","","1","INDUCTION-JUDGMENT","left","1","","","","","","","","","","","","","","","","","","","","","","","","","","","","","","","","","","","","",""
"html-keyboard-response","137","159897","0.0-4.0-1.0-2.38","2","1","re9agk8723kx2mj","","null","","<p style=""color:green;""><b>Correct!</b></p>","","null","","","","","","","","","","","","","","","","","","","","","","","","","","","","","","","","","","","","","","","","","",""
"audio-keyboard-response","138","160699","0.0-4.0-1.0-0.39","2","1","re9agk8723kx2mj","","null","","sounds/induction/left/ti_SWS.wav","","null","","","","","","","","","","","","","","","","","","","","","","","","","","","","","","","","","","","","","","","","","",""
"html-button-response","139","162335","0.0-4.0-1.0-1.39","2","1","re9agk8723kx2mj","","1635.999999999971","","What sound did you hear?","0","","","1","INDUCTION-JUDGMENT","left","0","","","","","","","","","","","","","","","","","","","","","","","","","","","","","","","","","","","","",""
"html-keyboard-response","140","163336","0.0-4.0-1.0-2.39","2","1","re9agk8723kx2mj","","null","","<p style=""color:green;""><b>Correct!</b></p>","","null","","","","","","","","","","","","","","","","","","","","","","","","","","","","","","","","","","","","","","","","","",""
"audio-keyboard-response","141","164138","0.0-4.0-1.0-0.40","2","1","re9agk8723kx2mj","","null","","sounds/induction/right/pu_SWS.wav","","null","","","","","","","","","","","","","","","","","","","","","","","","","","","","","","","","","","","","","","","","","",""
"html-button-response","142","164905","0.0-4.0-1.0-1.40","2","1","re9agk8723kx2mj","","766","","What sound did you hear?","1","","","1","INDUCTION-JUDGMENT","right","1","","","","","","","","","","","","","","","","","","","","","","","","","","","","","","","","","","","","",""
"html-keyboard-response","143","165906","0.0-4.0-1.0-2.40","2","1","re9agk8723kx2mj","","null","","<p style=""color:green;""><b>Correct!</b></p>","","null","","","","","","","","","","","","","","","","","","","","","","","","","","","","","","","","","","","","","","","","","",""
"audio-keyboard-response","144","166709","0.0-4.0-1.0-0.41","2","1","re9agk8723kx2mj","","null","","sounds/induction/left/fe_SWS.wav","","null","","","","","","","","","","","","","","","","","","","","","","","","","","","","","","","","","","","","","","","","","",""
"html-button-response","145","167705","0.0-4.0-1.0-1.41","2","1","re9agk8723kx2mj","","995.0000000000291","","What sound did you hear?","1","","","1","INDUCTION-JUDGMENT","left","1","","","","","","","","","","","","","","","","","","","","","","","","","","","","","","","","","","","","",""
"html-keyboard-response","146","168706","0.0-4.0-1.0-2.41","2","1","re9agk8723kx2mj","","null","","<p style=""color:green;""><b>Correct!</b></p>","","null","","","","","","","","","","","","","","","","","","","","","","","","","","","","","","","","","","","","","","","","","",""
"audio-keyboard-response","147","169509","0.0-4.0-1.0-0.42","2","1","re9agk8723kx2mj","","null","","sounds/induction/right/ta_SWS.wav","","null","","","","","","","","","","","","","","","","","","","","","","","","","","","","","","","","","","","","","","","","","",""
"html-button-response","148","171301","0.0-4.0-1.0-1.42","2","1","re9agk8723kx2mj","","1792","","What sound did you hear?","1","","","1","INDUCTION-JUDGMENT","right","1","","","","","","","","","","","","","","","","","","","","","","","","","","","","","","","","","","","","",""
"html-keyboard-response","149","172303","0.0-4.0-1.0-2.42","2","1","re9agk8723kx2mj","","null","","<p style=""color:green;""><b>Correct!</b></p>","","null","","","","","","","","","","","","","","","","","","","","","","","","","","","","","","","","","","","","","","","","","",""
"audio-keyboard-response","150","173103","0.0-4.0-1.0-0.43","2","1","re9agk8723kx2mj","","null","","sounds/induction/left/ge_SWS.wav","","null","","","","","","","","","","","","","","","","","","","","","","","","","","","","","","","","","","","","","","","","","",""
"html-button-response","151","174215","0.0-4.0-1.0-1.43","2","1","re9agk8723kx2mj","","1111.999999999971","","What sound did you hear?","1","","","1","INDUCTION-JUDGMENT","left","1","","","","","","","","","","","","","","","","","","","","","","","","","","","","","","","","","","","","",""
"html-keyboard-response","152","175217","0.0-4.0-1.0-2.43","2","1","re9agk8723kx2mj","","null","","<p style=""color:green;""><b>Correct!</b></p>","","null","","","","","","","","","","","","","","","","","","","","","","","","","","","","","","","","","","","","","","","","","",""
"audio-keyboard-response","153","176018","0.0-4.0-1.0-0.44","2","1","re9agk8723kx2mj","","null","","sounds/induction/right/me_SWS.wav","","null","","","","","","","","","","","","","","","","","","","","","","","","","","","","","","","","","","","","","","","","","",""
"html-button-response","154","176741","0.0-4.0-1.0-1.44","2","1","re9agk8723kx2mj","","723","","What sound did you hear?","0","","","1","INDUCTION-JUDGMENT","right","0","","","","","","","","","","","","","","","","","","","","","","","","","","","","","","","","","","","","",""
"html-keyboard-response","155","177743","0.0-4.0-1.0-2.44","2","1","re9agk8723kx2mj","","null","","<p style=""color:green;""><b>Correct!</b></p>","","null","","","","","","","","","","","","","","","","","","","","","","","","","","","","","","","","","","","","","","","","","",""
"audio-keyboard-response","156","178543","0.0-4.0-1.0-0.45","2","1","re9agk8723kx2mj","","null","","sounds/induction/right/su_SWS.wav","","null","","","","","","","","","","","","","","","","","","","","","","","","","","","","","","","","","","","","","","","","","",""
"html-button-response","157","179598","0.0-4.0-1.0-1.45","2","1","re9agk8723kx2mj","","1053.000000000029","","What sound did you hear?","0","","","0","INDUCTION-JUDGMENT","right","1","","","","","","","","","","","","","","","","","","","","","","","","","","","","","","","","","","","","",""
"html-keyboard-response","158","180599","0.0-4.0-1.0-2.45","2","1","re9agk8723kx2mj","","null","","<p style=""color:red;""><b>Incorrect!</b></p>","","null","","","","","","","","","","","","","","","","","","","","","","","","","","","","","","","","","","","","","","","","","",""
"audio-keyboard-response","159","181402","0.0-4.0-1.0-0.46","2","1","re9agk8723kx2mj","","null","","sounds/induction/left/fu_SWS.wav","","null","","","","","","","","","","","","","","","","","","","","","","","","","","","","","","","","","","","","","","","","","",""
"html-button-response","160","182511","0.0-4.0-1.0-1.46","2","1","re9agk8723kx2mj","","1109","","What sound did you hear?","1","","","1","INDUCTION-JUDGMENT","left","1","","","","","","","","","","","","","","","","","","","","","","","","","","","","","","","","","","","","",""
"html-keyboard-response","161","183512","0.0-4.0-1.0-2.46","2","1","re9agk8723kx2mj","","null","","<p style=""color:green;""><b>Correct!</b></p>","","null","","","","","","","","","","","","","","","","","","","","","","","","","","","","","","","","","","","","","","","","","",""
"audio-keyboard-response","162","184313","0.0-4.0-1.0-0.47","2","1","re9agk8723kx2mj","","null","","sounds/induction/right/fu_SWS.wav","","null","","","","","","","","","","","","","","","","","","","","","","","","","","","","","","","","","","","","","","","","","",""
"html-button-response","163","185122","0.0-4.0-1.0-1.47","2","1","re9agk8723kx2mj","","808","","What sound did you hear?","0","","","1","INDUCTION-JUDGMENT","right","0","","","","","","","","","","","","","","","","","","","","","","","","","","","","","","","","","","","","",""
"html-keyboard-response","164","186123","0.0-4.0-1.0-2.47","2","1","re9agk8723kx2mj","","null","","<p style=""color:green;""><b>Correct!</b></p>","","null","","","","","","","","","","","","","","","","","","","","","","","","","","","","","","","","","","","","","","","","","",""
"html-button-response","165","187920","0.0-5.0-0.0","2","1","re9agk8723kx2mj","","1296","","<p>Thank you for your answers.</p><p>You will now listen to similar sounds. The main difference is that the sounds will be longer and will make up complete sentences.</p><p>Please listen carefully to each sentence. After each sentence, you will be asked to type back what you heard to the best of your ability. After you provide your response, you will be given feedback about the correct answer.</p><p>There are 10 sentences in total.","0","","","","","","","","","","","","","","","","","","","","","","","","","","","","","","","","","","","","","","","","","","",""
"audio-keyboard-response","166","190503","0.0-5.0-1.0-0.0","2","1","re9agk8723kx2mj","","null","","sounds/sentences/left/14_03_cfSWS.wav","","null","","","","","","","","","","","","","","","","","","","","","","","","","","","","","","","","","","","","","","","","","",""
"sentence-resp","167","214994","0.0-5.0-1.0-1.0","2","1","re9agk8723kx2mj","","24491","","","","","","","SWS-SENT-RESPONSE","","","{""Q0"":""he went to the store without me ""}","Pluck the bright rose without leaves.","pluck,bright,rose,without,leaves","HE WENT TO THE STORE WITHOUT ME ","0","0","0","1","0","1","0.2","","","","","","","","","","","","","","","","","","","","","","","","","",""
"html-keyboard-response","168","216246","0.0-5.0-1.0-2.0","2","1","re9agk8723kx2mj","","null","","","","null","","","","","","","","","","","","","","","","","","","","","","","","","","","","","","","","","","","","","","","","","",""
"audio-keyboard-response","169","218328","0.0-5.0-1.0-3.0","2","1","re9agk8723kx2mj","","null","","sounds/sentences/left/14_03_cfSWS.wav","","null","","","","","","","","","","","","","","","","","","","","","","","","","","","","","","","","","","","","","","","","","",""
"html-keyboard-response","170","219329","0.0-5.0-1.0-4.0","2","1","re9agk8723kx2mj","","null","","","","null","","","","","","","","","","","","","","","","","","","","","","","","","","","","","","","","","","","","","","","","","",""
"html-button-response","171","221809","0.0-5.0-1.0-5.0","2","1","re9agk8723kx2mj","","1978.000000000029","","<p>Press the button below when you are ready to continue.</p>","0","","","","","","","","","","","","","","","","","","","","","","","","","","","","","","","","","","","","","","","","","","",""
"audio-keyboard-response","172","224824","0.0-5.0-1.0-0.1","2","1","re9agk8723kx2mj","","null","","sounds/sentences/right/14_10_cfSWS.wav","","null","","","","","","","","","","","","","","","","","","","","","","","","","","","","","","","","","","","","","","","","","",""
"sentence-resp","173","243674","0.0-5.0-1.0-1.1","2","1","re9agk8723kx2mj","","18850","","","","","","","SWS-SENT-RESPONSE","","","{""Q0"":""he went to the park to watch the bright leaves ""}","Port is a strong wine with a smoky taste.","port,strong,wine,smoky,taste","HE WENT TO THE PARK TO WATCH THE BRIGHT LEAVES ","0","0","0","0","0","0","0","","","","","","","","","","","","","","","","","","","","","","","","","",""
"html-keyboard-response","174","244926","0.0-5.0-1.0-2.1","2","1","re9agk8723kx2mj","","null","","","","null","","","","","","","","","","","","","","","","","","","","","","","","","","","","","","","","","","","","","","","","","",""
"audio-keyboard-response","175","247441","0.0-5.0-1.0-3.1","2","1","re9agk8723kx2mj","","null","","sounds/sentences/right/14_10_cfSWS.wav","","null","","","","","","","","","","","","","","","","","","","","","","","","","","","","","","","","","","","","","","","","","",""
"html-keyboard-response","176","248443","0.0-5.0-1.0-4.1","2","1","re9agk8723kx2mj","","null","","","","null","","","","","","","","","","","","","","","","","","","","","","","","","","","","","","","","","","","","","","","","","",""
"html-button-response","177","250868","0.0-5.0-1.0-5.1","2","1","re9agk8723kx2mj","","1925","","<p>Press the button below when you are ready to continue.</p>","0","","","","","","","","","","","","","","","","","","","","","","","","","","","","","","","","","","","","","","","","","","",""
"audio-keyboard-response","178","253686","0.0-5.0-1.0-0.2","2","1","re9agk8723kx2mj","","null","","sounds/sentences/left/14_02_cfSWS.wav","","null","","","","","","","","","","","","","","","","","","","","","","","","","","","","","","","","","","","","","","","","","",""
"sentence-resp","179","261309","0.0-5.0-1.0-1.2","2","1","re9agk8723kx2mj","","7621","","","","","","","SWS-SENT-RESPONSE","","","{""Q0"":""he said the same thing thirty times ""}","He said the same phrase thirty times.","said,same,phrase,thirty,times","HE SAID THE SAME THING THIRTY TIMES ","1","1","0","1","1","4","0.8","","","","","","","","","","","","","","","","","","","","","","","","","",""
"html-keyboard-response","180","262560","0.0-5.0-1.0-2.2","2","1","re9agk8723kx2mj","","null","","","","null","","","","","","","","","","","","","","","","","","","","","","","","","","","","","","","","","","","","","","","","","",""
"audio-keyboard-response","181","264878","0.0-5.0-1.0-3.2","2","1","re9agk8723kx2mj","","null","","sounds/sentences/left/14_02_cfSWS.wav","","null","","","","","","","","","","","","","","","","","","","","","","","","","","","","","","","","","","","","","","","","","",""
"html-keyboard-response","182","265880","0.0-5.0-1.0-4.2","2","1","re9agk8723kx2mj","","null","","","","null","","","","","","","","","","","","","","","","","","","","","","","","","","","","","","","","","","","","","","","","","",""
"html-button-response","183","268173","0.0-5.0-1.0-5.2","2","1","re9agk8723kx2mj","","1793","","<p>Press the button below when you are ready to continue.</p>","0","","","","","","","","","","","","","","","","","","","","","","","","","","","","","","","","","","","","","","","","","","",""
"audio-keyboard-response","184","271061","0.0-5.0-1.0-0.3","2","1","re9agk8723kx2mj","","null","","sounds/sentences/right/14_07_cfSWS.wav","","null","","","","","","","","","","","","","","","","","","","","","","","","","","","","","","","","","","","","","","","","","",""
"sentence-resp","185","278273","0.0-5.0-1.0-1.3","2","1","re9agk8723kx2mj","","7211","","","","","","","SWS-SENT-RESPONSE","","","{""Q0"":""he was my friend at the park ""}","Write a fond note to the friend you cherish.","write,fond,note,friend,cherish","HE WAS MY FRIEND AT THE PARK ","0","0","0","1","0","1","0.2","","","","","","","","","","","","","","","","","","","","","","","","","",""
"html-keyboard-response","186","279524","0.0-5.0-1.0-2.3","2","1","re9agk8723kx2mj","","null","","","","null","","","","","","","","","","","","","","","","","","","","","","","","","","","","","","","","","","","","","","","","","",""
"audio-keyboard-response","187","281914","0.0-5.0-1.0-3.3","2","1","re9agk8723kx2mj","","null","","sounds/sentences/right/14_07_cfSWS.wav","","null","","","","","","","","","","","","","","","","","","","","","","","","","","","","","","","","","","","","","","","","","",""
"html-keyboard-response","188","282916","0.0-5.0-1.0-4.3","2","1","re9agk8723kx2mj","","null","","","","null","","","","","","","","","","","","","","","","","","","","","","","","","","","","","","","","","","","","","","","","","",""
"html-button-response","189","284513","0.0-5.0-1.0-5.3","2","1","re9agk8723kx2mj","","1095.9999999999418","","<p>Press the button below when you are ready to continue.</p>","0","","","","","","","","","","","","","","","","","","","","","","","","","","","","","","","","","","","","","","","","","","",""
"audio-keyboard-response","190","287269","0.0-5.0-1.0-0.4","2","1","re9agk8723kx2mj","","null","","sounds/sentences/right/14_08_cfSWS.wav","","null","","","","","","","","","","","","","","","","","","","","","","","","","","","","","","","","","","","","","","","","","",""
"sentence-resp","191","296926","0.0-5.0-1.0-1.4","2","1","re9agk8723kx2mj","","9656","","","","","","","SWS-SENT-RESPONSE","","","{""Q0"":""he knows my name because he is my friend ""}","Clothes and lodging are free to new men.","clothes,lodging,free,new,men","HE KNOWS MY NAME BECAUSE HE IS MY FRIEND ","0","0","0","0","0","0","0","","","","","","","","","","","","","","","","","","","","","","","","","",""
"html-keyboard-response","192","298177","0.0-5.0-1.0-2.4","2","1","re9agk8723kx2mj","","null","","","","null","","","","","","","","","","","","","","","","","","","","","","","","","","","","","","","","","","","","","","","","","",""
"audio-keyboard-response","193","300434","0.0-5.0-1.0-3.4","2","1","re9agk8723kx2mj","","null","","sounds/sentences/right/14_08_cfSWS.wav","","null","","","","","","","","","","","","","","","","","","","","","","","","","","","","","","","","","","","","","","","","","",""
"html-keyboard-response","194","301435","0.0-5.0-1.0-4.4","2","1","re9agk8723kx2mj","","null","","","","null","","","","","","","","","","","","","","","","","","","","","","","","","","","","","","","","","","","","","","","","","",""
"html-button-response","195","302811","0.0-5.0-1.0-5.4","2","1","re9agk8723kx2mj","","874","","<p>Press the button below when you are ready to continue.</p>","0","","","","","","","","","","","","","","","","","","","","","","","","","","","","","","","","","","","","","","","","","","",""
"audio-keyboard-response","196","305364","0.0-5.0-1.0-0.5","2","1","re9agk8723kx2mj","","null","","sounds/sentences/left/14_04_cfSWS.wav","","null","","","","","","","","","","","","","","","","","","","","","","","","","","","","","","","","","","","","","","","","","",""
"sentence-resp","197","327071","0.0-5.0-1.0-1.5","2","1","re9agk8723kx2mj","","21707","","","","","","","SWS-SENT-RESPONSE","","","{""Q0"":"" he is a close friend to me ""}","Two plus seven is less than ten.","two,plus,seven,less,ten"," HE IS A CLOSE FRIEND TO ME ","0","0","0","0","0","0","0","","","","","","","","","","","","","","","","","","","","","","","","","",""
"html-keyboard-response","198","328322","0.0-5.0-1.0-2.5","2","1","re9agk8723kx2mj","","null","","","","null","","","","","","","","","","","","","","","","","","","","","","","","","","","","","","","","","","","","","","","","","",""
"audio-keyboard-response","199","330376","0.0-5.0-1.0-3.5","2","1","re9agk8723kx2mj","","null","","sounds/sentences/left/14_04_cfSWS.wav","","null","","","","","","","","","","","","","","","","","","","","","","","","","","","","","","","","","","","","","","","","","",""
"html-keyboard-response","200","331377","0.0-5.0-1.0-4.5","2","1","re9agk8723kx2mj","","null","","","","null","","","","","","","","","","","","","","","","","","","","","","","","","","","","","","","","","","","","","","","","","",""
"html-button-response","201","338117","0.0-5.0-1.0-5.5","2","1","re9agk8723kx2mj","","6239.000000000058","","<p>Press the button below when you are ready to continue.</p>","0","","","","","","","","","","","","","","","","","","","","","","","","","","","","","","","","","","","","","","","","","","",""
"audio-keyboard-response","202","340861","0.0-5.0-1.0-0.6","2","1","re9agk8723kx2mj","","null","","sounds/sentences/right/14_06_cfSWS.wav","","null","","","","","","","","","","","","","","","","","","","","","","","","","","","","","","","","","","","","","","","","","",""
"sentence-resp","203","350642","0.0-5.0-1.0-1.6","2","1","re9agk8723kx2mj","","9781","","","","","","","SWS-SENT-RESPONSE","","","{""Q0"":""tell your problems to the wise chief ""}","Bring your problems to the wise chief.","bring,your,problems,wise,chief","TELL YOUR PROBLEMS TO THE WISE CHIEF ","0","1","1","1","1","4","0.8","","","","","","","","","","","","","","","","","","","","","","","","","",""
"html-keyboard-response","204","351894","0.0-5.0-1.0-2.6","2","1","re9agk8723kx2mj","","null","","","","null","","","","","","","","","","","","","","","","","","","","","","","","","","","","","","","","","","","","","","","","","",""
"audio-keyboard-response","205","354135","0.0-5.0-1.0-3.6","2","1","re9agk8723kx2mj","","null","","sounds/sentences/right/14_06_cfSWS.wav","","null","","","","","","","","","","","","","","","","","","","","","","","","","","","","","","","","","","","","","","","","","",""
"html-keyboard-response","206","355136","0.0-5.0-1.0-4.6","2","1","re9agk8723kx2mj","","null","","","","null","","","","","","","","","","","","","","","","","","","","","","","","","","","","","","","","","","","","","","","","","",""
"html-button-response","207","357593","0.0-5.0-1.0-5.6","2","1","re9agk8723kx2mj","","1957","","<p>Press the button below when you are ready to continue.</p>","0","","","","","","","","","","","","","","","","","","","","","","","","","","","","","","","","","","","","","","","","","","",""
"audio-keyboard-response","208","360321","0.0-5.0-1.0-0.7","2","1","re9agk8723kx2mj","","null","","sounds/sentences/right/14_09_cfSWS.wav","","null","","","","","","","","","","","","","","","","","","","","","","","","","","","","","","","","","","","","","","","","","",""
"sentence-resp","209","367171","0.0-5.0-1.0-1.7","2","1","re9agk8723kx2mj","","6849","","","","","","","SWS-SENT-RESPONSE","","","{""Q0"":""he left when he went to the bathroom""}","We frown when events take a bad turn.","frown,events,take,bad,turn","HE LEFT WHEN HE WENT TO THE BATHROOM","0","0","0","0","0","0","0","","","","","","","","","","","","","","","","","","","","","","","","","",""
"html-keyboard-response","210","368423","0.0-5.0-1.0-2.7","2","1","re9agk8723kx2mj","","null","","","","null","","","","","","","","","","","","","","","","","","","","","","","","","","","","","","","","","","","","","","","","","",""
"audio-keyboard-response","211","370649","0.0-5.0-1.0-3.7","2","1","re9agk8723kx2mj","","null","","sounds/sentences/right/14_09_cfSWS.wav","","null","","","","","","","","","","","","","","","","","","","","","","","","","","","","","","","","","","","","","","","","","",""
"html-keyboard-response","212","371651","0.0-5.0-1.0-4.7","2","1","re9agk8723kx2mj","","null","","","","null","","","","","","","","","","","","","","","","","","","","","","","","","","","","","","","","","","","","","","","","","",""
"html-button-response","213","374124","0.0-5.0-1.0-5.7","2","1","re9agk8723kx2mj","","1972","","<p>Press the button below when you are ready to continue.</p>","0","","","","","","","","","","","","","","","","","","","","","","","","","","","","","","","","","","","","","","","","","","",""
"audio-keyboard-response","214","377240","0.0-5.0-1.0-0.8","2","1","re9agk8723kx2mj","","null","","sounds/sentences/left/14_01_cfSWS.wav","","null","","","","","","","","","","","","","","","","","","","","","","","","","","","","","","","","","","","","","","","","","",""
"sentence-resp","215","387426","0.0-5.0-1.0-1.8","2","1","re9agk8723kx2mj","","10185","","","","","","","SWS-SENT-RESPONSE","","","{""Q0"":""he has a small basket for me ""}","A cramp is no small danger on a swim.","cramp,no,small,danger,swim","HE HAS A SMALL BASKET FOR ME ","0","0","1","0","0","1","0.2","","","","","","","","","","","","","","","","","","","","","","","","","",""
"html-keyboard-response","216","388679","0.0-5.0-1.0-2.8","2","1","re9agk8723kx2mj","","null","","","","null","","","","","","","","","","","","","","","","","","","","","","","","","","","","","","","","","","","","","","","","","",""
"audio-keyboard-response","217","391293","0.0-5.0-1.0-3.8","2","1","re9agk8723kx2mj","","null","","sounds/sentences/left/14_01_cfSWS.wav","","null","","","","","","","","","","","","","","","","","","","","","","","","","","","","","","","","","","","","","","","","","",""
"html-keyboard-response","218","392295","0.0-5.0-1.0-4.8","2","1","re9agk8723kx2mj","","null","","","","null","","","","","","","","","","","","","","","","","","","","","","","","","","","","","","","","","","","","","","","","","",""
"html-button-response","219","393817","0.0-5.0-1.0-5.8","2","1","re9agk8723kx2mj","","1021","","<p>Press the button below when you are ready to continue.</p>","0","","","","","","","","","","","","","","","","","","","","","","","","","","","","","","","","","","","","","","","","","","",""
"audio-keyboard-response","220","396805","0.0-5.0-1.0-0.9","2","1","re9agk8723kx2mj","","null","","sounds/sentences/left/14_05_cfSWS.wav","","null","","","","","","","","","","","","","","","","","","","","","","","","","","","","","","","","","","","","","","","","","",""
"sentence-resp","221","407211","0.0-5.0-1.0-1.9","2","1","re9agk8723kx2mj","","10405","","","","","","","SWS-SENT-RESPONSE","","","{""Q0"":""he wonders why he cannot find the girl ""}","The glow deepened in the eyes of the sweet girl.","glow,deepened,eyes,sweet,girl","HE WONDERS WHY HE CANNOT FIND THE GIRL ","0","0","0","0","1","1","0.2","","","","","","","","","","","","","","","","","","","","","","","","","",""
"html-keyboard-response","222","408461","0.0-5.0-1.0-2.9","2","1","re9agk8723kx2mj","","null","","","","null","","","","","","","","","","","","","","","","","","","","","","","","","","","","","","","","","","","","","","","","","",""
"audio-keyboard-response","223","410948","0.0-5.0-1.0-3.9","2","1","re9agk8723kx2mj","","null","","sounds/sentences/left/14_05_cfSWS.wav","","null","","","","","","","","","","","","","","","","","","","","","","","","","","","","","","","","","","","","","","","","","",""
"html-keyboard-response","224","411950","0.0-5.0-1.0-4.9","2","1","re9agk8723kx2mj","","null","","","","null","","","","","","","","","","","","","","","","","","","","","","","","","","","","","","","","","","","","","","","","","",""
"html-button-response","225","413193","0.0-5.0-1.0-5.9","2","1","re9agk8723kx2mj","","740.9999999999418","","<p>Press the button below when you are ready to continue.</p>","0","","","","","","","","","","","","","","","","","","","","","","","","","","","","","","","","","","","","","","","","","","",""
"html-keyboard-response","226","424320","0.0-6.0-0.0","2","1","re9agk8723kx2mj","","10625","","<p>In this part of the study, you will hear sounds similar to those you just heard.</p><p>Please focus on these sounds, as you may be asked questions about them later.</p><p>Occasionally, the sounds will pause for up to two seconds. When this happens, please press SPACEBAR as quickly as you can.</br>This helps ensure that you are paying attention to the sounds.</p><p>This part of the study will take about 12 minutes to complete, and you will be given the opportunity to take a couple of short breaks every few minutes.</p><p><strong>Press SPACEBAR to begin</strong></p>","","32","","","","","","","","","","","","","","","","","","","","","","","","","","","","","","","","","","","","","","","","","",""
"html-keyboard-response","227","425321","0.0-6.0-1.0-0.0","2","1","re9agk8723kx2mj","","null","","<p style=""font-size: 40px;"">+</p>","","null","","","","","","","","","","","","","","","","","","","","","","","","","","","","","","","","","","","","","","","","","",""
"html-keyboard-response","228","613150","0.0-6.0-1.0-1.0","2","1","re9agk8723kx2mj","","null","","","","null","","","SL-TRAIN","","","","","","","","","","","","","","2","null","null","sounds/B/TRAIN/SEQ__12.mp3","3","","","","","","","","","","","","","","","","","","","","",""
"html-button-response","229","624243","0.0-6.0-1.0-2.0","2","1","re9agk8723kx2mj","","11083","","<p>You may take a short break if you wish.</p>","0","","","","","","","","","","","","","","","","","","","","","","","","","","","","","","","","","","","","","","","","","","",""
"html-keyboard-response","230","625246","0.0-6.0-1.0-3.0","2","1","re9agk8723kx2mj","","null","","<p style=""font-size: 40px;"">+</p>","","null","","","","","","","","","","","","","","","","","","","","","","","","","","","","","","","","","","","","","","","","","",""
"html-keyboard-response","231","810244","0.0-6.0-1.0-4.0","2","1","re9agk8723kx2mj","","null","","","","null","","","SL-TRAIN","","","","","","","","","","","","","","2","null","null","sounds/B/TRAIN/SEQ__06.mp3","2","","","","","","","","","","","","","","","","","","","","",""
"html-button-response","232","812550","0.0-6.0-1.0-5.0","2","1","re9agk8723kx2mj","","2304","","<p>You may take a short break if you wish.</p>","0","","","","","","","","","","","","","","","","","","","","","","","","","","","","","","","","","","","","","","","","","","",""
"html-keyboard-response","233","813552","0.0-6.0-1.0-6.0","2","1","re9agk8723kx2mj","","null","","<p style=""font-size: 40px;"">+</p>","","null","","","","","","","","","","","","","","","","","","","","","","","","","","","","","","","","","","","","","","","","","",""
"html-keyboard-response","234","998548","0.0-6.0-1.0-7.0","2","1","re9agk8723kx2mj","","null","","","","null","","","SL-TRAIN","","","","","","","","","","","","","","2","null","null","sounds/B/TRAIN/SEQ__05.mp3","63","","","","","","","","","","","","","","","","","","","","",""
"html-button-response","235","1001680","0.0-6.0-1.0-8.0","2","1","re9agk8723kx2mj","","3130","","<p>You may take a short break if you wish.</p>","0","","","","","","","","","","","","","","","","","","","","","","","","","","","","","","","","","","","","","","","","","","",""
"html-keyboard-response","236","1002681","0.0-6.0-1.0-9.0","2","1","re9agk8723kx2mj","","null","","<p style=""font-size: 40px;"">+</p>","","null","","","","","","","","","","","","","","","","","","","","","","","","","","","","","","","","","","","","","","","","","",""
"html-keyboard-response","237","1187675","0.0-6.0-1.0-10.0","2","1","re9agk8723kx2mj","","null","","","","null","","","SL-TRAIN","","","","","","","","","","","","","","1","1182","null","sounds/B/TRAIN/SEQ__09.mp3","179","","","","","","","","","","","","","","","","","","","","",""
"html-button-response","238","1190847","0.0-6.0-1.0-11.0","2","1","re9agk8723kx2mj","","3171","","<p>You may take a short break if you wish.</p>","0","","","","","","","","","","","","","","","","","","","","","","","","","","","","","","","","","","","","","","","","","","",""
"html-button-response","239","1199828","0.0-7.0-0.0","2","1","re9agk8723kx2mj","","8980","","<p>Welcome to the second part of the study. This is a <u>familiarity task</u>.</p><p>You will now hear short sounds and will be asked to rate how familiar they sound to you <b>based on what you heard in the previous part of the study</b>.</p><p>You will rate 12 sounds in total.</p>","0","","","","","","","","","","","","","","","","","","","","","","","","","","","","","","","","","","","","","","","","","","",""
"html-keyboard-response","240","1200829","0.0-7.0-1.0-0.0","2","1","re9agk8723kx2mj","","null","","","","null","","","","","","","","","","","","","","","","","","","","","","","","","","","","","","","","","","","","","","","","","",""
"audio-keyboard-response","241","1202145","0.0-7.0-1.0-1.0","2","1","re9agk8723kx2mj","","null","","sounds/B/FAM/P003.mp3","","null","","","","","","","","","","","","","","","","","","","","","","","","","","","","","","","","","","","","","","","","","",""
"html-keyboard-response","242","1209921","0.0-7.0-1.0-2.0","2","1","re9agk8723kx2mj","","7275","","<p>How familiar did this sound to you?</p><p>1&nbsp;&nbsp;&nbsp;&nbsp;&nbsp;&nbsp;&nbsp;&nbsp;&nbsp;&nbsp;&nbsp;&nbsp;&nbsp;&nbsp;&nbsp;&nbsp;&nbsp;&nbsp;&nbsp;2&nbsp;&nbsp;&nbsp;&nbsp;&nbsp;&nbsp;&nbsp;&nbsp;&nbsp;&nbsp;&nbsp;&nbsp;&nbsp;&nbsp;&nbsp;&nbsp;&nbsp;&nbsp;&nbsp;3&nbsp;&nbsp;&nbsp;&nbsp;&nbsp;&nbsp;&nbsp;&nbsp;&nbsp;&nbsp;&nbsp;&nbsp;&nbsp;&nbsp;&nbsp;&nbsp;&nbsp;&nbsp;&nbsp;4</p><p style=""font-size:14px"">Not at all familiar&nbsp;&nbsp;&nbsp;&nbsp;A little familiar&nbsp;&nbsp;&nbsp;Moderately familiar&nbsp;&nbsp;&nbsp;Extremely familiar</p><p>(press the corresponding number on your keyboard)</p>","","51","","","FAM-RESPONSE","","","","","","","","","","","","","","","","","","","sounds/B/FAM/P003.mp3","partword","","","","","","","","","","","","","","","","","","",""
"html-keyboard-response","243","1211924","0.0-7.0-1.0-0.1","2","1","re9agk8723kx2mj","","null","","","","null","","","","","","","","","","","","","","","","","","","","","","","","","","","","","","","","","","","","","","","","","",""
"audio-keyboard-response","244","1212864","0.0-7.0-1.0-1.1","2","1","re9agk8723kx2mj","","null","","sounds/B/FAM/W004.mp3","","null","","","","","","","","","","","","","","","","","","","","","","","","","","","","","","","","","","","","","","","","","",""
"html-keyboard-response","245","1216060","0.0-7.0-1.0-2.1","2","1","re9agk8723kx2mj","","2694","","<p>How familiar did this sound to you?</p><p>1&nbsp;&nbsp;&nbsp;&nbsp;&nbsp;&nbsp;&nbsp;&nbsp;&nbsp;&nbsp;&nbsp;&nbsp;&nbsp;&nbsp;&nbsp;&nbsp;&nbsp;&nbsp;&nbsp;2&nbsp;&nbsp;&nbsp;&nbsp;&nbsp;&nbsp;&nbsp;&nbsp;&nbsp;&nbsp;&nbsp;&nbsp;&nbsp;&nbsp;&nbsp;&nbsp;&nbsp;&nbsp;&nbsp;3&nbsp;&nbsp;&nbsp;&nbsp;&nbsp;&nbsp;&nbsp;&nbsp;&nbsp;&nbsp;&nbsp;&nbsp;&nbsp;&nbsp;&nbsp;&nbsp;&nbsp;&nbsp;&nbsp;4</p><p style=""font-size:14px"">Not at all familiar&nbsp;&nbsp;&nbsp;&nbsp;A little familiar&nbsp;&nbsp;&nbsp;Moderately familiar&nbsp;&nbsp;&nbsp;Extremely familiar</p><p>(press the corresponding number on your keyboard)</p>","","52","","","FAM-RESPONSE","","","","","","","","","","","","","","","","","","","sounds/B/FAM/W004.mp3","word","","","","","","","","","","","","","","","","","","",""
"html-keyboard-response","246","1218062","0.0-7.0-1.0-0.2","2","1","re9agk8723kx2mj","","null","","","","null","","","","","","","","","","","","","","","","","","","","","","","","","","","","","","","","","","","","","","","","","",""
"audio-keyboard-response","247","1219003","0.0-7.0-1.0-1.2","2","1","re9agk8723kx2mj","","null","","sounds/B/FAM/P001.mp3","","null","","","","","","","","","","","","","","","","","","","","","","","","","","","","","","","","","","","","","","","","","",""
"html-keyboard-response","248","1223624","0.0-7.0-1.0-2.2","2","1","re9agk8723kx2mj","","4121","","<p>How familiar did this sound to you?</p><p>1&nbsp;&nbsp;&nbsp;&nbsp;&nbsp;&nbsp;&nbsp;&nbsp;&nbsp;&nbsp;&nbsp;&nbsp;&nbsp;&nbsp;&nbsp;&nbsp;&nbsp;&nbsp;&nbsp;2&nbsp;&nbsp;&nbsp;&nbsp;&nbsp;&nbsp;&nbsp;&nbsp;&nbsp;&nbsp;&nbsp;&nbsp;&nbsp;&nbsp;&nbsp;&nbsp;&nbsp;&nbsp;&nbsp;3&nbsp;&nbsp;&nbsp;&nbsp;&nbsp;&nbsp;&nbsp;&nbsp;&nbsp;&nbsp;&nbsp;&nbsp;&nbsp;&nbsp;&nbsp;&nbsp;&nbsp;&nbsp;&nbsp;4</p><p style=""font-size:14px"">Not at all familiar&nbsp;&nbsp;&nbsp;&nbsp;A little familiar&nbsp;&nbsp;&nbsp;Moderately familiar&nbsp;&nbsp;&nbsp;Extremely familiar</p><p>(press the corresponding number on your keyboard)</p>","","52","","","FAM-RESPONSE","","","","","","","","","","","","","","","","","","","sounds/B/FAM/P001.mp3","partword","","","","","","","","","","","","","","","","","","",""
"html-keyboard-response","249","1225628","0.0-7.0-1.0-0.3","2","1","re9agk8723kx2mj","","null","","","","null","","","","","","","","","","","","","","","","","","","","","","","","","","","","","","","","","","","","","","","","","",""
"audio-keyboard-response","250","1226568","0.0-7.0-1.0-1.3","2","1","re9agk8723kx2mj","","null","","sounds/B/FAM/W001.mp3","","null","","","","","","","","","","","","","","","","","","","","","","","","","","","","","","","","","","","","","","","","","",""
"html-keyboard-response","251","1228664","0.0-7.0-1.0-2.3","2","1","re9agk8723kx2mj","","1594","","<p>How familiar did this sound to you?</p><p>1&nbsp;&nbsp;&nbsp;&nbsp;&nbsp;&nbsp;&nbsp;&nbsp;&nbsp;&nbsp;&nbsp;&nbsp;&nbsp;&nbsp;&nbsp;&nbsp;&nbsp;&nbsp;&nbsp;2&nbsp;&nbsp;&nbsp;&nbsp;&nbsp;&nbsp;&nbsp;&nbsp;&nbsp;&nbsp;&nbsp;&nbsp;&nbsp;&nbsp;&nbsp;&nbsp;&nbsp;&nbsp;&nbsp;3&nbsp;&nbsp;&nbsp;&nbsp;&nbsp;&nbsp;&nbsp;&nbsp;&nbsp;&nbsp;&nbsp;&nbsp;&nbsp;&nbsp;&nbsp;&nbsp;&nbsp;&nbsp;&nbsp;4</p><p style=""font-size:14px"">Not at all familiar&nbsp;&nbsp;&nbsp;&nbsp;A little familiar&nbsp;&nbsp;&nbsp;Moderately familiar&nbsp;&nbsp;&nbsp;Extremely familiar</p><p>(press the corresponding number on your keyboard)</p>","","51","","","FAM-RESPONSE","","","","","","","","","","","","","","","","","","","sounds/B/FAM/W001.mp3","word","","","","","","","","","","","","","","","","","","",""
"html-keyboard-response","252","1230666","0.0-7.0-1.0-0.4","2","1","re9agk8723kx2mj","","null","","","","null","","","","","","","","","","","","","","","","","","","","","","","","","","","","","","","","","","","","","","","","","",""
"audio-keyboard-response","253","1231607","0.0-7.0-1.0-1.4","2","1","re9agk8723kx2mj","","null","","sounds/B/FAM/P004.mp3","","null","","","","","","","","","","","","","","","","","","","","","","","","","","","","","","","","","","","","","","","","","",""
"html-keyboard-response","254","1233372","0.0-7.0-1.0-2.4","2","1","re9agk8723kx2mj","","1263","","<p>How familiar did this sound to you?</p><p>1&nbsp;&nbsp;&nbsp;&nbsp;&nbsp;&nbsp;&nbsp;&nbsp;&nbsp;&nbsp;&nbsp;&nbsp;&nbsp;&nbsp;&nbsp;&nbsp;&nbsp;&nbsp;&nbsp;2&nbsp;&nbsp;&nbsp;&nbsp;&nbsp;&nbsp;&nbsp;&nbsp;&nbsp;&nbsp;&nbsp;&nbsp;&nbsp;&nbsp;&nbsp;&nbsp;&nbsp;&nbsp;&nbsp;3&nbsp;&nbsp;&nbsp;&nbsp;&nbsp;&nbsp;&nbsp;&nbsp;&nbsp;&nbsp;&nbsp;&nbsp;&nbsp;&nbsp;&nbsp;&nbsp;&nbsp;&nbsp;&nbsp;4</p><p style=""font-size:14px"">Not at all familiar&nbsp;&nbsp;&nbsp;&nbsp;A little familiar&nbsp;&nbsp;&nbsp;Moderately familiar&nbsp;&nbsp;&nbsp;Extremely familiar</p><p>(press the corresponding number on your keyboard)</p>","","50","","","FAM-RESPONSE","","","","","","","","","","","","","","","","","","","sounds/B/FAM/P004.mp3","partword","","","","","","","","","","","","","","","","","","",""
"html-keyboard-response","255","1235374","0.0-7.0-1.0-0.5","2","1","re9agk8723kx2mj","","null","","","","null","","","","","","","","","","","","","","","","","","","","","","","","","","","","","","","","","","","","","","","","","",""
"audio-keyboard-response","256","1236314","0.0-7.0-1.0-1.5","2","1","re9agk8723kx2mj","","null","","sounds/B/FAM/N004.mp3","","null","","","","","","","","","","","","","","","","","","","","","","","","","","","","","","","","","","","","","","","","","",""
"html-keyboard-response","257","1240141","0.0-7.0-1.0-2.5","2","1","re9agk8723kx2mj","","3325.999999999767","","<p>How familiar did this sound to you?</p><p>1&nbsp;&nbsp;&nbsp;&nbsp;&nbsp;&nbsp;&nbsp;&nbsp;&nbsp;&nbsp;&nbsp;&nbsp;&nbsp;&nbsp;&nbsp;&nbsp;&nbsp;&nbsp;&nbsp;2&nbsp;&nbsp;&nbsp;&nbsp;&nbsp;&nbsp;&nbsp;&nbsp;&nbsp;&nbsp;&nbsp;&nbsp;&nbsp;&nbsp;&nbsp;&nbsp;&nbsp;&nbsp;&nbsp;3&nbsp;&nbsp;&nbsp;&nbsp;&nbsp;&nbsp;&nbsp;&nbsp;&nbsp;&nbsp;&nbsp;&nbsp;&nbsp;&nbsp;&nbsp;&nbsp;&nbsp;&nbsp;&nbsp;4</p><p style=""font-size:14px"">Not at all familiar&nbsp;&nbsp;&nbsp;&nbsp;A little familiar&nbsp;&nbsp;&nbsp;Moderately familiar&nbsp;&nbsp;&nbsp;Extremely familiar</p><p>(press the corresponding number on your keyboard)</p>","","51","","","FAM-RESPONSE","","","","","","","","","","","","","","","","","","","sounds/B/FAM/N004.mp3","nonword","","","","","","","","","","","","","","","","","","",""
"html-keyboard-response","258","1242143","0.0-7.0-1.0-0.6","2","1","re9agk8723kx2mj","","null","","","","null","","","","","","","","","","","","","","","","","","","","","","","","","","","","","","","","","","","","","","","","","",""
"audio-keyboard-response","259","1243084","0.0-7.0-1.0-1.6","2","1","re9agk8723kx2mj","","null","","sounds/B/FAM/P002.mp3","","null","","","","","","","","","","","","","","","","","","","","","","","","","","","","","","","","","","","","","","","","","",""
"html-keyboard-response","260","1244204","0.0-7.0-1.0-2.6","2","1","re9agk8723kx2mj","","618","","<p>How familiar did this sound to you?</p><p>1&nbsp;&nbsp;&nbsp;&nbsp;&nbsp;&nbsp;&nbsp;&nbsp;&nbsp;&nbsp;&nbsp;&nbsp;&nbsp;&nbsp;&nbsp;&nbsp;&nbsp;&nbsp;&nbsp;2&nbsp;&nbsp;&nbsp;&nbsp;&nbsp;&nbsp;&nbsp;&nbsp;&nbsp;&nbsp;&nbsp;&nbsp;&nbsp;&nbsp;&nbsp;&nbsp;&nbsp;&nbsp;&nbsp;3&nbsp;&nbsp;&nbsp;&nbsp;&nbsp;&nbsp;&nbsp;&nbsp;&nbsp;&nbsp;&nbsp;&nbsp;&nbsp;&nbsp;&nbsp;&nbsp;&nbsp;&nbsp;&nbsp;4</p><p style=""font-size:14px"">Not at all familiar&nbsp;&nbsp;&nbsp;&nbsp;A little familiar&nbsp;&nbsp;&nbsp;Moderately familiar&nbsp;&nbsp;&nbsp;Extremely familiar</p><p>(press the corresponding number on your keyboard)</p>","","52","","","FAM-RESPONSE","","","","","","","","","","","","","","","","","","","sounds/B/FAM/P002.mp3","partword","","","","","","","","","","","","","","","","","","",""
"html-keyboard-response","261","1246207","0.0-7.0-1.0-0.7","2","1","re9agk8723kx2mj","","null","","","","null","","","","","","","","","","","","","","","","","","","","","","","","","","","","","","","","","","","","","","","","","",""
"audio-keyboard-response","262","1247148","0.0-7.0-1.0-1.7","2","1","re9agk8723kx2mj","","null","","sounds/B/FAM/N001.mp3","","null","","","","","","","","","","","","","","","","","","","","","","","","","","","","","","","","","","","","","","","","","",""
"html-keyboard-response","263","1248579","0.0-7.0-1.0-2.7","2","1","re9agk8723kx2mj","","930","","<p>How familiar did this sound to you?</p><p>1&nbsp;&nbsp;&nbsp;&nbsp;&nbsp;&nbsp;&nbsp;&nbsp;&nbsp;&nbsp;&nbsp;&nbsp;&nbsp;&nbsp;&nbsp;&nbsp;&nbsp;&nbsp;&nbsp;2&nbsp;&nbsp;&nbsp;&nbsp;&nbsp;&nbsp;&nbsp;&nbsp;&nbsp;&nbsp;&nbsp;&nbsp;&nbsp;&nbsp;&nbsp;&nbsp;&nbsp;&nbsp;&nbsp;3&nbsp;&nbsp;&nbsp;&nbsp;&nbsp;&nbsp;&nbsp;&nbsp;&nbsp;&nbsp;&nbsp;&nbsp;&nbsp;&nbsp;&nbsp;&nbsp;&nbsp;&nbsp;&nbsp;4</p><p style=""font-size:14px"">Not at all familiar&nbsp;&nbsp;&nbsp;&nbsp;A little familiar&nbsp;&nbsp;&nbsp;Moderately familiar&nbsp;&nbsp;&nbsp;Extremely familiar</p><p>(press the corresponding number on your keyboard)</p>","","50","","","FAM-RESPONSE","","","","","","","","","","","","","","","","","","","sounds/B/FAM/N001.mp3","nonword","","","","","","","","","","","","","","","","","","",""
"html-keyboard-response","264","1250581","0.0-7.0-1.0-0.8","2","1","re9agk8723kx2mj","","null","","","","null","","","","","","","","","","","","","","","","","","","","","","","","","","","","","","","","","","","","","","","","","",""
"audio-keyboard-response","265","1251521","0.0-7.0-1.0-1.8","2","1","re9agk8723kx2mj","","null","","sounds/B/FAM/W002.mp3","","null","","","","","","","","","","","","","","","","","","","","","","","","","","","","","","","","","","","","","","","","","",""
"html-keyboard-response","266","1253743","0.0-7.0-1.0-2.8","2","1","re9agk8723kx2mj","","1721","","<p>How familiar did this sound to you?</p><p>1&nbsp;&nbsp;&nbsp;&nbsp;&nbsp;&nbsp;&nbsp;&nbsp;&nbsp;&nbsp;&nbsp;&nbsp;&nbsp;&nbsp;&nbsp;&nbsp;&nbsp;&nbsp;&nbsp;2&nbsp;&nbsp;&nbsp;&nbsp;&nbsp;&nbsp;&nbsp;&nbsp;&nbsp;&nbsp;&nbsp;&nbsp;&nbsp;&nbsp;&nbsp;&nbsp;&nbsp;&nbsp;&nbsp;3&nbsp;&nbsp;&nbsp;&nbsp;&nbsp;&nbsp;&nbsp;&nbsp;&nbsp;&nbsp;&nbsp;&nbsp;&nbsp;&nbsp;&nbsp;&nbsp;&nbsp;&nbsp;&nbsp;4</p><p style=""font-size:14px"">Not at all familiar&nbsp;&nbsp;&nbsp;&nbsp;A little familiar&nbsp;&nbsp;&nbsp;Moderately familiar&nbsp;&nbsp;&nbsp;Extremely familiar</p><p>(press the corresponding number on your keyboard)</p>","","52","","","FAM-RESPONSE","","","","","","","","","","","","","","","","","","","sounds/B/FAM/W002.mp3","word","","","","","","","","","","","","","","","","","","",""
"html-keyboard-response","267","1255745","0.0-7.0-1.0-0.9","2","1","re9agk8723kx2mj","","null","","","","null","","","","","","","","","","","","","","","","","","","","","","","","","","","","","","","","","","","","","","","","","",""
"audio-keyboard-response","268","1256686","0.0-7.0-1.0-1.9","2","1","re9agk8723kx2mj","","null","","sounds/B/FAM/N002.mp3","","null","","","","","","","","","","","","","","","","","","","","","","","","","","","","","","","","","","","","","","","","","",""
"html-keyboard-response","269","1259367","0.0-7.0-1.0-2.9","2","1","re9agk8723kx2mj","","2089.000000000233","","<p>How familiar did this sound to you?</p><p>1&nbsp;&nbsp;&nbsp;&nbsp;&nbsp;&nbsp;&nbsp;&nbsp;&nbsp;&nbsp;&nbsp;&nbsp;&nbsp;&nbsp;&nbsp;&nbsp;&nbsp;&nbsp;&nbsp;2&nbsp;&nbsp;&nbsp;&nbsp;&nbsp;&nbsp;&nbsp;&nbsp;&nbsp;&nbsp;&nbsp;&nbsp;&nbsp;&nbsp;&nbsp;&nbsp;&nbsp;&nbsp;&nbsp;3&nbsp;&nbsp;&nbsp;&nbsp;&nbsp;&nbsp;&nbsp;&nbsp;&nbsp;&nbsp;&nbsp;&nbsp;&nbsp;&nbsp;&nbsp;&nbsp;&nbsp;&nbsp;&nbsp;4</p><p style=""font-size:14px"">Not at all familiar&nbsp;&nbsp;&nbsp;&nbsp;A little familiar&nbsp;&nbsp;&nbsp;Moderately familiar&nbsp;&nbsp;&nbsp;Extremely familiar</p><p>(press the corresponding number on your keyboard)</p>","","51","","","FAM-RESPONSE","","","","","","","","","","","","","","","","","","","sounds/B/FAM/N002.mp3","nonword","","","","","","","","","","","","","","","","","","",""
"html-keyboard-response","270","1261369","0.0-7.0-1.0-0.10","2","1","re9agk8723kx2mj","","null","","","","null","","","","","","","","","","","","","","","","","","","","","","","","","","","","","","","","","","","","","","","","","",""
"audio-keyboard-response","271","1262310","0.0-7.0-1.0-1.10","2","1","re9agk8723kx2mj","","null","","sounds/B/FAM/W003.mp3","","null","","","","","","","","","","","","","","","","","","","","","","","","","","","","","","","","","","","","","","","","","",""
"html-keyboard-response","272","1263331","0.0-7.0-1.0-2.10","2","1","re9agk8723kx2mj","","519","","<p>How familiar did this sound to you?</p><p>1&nbsp;&nbsp;&nbsp;&nbsp;&nbsp;&nbsp;&nbsp;&nbsp;&nbsp;&nbsp;&nbsp;&nbsp;&nbsp;&nbsp;&nbsp;&nbsp;&nbsp;&nbsp;&nbsp;2&nbsp;&nbsp;&nbsp;&nbsp;&nbsp;&nbsp;&nbsp;&nbsp;&nbsp;&nbsp;&nbsp;&nbsp;&nbsp;&nbsp;&nbsp;&nbsp;&nbsp;&nbsp;&nbsp;3&nbsp;&nbsp;&nbsp;&nbsp;&nbsp;&nbsp;&nbsp;&nbsp;&nbsp;&nbsp;&nbsp;&nbsp;&nbsp;&nbsp;&nbsp;&nbsp;&nbsp;&nbsp;&nbsp;4</p><p style=""font-size:14px"">Not at all familiar&nbsp;&nbsp;&nbsp;&nbsp;A little familiar&nbsp;&nbsp;&nbsp;Moderately familiar&nbsp;&nbsp;&nbsp;Extremely familiar</p><p>(press the corresponding number on your keyboard)</p>","","52","","","FAM-RESPONSE","","","","","","","","","","","","","","","","","","","sounds/B/FAM/W003.mp3","word","","","","","","","","","","","","","","","","","","",""
"html-keyboard-response","273","1265334","0.0-7.0-1.0-0.11","2","1","re9agk8723kx2mj","","null","","","","null","","","","","","","","","","","","","","","","","","","","","","","","","","","","","","","","","","","","","","","","","",""
"audio-keyboard-response","274","1266275","0.0-7.0-1.0-1.11","2","1","re9agk8723kx2mj","","null","","sounds/B/FAM/N003.mp3","","null","","","","","","","","","","","","","","","","","","","","","","","","","","","","","","","","","","","","","","","","","",""
"html-keyboard-response","275","1268254","0.0-7.0-1.0-2.11","2","1","re9agk8723kx2mj","","1478","","<p>How familiar did this sound to you?</p><p>1&nbsp;&nbsp;&nbsp;&nbsp;&nbsp;&nbsp;&nbsp;&nbsp;&nbsp;&nbsp;&nbsp;&nbsp;&nbsp;&nbsp;&nbsp;&nbsp;&nbsp;&nbsp;&nbsp;2&nbsp;&nbsp;&nbsp;&nbsp;&nbsp;&nbsp;&nbsp;&nbsp;&nbsp;&nbsp;&nbsp;&nbsp;&nbsp;&nbsp;&nbsp;&nbsp;&nbsp;&nbsp;&nbsp;3&nbsp;&nbsp;&nbsp;&nbsp;&nbsp;&nbsp;&nbsp;&nbsp;&nbsp;&nbsp;&nbsp;&nbsp;&nbsp;&nbsp;&nbsp;&nbsp;&nbsp;&nbsp;&nbsp;4</p><p style=""font-size:14px"">Not at all familiar&nbsp;&nbsp;&nbsp;&nbsp;A little familiar&nbsp;&nbsp;&nbsp;Moderately familiar&nbsp;&nbsp;&nbsp;Extremely familiar</p><p>(press the corresponding number on your keyboard)</p>","","52","","","FAM-RESPONSE","","","","","","","","","","","","","","","","","","","sounds/B/FAM/N003.mp3","nonword","","","","","","","","","","","","","","","","","","",""
"html-button-response","276","1276268","0.0-8.0-0.0","2","1","re9agk8723kx2mj","","7012","","<p>You will now listen to longer sound sequences.</p><p>Each sound sequence will last about 16 seconds.</p><p>On each trial, you will be given a <u>TARGET SOUND</u>. Your task is to listen very carefully for this sound.</p><p>Every time you hear the <u>TARGET SOUND</u>, you will press the <b>SPACEBAR</b> as quickly and accurately as you can.</p>","0","","","","","","","","","","","","","","","","","","","","","","","","","","","","","","","","","","","","","","","","","","",""
"html-button-response","277","1285850","0.0-8.0-1.0","2","1","re9agk8723kx2mj","","9330","","<p>It is very important that you make your responses as quickly and accurately as possible.</p><p>To help you make your responses, you will be able to listen to the <u>TARGET SOUND</u> at the beginning of each trial.</p><p>There will be 36 total trials.</p><p><b>Note: This is meant to be a difficult task. We simply want you to try your best.</p>","0","","","","","","","","","","","","","","","","","","","","","","","","","","","","","","","","","","","","","","","","","","",""
"html-button-response","278","1287653","0.0-8.0-2.0-0.0","2","1","re9agk8723kx2mj","","1552.0000000002328","","<p>Trial 1 of 36</p>","0","","","","","","","","","","","","","","","","","","","","","","","","","KO","sounds/syllables/ko_SWS.wav","1200,5700,10200,12900","2","","","","","","","","","","","","","","",""
"html-keyboard-response","279","1290365","0.0-8.0-2.0-1.0","2","1","re9agk8723kx2mj","","2711.000000000233","","","","80","","","","","","","","","","","","","","","","","","","","","","","","KO","","1200,5700,10200,12900","2","","","","","","","","","","","","","","",""
"audio-keyboard-response","280","1290666","0.0-8.0-2.0-2.0-0.0","2","1","re9agk8723kx2mj","","null","","sounds/syllables/ko_SWS.wav","","null","","","","","","","","","","","","","","","","","","","","","","","","","","","","","","","","","","","","","","","","","",""
"html-keyboard-response","281","1293882","0.0-8.0-2.0-2.0-1.0","2","1","re9agk8723kx2mj","","3216","","<p>To replay the <u>TARGET SOUND</u>, press P.</p> When you are ready to begin, press SPACEBAR.","","80","","","","","","","","","","","","","","","","","","","","","","","","","","","","","","","","","","","","","","","","","",""
"audio-keyboard-response","282","1294684","0.0-8.0-2.0-2.1-0.1","2","1","re9agk8723kx2mj","","null","","sounds/syllables/ko_SWS.wav","","null","","","","","","","","","","","","","","","","","","","","","","","","","","","","","","","","","","","","","","","","","",""
"html-keyboard-response","283","1296596","0.0-8.0-2.0-2.1-1.1","2","1","re9agk8723kx2mj","","1911","","<p>To replay the <u>TARGET SOUND</u>, press P.</p> When you are ready to begin, press SPACEBAR.","","80","","","","","","","","","","","","","","","","","","","","","","","","","","","","","","","","","","","","","","","","","",""
"audio-keyboard-response","284","1297399","0.0-8.0-2.0-2.2-0.2","2","1","re9agk8723kx2mj","","null","","sounds/syllables/ko_SWS.wav","","null","","","","","","","","","","","","","","","","","","","","","","","","","","","","","","","","","","","","","","","","","",""
"html-keyboard-response","285","1298143","0.0-8.0-2.0-2.2-1.2","2","1","re9agk8723kx2mj","","744.0000000002328","","<p>To replay the <u>TARGET SOUND</u>, press P.</p> When you are ready to begin, press SPACEBAR.","","32","","","","","","","","","","","","","","","","","","","","","","","","","","","","","","","","","","","","","","","","","",""
"audio-keyboard-response","286","1313092","0.0-8.0-2.0-3.0","2","1","re9agk8723kx2mj","","1456","","sounds/B/TD/KO_02_TD.mp3","","32","","","TD_SUMMARY","","","","","","","","","","","","","","","","","","","","","KO","","1200,5700,10200,12900","2","1200","5700","10200","12900","256","716","804","540","1456_2526_3764_5007_6416_7483_8744_10201_10732_11004_13440","3","","","","",""
"html-button-response","287","1314925","0.0-8.0-2.0-0.1","2","1","re9agk8723kx2mj","","1832","","<p>Trial 2 of 36</p>","0","","","","","","","","","","","","","","","","","","","","","","","","","ME","sounds/syllables/me_SWS.wav","3900,5700,7500,11100","2","","","","","","","","","","","","","","",""
"html-keyboard-response","288","1316586","0.0-8.0-2.0-1.1","2","1","re9agk8723kx2mj","","1661","","","","80","","","","","","","","","","","","","","","","","","","","","","","","ME","","3900,5700,7500,11100","2","","","","","","","","","","","","","","",""
"audio-keyboard-response","289","1316886","0.0-8.0-2.0-2.3-0.3","2","1","re9agk8723kx2mj","","null","","sounds/syllables/me_SWS.wav","","null","","","","","","","","","","","","","","","","","","","","","","","","","","","","","","","","","","","","","","","","","",""
"html-keyboard-response","290","1317638","0.0-8.0-2.0-2.3-1.3","2","1","re9agk8723kx2mj","","752","","<p>To replay the <u>TARGET SOUND</u>, press P.</p> When you are ready to begin, press SPACEBAR.","","80","","","","","","","","","","","","","","","","","","","","","","","","","","","","","","","","","","","","","","","","","",""
"audio-keyboard-response","291","1318441","0.0-8.0-2.0-2.4-0.4","2","1","re9agk8723kx2mj","","null","","sounds/syllables/me_SWS.wav","","null","","","","","","","","","","","","","","","","","","","","","","","","","","","","","","","","","","","","","","","","","",""
"html-keyboard-response","292","1318956","0.0-8.0-2.0-2.4-1.4","2","1","re9agk8723kx2mj","","514.9999999997672","","<p>To replay the <u>TARGET SOUND</u>, press P.</p> When you are ready to begin, press SPACEBAR.","","80","","","","","","","","","","","","","","","","","","","","","","","","","","","","","","","","","","","","","","","","","",""
"audio-keyboard-response","293","1319758","0.0-8.0-2.0-2.5-0.5","2","1","re9agk8723kx2mj","","null","","sounds/syllables/me_SWS.wav","","null","","","","","","","","","","","","","","","","","","","","","","","","","","","","","","","","","","","","","","","","","",""
"html-keyboard-response","294","1320102","0.0-8.0-2.0-2.5-1.5","2","1","re9agk8723kx2mj","","343.99999999976717","","<p>To replay the <u>TARGET SOUND</u>, press P.</p> When you are ready to begin, press SPACEBAR.","","32","","","","","","","","","","","","","","","","","","","","","","","","","","","","","","","","","","","","","","","","","",""
"audio-keyboard-response","295","1335051","0.0-8.0-2.0-3.1","2","1","re9agk8723kx2mj","","939","","sounds/B/TD/ME_10_TD.mp3","","32","","","TD_SUMMARY","","","","","","","","","","","","","","","","","","","","","ME","","3900,5700,7500,11100","2","3900","5700","7500","11100","218.99999999976717","null","894","690.9999999997672","___________937.9999999997672_2750_4118.999999999767_5560.999999999767_7219.999999999767_8394_9331.999999999767_10673.999999999767_11790.999999999767_13048_14202","3","","","","",""
"html-button-response","296","1337076","0.0-8.0-2.0-0.2","2","1","re9agk8723kx2mj","","2025","","<p>Trial 3 of 36</p>","0","","","","","","","","","","","","","","","","","","","","","","","","","TI","sounds/syllables/ti_SWS.wav","900,3600,8100,11700","1","","","","","","","","","","","","","","",""
"html-keyboard-response","297","1338374","0.0-8.0-2.0-1.2","2","1","re9agk8723kx2mj","","1298","","","","80","","","","","","","","","","","","","","","","","","","","","","","","TI","","900,3600,8100,11700","1","","","","","","","","","","","","","","",""
"audio-keyboard-response","298","1338674","0.0-8.0-2.0-2.6-0.6","2","1","re9agk8723kx2mj","","null","","sounds/syllables/ti_SWS.wav","","null","","","","","","","","","","","","","","","","","","","","","","","","","","","","","","","","","","","","","","","","","",""
"html-keyboard-response","299","1339931","0.0-8.0-2.0-2.6-1.6","2","1","re9agk8723kx2mj","","1256","","<p>To replay the <u>TARGET SOUND</u>, press P.</p> When you are ready to begin, press SPACEBAR.","","80","","","","","","","","","","","","","","","","","","","","","","","","","","","","","","","","","","","","","","","","","",""
"audio-keyboard-response","300","1340733","0.0-8.0-2.0-2.7-0.7","2","1","re9agk8723kx2mj","","null","","sounds/syllables/ti_SWS.wav","","null","","","","","","","","","","","","","","","","","","","","","","","","","","","","","","","","","","","","","","","","","",""
"html-keyboard-response","301","1341464","0.0-8.0-2.0-2.7-1.7","2","1","re9agk8723kx2mj","","731","","<p>To replay the <u>TARGET SOUND</u>, press P.</p> When you are ready to begin, press SPACEBAR.","","80","","","","","","","","","","","","","","","","","","","","","","","","","","","","","","","","","","","","","","","","","",""
"audio-keyboard-response","302","1342266","0.0-8.0-2.0-2.8-0.8","2","1","re9agk8723kx2mj","","null","","sounds/syllables/ti_SWS.wav","","null","","","","","","","","","","","","","","","","","","","","","","","","","","","","","","","","","","","","","","","","","",""
"html-keyboard-response","303","1342728","0.0-8.0-2.0-2.8-1.8","2","1","re9agk8723kx2mj","","461.00000000023283","","<p>To replay the <u>TARGET SOUND</u>, press P.</p> When you are ready to begin, press SPACEBAR.","","32","","","","","","","","","","","","","","","","","","","","","","","","","","","","","","","","","","","","","","","","","",""
"audio-keyboard-response","304","1357676","0.0-8.0-2.0-3.2","2","1","re9agk8723kx2mj","","2101","","sounds/B/TD/TI_08_TD.mp3","","32","","","TD_SUMMARY","","","","","","","","","","","","","","","","","","","","","TI","","900,3600,8100,11700","1","900","3600","8100","11700","null","null","1006","1136.0000000002328","______________________2102_3499.000000000233_4857_6319_7748_9106_10398_11742_12836.000000000233_14064","3","","","","",""
"html-button-response","305","1360007","0.0-8.0-2.0-0.3","2","1","re9agk8723kx2mj","","2330","","<p>Trial 4 of 36</p>","0","","","","","","","","","","","","","","","","","","","","","","","","","FE","sounds/syllables/fe_SWS.wav","3300,5100,8700,11400","3","","","","","","","","","","","","","","",""
"html-keyboard-response","306","1360900","0.0-8.0-2.0-1.3","2","1","re9agk8723kx2mj","","892.0000000002328","","","","80","","","","","","","","","","","","","","","","","","","","","","","","FE","","3300,5100,8700,11400","3","","","","","","","","","","","","","","",""
"audio-keyboard-response","307","1361201","0.0-8.0-2.0-2.9-0.9","2","1","re9agk8723kx2mj","","null","","sounds/syllables/fe_SWS.wav","","null","","","","","","","","","","","","","","","","","","","","","","","","","","","","","","","","","","","","","","","","","",""
"html-keyboard-response","308","1361704","0.0-8.0-2.0-2.9-1.9","2","1","re9agk8723kx2mj","","503","","<p>To replay the <u>TARGET SOUND</u>, press P.</p> When you are ready to begin, press SPACEBAR.","","80","","","","","","","","","","","","","","","","","","","","","","","","","","","","","","","","","","","","","","","","","",""
"audio-keyboard-response","309","1362505","0.0-8.0-2.0-2.10-0.10","2","1","re9agk8723kx2mj","","null","","sounds/syllables/fe_SWS.wav","","null","","","","","","","","","","","","","","","","","","","","","","","","","","","","","","","","","","","","","","","","","",""
"html-keyboard-response","310","1363179","0.0-8.0-2.0-2.10-1.10","2","1","re9agk8723kx2mj","","673","","<p>To replay the <u>TARGET SOUND</u>, press P.</p> When you are ready to begin, press SPACEBAR.","","80","","","","","","","","","","","","","","","","","","","","","","","","","","","","","","","","","","","","","","","","","",""
"audio-keyboard-response","311","1363980","0.0-8.0-2.0-2.11-0.11","2","1","re9agk8723kx2mj","","null","","sounds/syllables/fe_SWS.wav","","null","","","","","","","","","","","","","","","","","","","","","","","","","","","","","","","","","","","","","","","","","",""
"html-keyboard-response","312","1364994","0.0-8.0-2.0-2.11-1.11","2","1","re9agk8723kx2mj","","1014","","<p>To replay the <u>TARGET SOUND</u>, press P.</p> When you are ready to begin, press SPACEBAR.","","32","","","","","","","","","","","","","","","","","","","","","","","","","","","","","","","","","","","","","","","","","",""
"audio-keyboard-response","313","1379942","0.0-8.0-2.0-3.3","2","1","re9agk8723kx2mj","","1507","","sounds/B/TD/FE_09_TD.mp3","","32","","","TD_SUMMARY","","","","","","","","","","","","","","","","","","","","","FE","","3300,5100,8700,11400","3","3300","5100","8700","11400","1094.9999999997672","null","637.9999999997672","813.9999999997672","________________________________1505.9999999997672_2205.999999999767_3160.999999999767_4394.999999999767_4611.999999999767_4890.999999999767_5227.999999999767_7120.999999999767_8912.999999999767_9337.999999999767_11075.999999999767_12213.999999999767_14337","3","","","","",""
"html-button-response","314","1381913","0.0-8.0-2.0-0.4","2","1","re9agk8723kx2mj","","1971","","<p>Trial 5 of 36</p>","0","","","","","","","","","","","","","","","","","","","","","","","","","FE","sounds/syllables/fe_SWS.wav","3300,7800,9600,11400","3","","","","","","","","","","","","","","",""
"html-keyboard-response","315","1382655","0.0-8.0-2.0-1.4","2","1","re9agk8723kx2mj","","742","","","","80","","","","","","","","","","","","","","","","","","","","","","","","FE","","3300,7800,9600,11400","3","","","","","","","","","","","","","","",""
"audio-keyboard-response","316","1382955","0.0-8.0-2.0-2.12-0.12","2","1","re9agk8723kx2mj","","null","","sounds/syllables/fe_SWS.wav","","null","","","","","","","","","","","","","","","","","","","","","","","","","","","","","","","","","","","","","","","","","",""
"html-keyboard-response","317","1383538","0.0-8.0-2.0-2.12-1.12","2","1","re9agk8723kx2mj","","583","","<p>To replay the <u>TARGET SOUND</u>, press P.</p> When you are ready to begin, press SPACEBAR.","","80","","","","","","","","","","","","","","","","","","","","","","","","","","","","","","","","","","","","","","","","","",""
