"trial_type","trial_index","time_elapsed","internal_node_id","counterbalance","lang_instruct","ParticipantID","view_history","rt","url","stimulus","button_pressed","key_press","correctRESP","correct","designation","location","correctanswer","timeouts","pause_rt01","pause_rt02","train_file","numKeyPress","sound","fam_type","SYLLABLE","EXEMPLAR","TD_LOCS","TD_TYPE","TDLOC_01","TDLOC_02","TDLOC_03","TDLOC_04","TD_RT_01","TD_RT_02","TD_RT_03","TD_RT_04","TD_SUBJ_RTs","number_of_plays","responses","syllable","syllable_type"
"pavlovia","0","6","0.0-0.0","2","0","4jmezqs5npk3znh","","","","","","","","","","","","","","","","","","","","","","","","","","","","","","","","","","",""
"instructions","1","39232","0.0-1.0","2","0","4jmezqs5npk3znh","[{""page_index"":0,""viewing_time"":11576.200000047684},{""page_index"":1,""viewing_time"":27642}]","39224.5","","","","","","","","","","","","","","","","","","","","","","","","","","","","","","","","",""
"external-html","2","48319","0.0-2.0","2","0","4jmezqs5npk3znh","","8747.399999976158","consent/consent.html","","","","","","","","","","","","","","","","","","","","","","","","","","","","","","","",""
"html-button-response","3","53570","0.0-3.0-0.0-0.0","2","0","4jmezqs5npk3znh","","5246.200000047684","","<p>Welcome to the study. You will first complete a short volume calibration and headphone check.</p><p>Please make sure you are in a quiet listening environment, that you are wearing headphones, and that your computer's volume is turned on.<p></p>","0","","","","","","","","","","","","","","","","","","","","","","","","","","","","","",""
"html-button-response","4","55206","0.0-3.0-0.0-1.0","2","0","4jmezqs5npk3znh","","1381.2999999523163","","<p>The volume calibration will be first.</p><p>You will hear a thirty-second noise. Please adjust your computer's volume so that this noise is being presented at a comfortable level.<p></p>","0","","","","","","","","","","","","","","","","","","","","","","","","","","","","","",""
"audio-button-response","5","56813","0.0-3.0-0.0-2.0","2","0","4jmezqs5npk3znh","","1171","","audCalib/volumetest.mp3","0","","","","","","","","","","","","","","","","","","","","","","","","","","","","","",""
"html-button-response","6","58149","0.0-3.0-1.0-0.0","2","0","4jmezqs5npk3znh","","1333.1999999284744","","<p>You will now complete a short headphone check.</p><p>On each trial, you will hear three tones. One of these tones will be quieter than the others. Your task is to identify whether the quiet tone occured first, second, or third.</p><p>There are six trials in total.<p></p>","0","","","","","","","","","","","","","","","","","","","","","","","","","","","","","",""
"html-keyboard-response","7","58910","0.0-3.0-1.0-1.0-0.0","2","0","4jmezqs5npk3znh","","null","","<div style=""font-size:60px;"">+</div>","","null","","","","","","","","","","","","","","","","","","","","","","","","","","","","",""
"audio-button-response","8","63297","0.0-3.0-1.0-1.0-1.0","2","0","4jmezqs5npk3znh","","4392","","audCalib/t1_1.mp3","2","","0","0","headphone-test","","","","","","","","","","","","","","","","","","","","","","","","","",""
"html-keyboard-response","9","64061","0.0-3.0-1.0-1.0-0.1","2","0","4jmezqs5npk3znh","","null","","<div style=""font-size:60px;"">+</div>","","null","","","","","","","","","","","","","","","","","","","","","","","","","","","","",""
"audio-button-response","10","68451","0.0-3.0-1.0-1.0-1.1","2","0","4jmezqs5npk3znh","","4389","","audCalib/t1_2.mp3","1","","0","0","headphone-test","","","","","","","","","","","","","","","","","","","","","","","","","",""
"html-keyboard-response","11","69216","0.0-3.0-1.0-1.0-0.2","2","0","4jmezqs5npk3znh","","null","","<div style=""font-size:60px;"">+</div>","","null","","","","","","","","","","","","","","","","","","","","","","","","","","","","",""
"audio-button-response","12","73605","0.0-3.0-1.0-1.0-1.2","2","0","4jmezqs5npk3znh","","4389","","audCalib/t2_1.mp3","1","","1","1","headphone-test","","","","","","","","","","","","","","","","","","","","","","","","","",""
"html-keyboard-response","13","74361","0.0-3.0-1.0-1.0-0.3","2","0","4jmezqs5npk3znh","","null","","<div style=""font-size:60px;"">+</div>","","null","","","","","","","","","","","","","","","","","","","","","","","","","","","","",""
"audio-button-response","14","78686","0.0-3.0-1.0-1.0-1.3","2","0","4jmezqs5npk3znh","","4320","","audCalib/t3_2.mp3","2","","2","1","headphone-test","","","","","","","","","","","","","","","","","","","","","","","","","",""
"html-keyboard-response","15","79447","0.0-3.0-1.0-1.0-0.4","2","0","4jmezqs5npk3znh","","null","","<div style=""font-size:60px;"">+</div>","","null","","","","","","","","","","","","","","","","","","","","","","","","","","","","",""
"audio-button-response","16","83712","0.0-3.0-1.0-1.0-1.4","2","0","4jmezqs5npk3znh","","4259","","audCalib/t2_2.mp3","1","","1","1","headphone-test","","","","","","","","","","","","","","","","","","","","","","","","","",""
"html-keyboard-response","17","84477","0.0-3.0-1.0-1.0-0.5","2","0","4jmezqs5npk3znh","","null","","<div style=""font-size:60px;"">+</div>","","null","","","","","","","","","","","","","","","","","","","","","","","","","","","","",""
"audio-button-response","18","88838","0.0-3.0-1.0-1.0-1.5","2","0","4jmezqs5npk3znh","","4349","","audCalib/t3_1.mp3","2","","2","1","headphone-test","","","","","","","","","","","","","","","","","","","","","","","","","",""
"html-button-response","19","89927","0.0-3.0-2.0","2","0","4jmezqs5npk3znh","","834.7999999523163","","<p>The volume calibration and headphone check are now complete.</p>","0","","","","","","","","","","","","","","","","","","","","","","","","","","","","","",""
"instructions","20","103513","0.0-4.0-0.0","2","0","4jmezqs5npk3znh","[{""page_index"":0,""viewing_time"":866.3999999761581},{""page_index"":1,""viewing_time"":9244.5},{""page_index"":2,""viewing_time"":3473.7999999523163}]","13585.199999928474","","","","","","","","","","","","","","","","","","","","","","","","","","","","","","","","",""
"audio-keyboard-response","21","103813","0.0-4.0-1.0-0.0","2","0","4jmezqs5npk3znh","","null","","sounds/induction/right_rev/pu_SWS.wav","","null","","","","","","","","","","","","","","","","","","","","","","","","","","","","",""
"html-button-response","22","107391","0.0-4.0-1.0-1.0","2","0","4jmezqs5npk3znh","","3574.1999999284744","","Was the sound coming from the left or the right?","1","","","1","INDUCTION-JUDGMENT","right","1","","","","","","","","","","","","","","","","","","","","","","","",""
"html-keyboard-response","23","108398","0.0-4.0-1.0-2.0","2","0","4jmezqs5npk3znh","","null","","<p style=""color:#054d00;""><b>Correct!</b></p>","","null","","","","","","","","","","","","","","","","","","","","","","","","","","","","",""
"audio-keyboard-response","24","109204","0.0-4.0-1.0-0.1","2","0","4jmezqs5npk3znh","","null","","sounds/induction/right_rev/re_SWS.wav","","null","","","","","","","","","","","","","","","","","","","","","","","","","","","","",""
"html-button-response","25","110377","0.0-4.0-1.0-1.1","2","0","4jmezqs5npk3znh","","1171.1000000238419","","Was the sound coming from the left or the right?","1","","","1","INDUCTION-JUDGMENT","right","1","","","","","","","","","","","","","","","","","","","","","","","",""
"html-keyboard-response","26","111381","0.0-4.0-1.0-2.1","2","0","4jmezqs5npk3znh","","null","","<p style=""color:#054d00;""><b>Correct!</b></p>","","null","","","","","","","","","","","","","","","","","","","","","","","","","","","","",""
"audio-keyboard-response","27","112195","0.0-4.0-1.0-0.2","2","0","4jmezqs5npk3znh","","null","","sounds/induction/left_rev/fe_SWS.wav","","null","","","","","","","","","","","","","","","","","","","","","","","","","","","","",""
"html-button-response","28","113247","0.0-4.0-1.0-1.2","2","0","4jmezqs5npk3znh","","1051.7999999523163","","Was the sound coming from the left or the right?","0","","","1","INDUCTION-JUDGMENT","left","0","","","","","","","","","","","","","","","","","","","","","","","",""
"html-keyboard-response","29","114252","0.0-4.0-1.0-2.2","2","0","4jmezqs5npk3znh","","null","","<p style=""color:#054d00;""><b>Correct!</b></p>","","null","","","","","","","","","","","","","","","","","","","","","","","","","","","","",""
"audio-keyboard-response","30","115043","0.0-4.0-1.0-0.3","2","0","4jmezqs5npk3znh","","null","","sounds/induction/right_rev/ge_SWS.wav","","null","","","","","","","","","","","","","","","","","","","","","","","","","","","","",""
"html-button-response","31","117098","0.0-4.0-1.0-1.3","2","0","4jmezqs5npk3znh","","2052.600000023842","","Was the sound coming from the left or the right?","1","","","1","INDUCTION-JUDGMENT","right","1","","","","","","","","","","","","","","","","","","","","","","","",""
"html-keyboard-response","32","118110","0.0-4.0-1.0-2.3","2","0","4jmezqs5npk3znh","","null","","<p style=""color:#054d00;""><b>Correct!</b></p>","","null","","","","","","","","","","","","","","","","","","","","","","","","","","","","",""
"audio-keyboard-response","33","118922","0.0-4.0-1.0-0.4","2","0","4jmezqs5npk3znh","","null","","sounds/induction/right_rev/ti_SWS.wav","","null","","","","","","","","","","","","","","","","","","","","","","","","","","","","",""
"html-button-response","34","119854","0.0-4.0-1.0-1.4","2","0","4jmezqs5npk3znh","","927.5","","Was the sound coming from the left or the right?","1","","","1","INDUCTION-JUDGMENT","right","1","","","","","","","","","","","","","","","","","","","","","","","",""
"html-keyboard-response","35","120860","0.0-4.0-1.0-2.4","2","0","4jmezqs5npk3znh","","null","","<p style=""color:#054d00;""><b>Correct!</b></p>","","null","","","","","","","","","","","","","","","","","","","","","","","","","","","","",""
"audio-keyboard-response","36","121673","0.0-4.0-1.0-0.5","2","0","4jmezqs5npk3znh","","null","","sounds/induction/right_rev/ta_SWS.wav","","null","","","","","","","","","","","","","","","","","","","","","","","","","","","","",""
"html-button-response","37","122388","0.0-4.0-1.0-1.5","2","0","4jmezqs5npk3znh","","714","","Was the sound coming from the left or the right?","1","","","1","INDUCTION-JUDGMENT","right","1","","","","","","","","","","","","","","","","","","","","","","","",""
"html-keyboard-response","38","123400","0.0-4.0-1.0-2.5","2","0","4jmezqs5npk3znh","","null","","<p style=""color:#054d00;""><b>Correct!</b></p>","","null","","","","","","","","","","","","","","","","","","","","","","","","","","","","",""
"audio-keyboard-response","39","124203","0.0-4.0-1.0-0.6","2","0","4jmezqs5npk3znh","","null","","sounds/induction/left_rev/ni_SWS.wav","","null","","","","","","","","","","","","","","","","","","","","","","","","","","","","",""
"html-button-response","40","124955","0.0-4.0-1.0-1.6","2","0","4jmezqs5npk3znh","","751.7000000476837","","Was the sound coming from the left or the right?","0","","","1","INDUCTION-JUDGMENT","left","0","","","","","","","","","","","","","","","","","","","","","","","",""
"html-keyboard-response","41","125968","0.0-4.0-1.0-2.6","2","0","4jmezqs5npk3znh","","null","","<p style=""color:#054d00;""><b>Correct!</b></p>","","null","","","","","","","","","","","","","","","","","","","","","","","","","","","","",""
"audio-keyboard-response","42","126772","0.0-4.0-1.0-0.7","2","0","4jmezqs5npk3znh","","null","","sounds/induction/left_rev/ru_SWS.wav","","null","","","","","","","","","","","","","","","","","","","","","","","","","","","","",""
"html-button-response","43","127382","0.0-4.0-1.0-1.7","2","0","4jmezqs5npk3znh","","607.7000000476837","","Was the sound coming from the left or the right?","1","","","0","INDUCTION-JUDGMENT","left","0","","","","","","","","","","","","","","","","","","","","","","","",""
"html-keyboard-response","44","128390","0.0-4.0-1.0-2.7","2","0","4jmezqs5npk3znh","","null","","<p style=""color:#690000;""><b>Incorrect!</b></p>","","null","","","","","","","","","","","","","","","","","","","","","","","","","","","","",""
"audio-keyboard-response","45","129203","0.0-4.0-1.0-0.8","2","0","4jmezqs5npk3znh","","null","","sounds/induction/right_rev/ni_SWS.wav","","null","","","","","","","","","","","","","","","","","","","","","","","","","","","","",""
"html-button-response","46","129630","0.0-4.0-1.0-1.8","2","0","4jmezqs5npk3znh","","425.7000000476837","","Was the sound coming from the left or the right?","1","","","1","INDUCTION-JUDGMENT","right","1","","","","","","","","","","","","","","","","","","","","","","","",""
"html-keyboard-response","47","130637","0.0-4.0-1.0-2.8","2","0","4jmezqs5npk3znh","","null","","<p style=""color:#054d00;""><b>Correct!</b></p>","","null","","","","","","","","","","","","","","","","","","","","","","","","","","","","",""
"audio-keyboard-response","48","131442","0.0-4.0-1.0-0.9","2","0","4jmezqs5npk3znh","","null","","sounds/induction/right_rev/me_SWS.wav","","null","","","","","","","","","","","","","","","","","","","","","","","","","","","","",""
"html-button-response","49","131945","0.0-4.0-1.0-1.9","2","0","4jmezqs5npk3znh","","501.2000000476837","","Was the sound coming from the left or the right?","1","","","1","INDUCTION-JUDGMENT","right","1","","","","","","","","","","","","","","","","","","","","","","","",""
"html-keyboard-response","50","132950","0.0-4.0-1.0-2.9","2","0","4jmezqs5npk3znh","","null","","<p style=""color:#054d00;""><b>Correct!</b></p>","","null","","","","","","","","","","","","","","","","","","","","","","","","","","","","",""
"audio-keyboard-response","51","133763","0.0-4.0-1.0-0.10","2","0","4jmezqs5npk3znh","","null","","sounds/induction/left_rev/fu_SWS.wav","","null","","","","","","","","","","","","","","","","","","","","","","","","","","","","",""
"html-button-response","52","134317","0.0-4.0-1.0-1.10","2","0","4jmezqs5npk3znh","","552.8999999761581","","Was the sound coming from the left or the right?","0","","","1","INDUCTION-JUDGMENT","left","0","","","","","","","","","","","","","","","","","","","","","","","",""
"html-keyboard-response","53","135330","0.0-4.0-1.0-2.10","2","0","4jmezqs5npk3znh","","null","","<p style=""color:#054d00;""><b>Correct!</b></p>","","null","","","","","","","","","","","","","","","","","","","","","","","","","","","","",""
"audio-keyboard-response","54","136132","0.0-4.0-1.0-0.11","2","0","4jmezqs5npk3znh","","null","","sounds/induction/right_rev/fu_SWS.wav","","null","","","","","","","","","","","","","","","","","","","","","","","","","","","","",""
"html-button-response","55","136657","0.0-4.0-1.0-1.11","2","0","4jmezqs5npk3znh","","523.1000000238419","","Was the sound coming from the left or the right?","1","","","1","INDUCTION-JUDGMENT","right","1","","","","","","","","","","","","","","","","","","","","","","","",""
"html-keyboard-response","56","137660","0.0-4.0-1.0-2.11","2","0","4jmezqs5npk3znh","","null","","<p style=""color:#054d00;""><b>Correct!</b></p>","","null","","","","","","","","","","","","","","","","","","","","","","","","","","","","",""
"audio-keyboard-response","57","138472","0.0-4.0-1.0-0.12","2","0","4jmezqs5npk3znh","","null","","sounds/induction/left_rev/su_SWS.wav","","null","","","","","","","","","","","","","","","","","","","","","","","","","","","","",""
"html-button-response","58","139075","0.0-4.0-1.0-1.12","2","0","4jmezqs5npk3znh","","602.6000000238419","","Was the sound coming from the left or the right?","0","","","1","INDUCTION-JUDGMENT","left","0","","","","","","","","","","","","","","","","","","","","","","","",""
"html-keyboard-response","59","140080","0.0-4.0-1.0-2.12","2","0","4jmezqs5npk3znh","","null","","<p style=""color:#054d00;""><b>Correct!</b></p>","","null","","","","","","","","","","","","","","","","","","","","","","","","","","","","",""
"audio-keyboard-response","60","140884","0.0-4.0-1.0-0.13","2","0","4jmezqs5npk3znh","","null","","sounds/induction/right_rev/ko_SWS.wav","","null","","","","","","","","","","","","","","","","","","","","","","","","","","","","",""
"html-button-response","61","141359","0.0-4.0-1.0-1.13","2","0","4jmezqs5npk3znh","","473.7999999523163","","Was the sound coming from the left or the right?","1","","","1","INDUCTION-JUDGMENT","right","1","","","","","","","","","","","","","","","","","","","","","","","",""
"html-keyboard-response","62","142368","0.0-4.0-1.0-2.13","2","0","4jmezqs5npk3znh","","null","","<p style=""color:#054d00;""><b>Correct!</b></p>","","null","","","","","","","","","","","","","","","","","","","","","","","","","","","","",""
"audio-keyboard-response","63","143163","0.0-4.0-1.0-0.14","2","0","4jmezqs5npk3znh","","null","","sounds/induction/left_rev/pu_SWS.wav","","null","","","","","","","","","","","","","","","","","","","","","","","","","","","","",""
"html-button-response","64","143684","0.0-4.0-1.0-1.14","2","0","4jmezqs5npk3znh","","519.5999999046326","","Was the sound coming from the left or the right?","0","","","1","INDUCTION-JUDGMENT","left","0","","","","","","","","","","","","","","","","","","","","","","","",""
"html-keyboard-response","65","144699","0.0-4.0-1.0-2.14","2","0","4jmezqs5npk3znh","","null","","<p style=""color:#054d00;""><b>Correct!</b></p>","","null","","","","","","","","","","","","","","","","","","","","","","","","","","","","",""
"audio-keyboard-response","66","145513","0.0-4.0-1.0-0.15","2","0","4jmezqs5npk3znh","","null","","sounds/induction/left_rev/me_SWS.wav","","null","","","","","","","","","","","","","","","","","","","","","","","","","","","","",""
"html-button-response","67","146017","0.0-4.0-1.0-1.15","2","0","4jmezqs5npk3znh","","502.7999999523163","","Was the sound coming from the left or the right?","0","","","1","INDUCTION-JUDGMENT","left","0","","","","","","","","","","","","","","","","","","","","","","","",""
"html-keyboard-response","68","147021","0.0-4.0-1.0-2.15","2","0","4jmezqs5npk3znh","","null","","<p style=""color:#054d00;""><b>Correct!</b></p>","","null","","","","","","","","","","","","","","","","","","","","","","","","","","","","",""
"audio-keyboard-response","69","147832","0.0-4.0-1.0-0.16","2","0","4jmezqs5npk3znh","","null","","sounds/induction/left_rev/pu_SWS.wav","","null","","","","","","","","","","","","","","","","","","","","","","","","","","","","",""
"html-button-response","70","148259","0.0-4.0-1.0-1.16","2","0","4jmezqs5npk3znh","","421.7000000476837","","Was the sound coming from the left or the right?","0","","","1","INDUCTION-JUDGMENT","left","0","","","","","","","","","","","","","","","","","","","","","","","",""
"html-keyboard-response","71","149270","0.0-4.0-1.0-2.16","2","0","4jmezqs5npk3znh","","null","","<p style=""color:#054d00;""><b>Correct!</b></p>","","null","","","","","","","","","","","","","","","","","","","","","","","","","","","","",""
"audio-keyboard-response","72","150083","0.0-4.0-1.0-0.17","2","0","4jmezqs5npk3znh","","null","","sounds/induction/left_rev/ni_SWS.wav","","null","","","","","","","","","","","","","","","","","","","","","","","","","","","","",""
"html-button-response","73","150563","0.0-4.0-1.0-1.17","2","0","4jmezqs5npk3znh","","478.60000002384186","","Was the sound coming from the left or the right?","0","","","1","INDUCTION-JUDGMENT","left","0","","","","","","","","","","","","","","","","","","","","","","","",""
"html-keyboard-response","74","151570","0.0-4.0-1.0-2.17","2","0","4jmezqs5npk3znh","","null","","<p style=""color:#054d00;""><b>Correct!</b></p>","","null","","","","","","","","","","","","","","","","","","","","","","","","","","","","",""
"audio-keyboard-response","75","152373","0.0-4.0-1.0-0.18","2","0","4jmezqs5npk3znh","","null","","sounds/induction/right_rev/re_SWS.wav","","null","","","","","","","","","","","","","","","","","","","","","","","","","","","","",""
"html-button-response","76","152959","0.0-4.0-1.0-1.18","2","0","4jmezqs5npk3znh","","584.5999999046326","","Was the sound coming from the left or the right?","1","","","1","INDUCTION-JUDGMENT","right","1","","","","","","","","","","","","","","","","","","","","","","","",""
"html-keyboard-response","77","153973","0.0-4.0-1.0-2.18","2","0","4jmezqs5npk3znh","","null","","<p style=""color:#054d00;""><b>Correct!</b></p>","","null","","","","","","","","","","","","","","","","","","","","","","","","","","","","",""
"audio-keyboard-response","78","154771","0.0-4.0-1.0-0.19","2","0","4jmezqs5npk3znh","","null","","sounds/induction/right_rev/ni_SWS.wav","","null","","","","","","","","","","","","","","","","","","","","","","","","","","","","",""
"html-button-response","79","155257","0.0-4.0-1.0-1.19","2","0","4jmezqs5npk3znh","","484.60000002384186","","Was the sound coming from the left or the right?","1","","","1","INDUCTION-JUDGMENT","right","1","","","","","","","","","","","","","","","","","","","","","","","",""
"html-keyboard-response","80","156260","0.0-4.0-1.0-2.19","2","0","4jmezqs5npk3znh","","null","","<p style=""color:#054d00;""><b>Correct!</b></p>","","null","","","","","","","","","","","","","","","","","","","","","","","","","","","","",""
"audio-keyboard-response","81","157072","0.0-4.0-1.0-0.20","2","0","4jmezqs5npk3znh","","null","","sounds/induction/left_rev/fe_SWS.wav","","null","","","","","","","","","","","","","","","","","","","","","","","","","","","","",""
"html-button-response","82","157561","0.0-4.0-1.0-1.20","2","0","4jmezqs5npk3znh","","487","","Was the sound coming from the left or the right?","0","","","1","INDUCTION-JUDGMENT","left","0","","","","","","","","","","","","","","","","","","","","","","","",""
"html-keyboard-response","83","158570","0.0-4.0-1.0-2.20","2","0","4jmezqs5npk3znh","","null","","<p style=""color:#054d00;""><b>Correct!</b></p>","","null","","","","","","","","","","","","","","","","","","","","","","","","","","","","",""
"audio-keyboard-response","84","159372","0.0-4.0-1.0-0.21","2","0","4jmezqs5npk3znh","","null","","sounds/induction/right_rev/su_SWS.wav","","null","","","","","","","","","","","","","","","","","","","","","","","","","","","","",""
"html-button-response","85","159919","0.0-4.0-1.0-1.21","2","0","4jmezqs5npk3znh","","546.3999999761581","","Was the sound coming from the left or the right?","1","","","1","INDUCTION-JUDGMENT","right","1","","","","","","","","","","","","","","","","","","","","","","","",""
"html-keyboard-response","86","160928","0.0-4.0-1.0-2.21","2","0","4jmezqs5npk3znh","","null","","<p style=""color:#054d00;""><b>Correct!</b></p>","","null","","","","","","","","","","","","","","","","","","","","","","","","","","","","",""
"audio-keyboard-response","87","161723","0.0-4.0-1.0-0.22","2","0","4jmezqs5npk3znh","","null","","sounds/induction/left_rev/ti_SWS.wav","","null","","","","","","","","","","","","","","","","","","","","","","","","","","","","",""
"html-button-response","88","162218","0.0-4.0-1.0-1.22","2","0","4jmezqs5npk3znh","","493.89999997615814","","Was the sound coming from the left or the right?","0","","","1","INDUCTION-JUDGMENT","left","0","","","","","","","","","","","","","","","","","","","","","","","",""
"html-keyboard-response","89","163220","0.0-4.0-1.0-2.22","2","0","4jmezqs5npk3znh","","null","","<p style=""color:#054d00;""><b>Correct!</b></p>","","null","","","","","","","","","","","","","","","","","","","","","","","","","","","","",""
"audio-keyboard-response","90","164034","0.0-4.0-1.0-0.23","2","0","4jmezqs5npk3znh","","null","","sounds/induction/right_rev/ti_SWS.wav","","null","","","","","","","","","","","","","","","","","","","","","","","","","","","","",""
"html-button-response","91","164466","0.0-4.0-1.0-1.23","2","0","4jmezqs5npk3znh","","430.7000000476837","","Was the sound coming from the left or the right?","1","","","1","INDUCTION-JUDGMENT","right","1","","","","","","","","","","","","","","","","","","","","","","","",""
"html-keyboard-response","92","165473","0.0-4.0-1.0-2.23","2","0","4jmezqs5npk3znh","","null","","<p style=""color:#054d00;""><b>Correct!</b></p>","","null","","","","","","","","","","","","","","","","","","","","","","","","","","","","",""
"audio-keyboard-response","93","166283","0.0-4.0-1.0-0.24","2","0","4jmezqs5npk3znh","","null","","sounds/induction/right_rev/me_SWS.wav","","null","","","","","","","","","","","","","","","","","","","","","","","","","","","","",""
"html-button-response","94","167014","0.0-4.0-1.0-1.24","2","0","4jmezqs5npk3znh","","730.3000000715256","","Was the sound coming from the left or the right?","1","","","1","INDUCTION-JUDGMENT","right","1","","","","","","","","","","","","","","","","","","","","","","","",""
"html-keyboard-response","95","168018","0.0-4.0-1.0-2.24","2","0","4jmezqs5npk3znh","","null","","<p style=""color:#054d00;""><b>Correct!</b></p>","","null","","","","","","","","","","","","","","","","","","","","","","","","","","","","",""
"audio-keyboard-response","96","168813","0.0-4.0-1.0-0.25","2","0","4jmezqs5npk3znh","","null","","sounds/induction/right_rev/fe_SWS.wav","","null","","","","","","","","","","","","","","","","","","","","","","","","","","","","",""
"html-button-response","97","169306","0.0-4.0-1.0-1.25","2","0","4jmezqs5npk3znh","","491.40000009536743","","Was the sound coming from the left or the right?","1","","","1","INDUCTION-JUDGMENT","right","1","","","","","","","","","","","","","","","","","","","","","","","",""
"html-keyboard-response","98","170310","0.0-4.0-1.0-2.25","2","0","4jmezqs5npk3znh","","null","","<p style=""color:#054d00;""><b>Correct!</b></p>","","null","","","","","","","","","","","","","","","","","","","","","","","","","","","","",""
"audio-keyboard-response","99","171123","0.0-4.0-1.0-0.26","2","0","4jmezqs5npk3znh","","null","","sounds/induction/right_rev/pu_SWS.wav","","null","","","","","","","","","","","","","","","","","","","","","","","","","","","","",""
"html-button-response","100","171645","0.0-4.0-1.0-1.26","2","0","4jmezqs5npk3znh","","520.8999999761581","","Was the sound coming from the left or the right?","1","","","1","INDUCTION-JUDGMENT","right","1","","","","","","","","","","","","","","","","","","","","","","","",""
"html-keyboard-response","101","172650","0.0-4.0-1.0-2.26","2","0","4jmezqs5npk3znh","","null","","<p style=""color:#054d00;""><b>Correct!</b></p>","","null","","","","","","","","","","","","","","","","","","","","","","","","","","","","",""
"audio-keyboard-response","102","173453","0.0-4.0-1.0-0.27","2","0","4jmezqs5npk3znh","","null","","sounds/induction/right_rev/ko_SWS.wav","","null","","","","","","","","","","","","","","","","","","","","","","","","","","","","",""
"html-button-response","103","174056","0.0-4.0-1.0-1.27","2","0","4jmezqs5npk3znh","","602","","Was the sound coming from the left or the right?","1","","","1","INDUCTION-JUDGMENT","right","1","","","","","","","","","","","","","","","","","","","","","","","",""
"html-keyboard-response","104","175061","0.0-4.0-1.0-2.27","2","0","4jmezqs5npk3znh","","null","","<p style=""color:#054d00;""><b>Correct!</b></p>","","null","","","","","","","","","","","","","","","","","","","","","","","","","","","","",""
"audio-keyboard-response","105","175875","0.0-4.0-1.0-0.28","2","0","4jmezqs5npk3znh","","null","","sounds/induction/right_rev/su_SWS.wav","","null","","","","","","","","","","","","","","","","","","","","","","","","","","","","",""
"html-button-response","106","176714","0.0-4.0-1.0-1.28","2","0","4jmezqs5npk3znh","","836.9000000953674","","Was the sound coming from the left or the right?","1","","","1","INDUCTION-JUDGMENT","right","1","","","","","","","","","","","","","","","","","","","","","","","",""
"html-keyboard-response","107","177720","0.0-4.0-1.0-2.28","2","0","4jmezqs5npk3znh","","null","","<p style=""color:#054d00;""><b>Correct!</b></p>","","null","","","","","","","","","","","","","","","","","","","","","","","","","","","","",""
"audio-keyboard-response","108","178523","0.0-4.0-1.0-0.29","2","0","4jmezqs5npk3znh","","null","","sounds/induction/left_rev/ru_SWS.wav","","null","","","","","","","","","","","","","","","","","","","","","","","","","","","","",""
"html-button-response","109","179116","0.0-4.0-1.0-1.29","2","0","4jmezqs5npk3znh","","591.1999999284744","","Was the sound coming from the left or the right?","0","","","1","INDUCTION-JUDGMENT","left","0","","","","","","","","","","","","","","","","","","","","","","","",""
"html-keyboard-response","110","180130","0.0-4.0-1.0-2.29","2","0","4jmezqs5npk3znh","","null","","<p style=""color:#054d00;""><b>Correct!</b></p>","","null","","","","","","","","","","","","","","","","","","","","","","","","","","","","",""
"audio-keyboard-response","111","180923","0.0-4.0-1.0-0.30","2","0","4jmezqs5npk3znh","","null","","sounds/induction/right_rev/ru_SWS.wav","","null","","","","","","","","","","","","","","","","","","","","","","","","","","","","",""
"html-button-response","112","181572","0.0-4.0-1.0-1.30","2","0","4jmezqs5npk3znh","","647.6000000238419","","Was the sound coming from the left or the right?","1","","","1","INDUCTION-JUDGMENT","right","1","","","","","","","","","","","","","","","","","","","","","","","",""
"html-keyboard-response","113","182580","0.0-4.0-1.0-2.30","2","0","4jmezqs5npk3znh","","null","","<p style=""color:#054d00;""><b>Correct!</b></p>","","null","","","","","","","","","","","","","","","","","","","","","","","","","","","","",""
"audio-keyboard-response","114","183393","0.0-4.0-1.0-0.31","2","0","4jmezqs5npk3znh","","null","","sounds/induction/left_rev/su_SWS.wav","","null","","","","","","","","","","","","","","","","","","","","","","","","","","","","",""
"html-button-response","115","183955","0.0-4.0-1.0-1.31","2","0","4jmezqs5npk3znh","","560.3999999761581","","Was the sound coming from the left or the right?","0","","","1","INDUCTION-JUDGMENT","left","0","","","","","","","","","","","","","","","","","","","","","","","",""
"html-keyboard-response","116","184960","0.0-4.0-1.0-2.31","2","0","4jmezqs5npk3znh","","null","","<p style=""color:#054d00;""><b>Correct!</b></p>","","null","","","","","","","","","","","","","","","","","","","","","","","","","","","","",""
"audio-keyboard-response","117","185762","0.0-4.0-1.0-0.32","2","0","4jmezqs5npk3znh","","null","","sounds/induction/left_rev/re_SWS.wav","","null","","","","","","","","","","","","","","","","","","","","","","","","","","","","",""
"html-button-response","118","186252","0.0-4.0-1.0-1.32","2","0","4jmezqs5npk3znh","","488.60000002384186","","Was the sound coming from the left or the right?","0","","","1","INDUCTION-JUDGMENT","left","0","","","","","","","","","","","","","","","","","","","","","","","",""
"html-keyboard-response","119","187261","0.0-4.0-1.0-2.32","2","0","4jmezqs5npk3znh","","null","","<p style=""color:#054d00;""><b>Correct!</b></p>","","null","","","","","","","","","","","","","","","","","","","","","","","","","","","","",""
"audio-keyboard-response","120","188073","0.0-4.0-1.0-0.33","2","0","4jmezqs5npk3znh","","null","","sounds/induction/left_rev/ta_SWS.wav","","null","","","","","","","","","","","","","","","","","","","","","","","","","","","","",""
"html-button-response","121","188586","0.0-4.0-1.0-1.33","2","0","4jmezqs5npk3znh","","511.39999997615814","","Was the sound coming from the left or the right?","0","","","1","INDUCTION-JUDGMENT","left","0","","","","","","","","","","","","","","","","","","","","","","","",""
"html-keyboard-response","122","189595","0.0-4.0-1.0-2.33","2","0","4jmezqs5npk3znh","","null","","<p style=""color:#054d00;""><b>Correct!</b></p>","","null","","","","","","","","","","","","","","","","","","","","","","","","","","","","",""
"audio-keyboard-response","123","190403","0.0-4.0-1.0-0.34","2","0","4jmezqs5npk3znh","","null","","sounds/induction/left_rev/ge_SWS.wav","","null","","","","","","","","","","","","","","","","","","","","","","","","","","","","",""
"html-button-response","124","190975","0.0-4.0-1.0-1.34","2","0","4jmezqs5npk3znh","","570.5","","Was the sound coming from the left or the right?","0","","","1","INDUCTION-JUDGMENT","left","0","","","","","","","","","","","","","","","","","","","","","","","",""
"html-keyboard-response","125","191989","0.0-4.0-1.0-2.34","2","0","4jmezqs5npk3znh","","null","","<p style=""color:#054d00;""><b>Correct!</b></p>","","null","","","","","","","","","","","","","","","","","","","","","","","","","","","","",""
"audio-keyboard-response","126","192793","0.0-4.0-1.0-0.35","2","0","4jmezqs5npk3znh","","null","","sounds/induction/left_rev/ge_SWS.wav","","null","","","","","","","","","","","","","","","","","","","","","","","","","","","","",""
"html-button-response","127","193267","0.0-4.0-1.0-1.35","2","0","4jmezqs5npk3znh","","472.7000000476837","","Was the sound coming from the left or the right?","0","","","1","INDUCTION-JUDGMENT","left","0","","","","","","","","","","","","","","","","","","","","","","","",""
"html-keyboard-response","128","194274","0.0-4.0-1.0-2.35","2","0","4jmezqs5npk3znh","","null","","<p style=""color:#054d00;""><b>Correct!</b></p>","","null","","","","","","","","","","","","","","","","","","","","","","","","","","","","",""
"audio-keyboard-response","129","195083","0.0-4.0-1.0-0.36","2","0","4jmezqs5npk3znh","","null","","sounds/induction/left_rev/me_SWS.wav","","null","","","","","","","","","","","","","","","","","","","","","","","","","","","","",""
"html-button-response","130","195515","0.0-4.0-1.0-1.36","2","0","4jmezqs5npk3znh","","430.39999997615814","","Was the sound coming from the left or the right?","0","","","1","INDUCTION-JUDGMENT","left","0","","","","","","","","","","","","","","","","","","","","","","","",""
"html-keyboard-response","131","196521","0.0-4.0-1.0-2.36","2","0","4jmezqs5npk3znh","","null","","<p style=""color:#054d00;""><b>Correct!</b></p>","","null","","","","","","","","","","","","","","","","","","","","","","","","","","","","",""
"audio-keyboard-response","132","197323","0.0-4.0-1.0-0.37","2","0","4jmezqs5npk3znh","","null","","sounds/induction/right_rev/ge_SWS.wav","","null","","","","","","","","","","","","","","","","","","","","","","","","","","","","",""
"html-button-response","133","197775","0.0-4.0-1.0-1.37","2","0","4jmezqs5npk3znh","","450.3000000715256","","Was the sound coming from the left or the right?","1","","","1","INDUCTION-JUDGMENT","right","1","","","","","","","","","","","","","","","","","","","","","","","",""
"html-keyboard-response","134","198777","0.0-4.0-1.0-2.37","2","0","4jmezqs5npk3znh","","null","","<p style=""color:#054d00;""><b>Correct!</b></p>","","null","","","","","","","","","","","","","","","","","","","","","","","","","","","","",""
"audio-keyboard-response","135","199593","0.0-4.0-1.0-0.38","2","0","4jmezqs5npk3znh","","null","","sounds/induction/right_rev/ta_SWS.wav","","null","","","","","","","","","","","","","","","","","","","","","","","","","","","","",""
"html-button-response","136","199950","0.0-4.0-1.0-1.38","2","0","4jmezqs5npk3znh","","355.40000009536743","","Was the sound coming from the left or the right?","1","","","1","INDUCTION-JUDGMENT","right","1","","","","","","","","","","","","","","","","","","","","","","","",""
"html-keyboard-response","137","200958","0.0-4.0-1.0-2.38","2","0","4jmezqs5npk3znh","","null","","<p style=""color:#054d00;""><b>Correct!</b></p>","","null","","","","","","","","","","","","","","","","","","","","","","","","","","","","",""
"audio-keyboard-response","138","201763","0.0-4.0-1.0-0.39","2","0","4jmezqs5npk3znh","","null","","sounds/induction/left_rev/re_SWS.wav","","null","","","","","","","","","","","","","","","","","","","","","","","","","","","","",""
"html-button-response","139","202182","0.0-4.0-1.0-1.39","2","0","4jmezqs5npk3znh","","418.10000002384186","","Was the sound coming from the left or the right?","0","","","1","INDUCTION-JUDGMENT","left","0","","","","","","","","","","","","","","","","","","","","","","","",""
"html-keyboard-response","140","203187","0.0-4.0-1.0-2.39","2","0","4jmezqs5npk3znh","","null","","<p style=""color:#054d00;""><b>Correct!</b></p>","","null","","","","","","","","","","","","","","","","","","","","","","","","","","","","",""
"audio-keyboard-response","141","203993","0.0-4.0-1.0-0.40","2","0","4jmezqs5npk3znh","","null","","sounds/induction/left_rev/ti_SWS.wav","","null","","","","","","","","","","","","","","","","","","","","","","","","","","","","",""
"html-button-response","142","204443","0.0-4.0-1.0-1.40","2","0","4jmezqs5npk3znh","","448.5","","Was the sound coming from the left or the right?","0","","","1","INDUCTION-JUDGMENT","left","0","","","","","","","","","","","","","","","","","","","","","","","",""
"html-keyboard-response","143","205450","0.0-4.0-1.0-2.40","2","0","4jmezqs5npk3znh","","null","","<p style=""color:#054d00;""><b>Correct!</b></p>","","null","","","","","","","","","","","","","","","","","","","","","","","","","","","","",""
"audio-keyboard-response","144","206253","0.0-4.0-1.0-0.41","2","0","4jmezqs5npk3znh","","null","","sounds/induction/right_rev/fu_SWS.wav","","null","","","","","","","","","","","","","","","","","","","","","","","","","","","","",""
"html-button-response","145","206706","0.0-4.0-1.0-1.41","2","0","4jmezqs5npk3znh","","451.1999999284744","","Was the sound coming from the left or the right?","1","","","1","INDUCTION-JUDGMENT","right","1","","","","","","","","","","","","","","","","","","","","","","","",""
"html-keyboard-response","146","207721","0.0-4.0-1.0-2.41","2","0","4jmezqs5npk3znh","","null","","<p style=""color:#054d00;""><b>Correct!</b></p>","","null","","","","","","","","","","","","","","","","","","","","","","","","","","","","",""
"audio-keyboard-response","147","208523","0.0-4.0-1.0-0.42","2","0","4jmezqs5npk3znh","","null","","sounds/induction/right_rev/fe_SWS.wav","","null","","","","","","","","","","","","","","","","","","","","","","","","","","","","",""
"html-button-response","148","209002","0.0-4.0-1.0-1.42","2","0","4jmezqs5npk3znh","","476.7999999523163","","Was the sound coming from the left or the right?","1","","","1","INDUCTION-JUDGMENT","right","1","","","","","","","","","","","","","","","","","","","","","","","",""
"html-keyboard-response","149","210012","0.0-4.0-1.0-2.42","2","0","4jmezqs5npk3znh","","null","","<p style=""color:#054d00;""><b>Correct!</b></p>","","null","","","","","","","","","","","","","","","","","","","","","","","","","","","","",""
"audio-keyboard-response","150","210813","0.0-4.0-1.0-0.43","2","0","4jmezqs5npk3znh","","null","","sounds/induction/left_rev/ko_SWS.wav","","null","","","","","","","","","","","","","","","","","","","","","","","","","","","","",""
"html-button-response","151","211262","0.0-4.0-1.0-1.43","2","0","4jmezqs5npk3znh","","447.7999999523163","","Was the sound coming from the left or the right?","0","","","1","INDUCTION-JUDGMENT","left","0","","","","","","","","","","","","","","","","","","","","","","","",""
"html-keyboard-response","152","212269","0.0-4.0-1.0-2.43","2","0","4jmezqs5npk3znh","","null","","<p style=""color:#054d00;""><b>Correct!</b></p>","","null","","","","","","","","","","","","","","","","","","","","","","","","","","","","",""
"audio-keyboard-response","153","213083","0.0-4.0-1.0-0.44","2","0","4jmezqs5npk3znh","","null","","sounds/induction/right_rev/ru_SWS.wav","","null","","","","","","","","","","","","","","","","","","","","","","","","","","","","",""
"html-button-response","154","213752","0.0-4.0-1.0-1.44","2","0","4jmezqs5npk3znh","","668.1000000238419","","Was the sound coming from the left or the right?","0","","","0","INDUCTION-JUDGMENT","right","1","","","","","","","","","","","","","","","","","","","","","","","",""
"html-keyboard-response","155","214760","0.0-4.0-1.0-2.44","2","0","4jmezqs5npk3znh","","null","","<p style=""color:#690000;""><b>Incorrect!</b></p>","","null","","","","","","","","","","","","","","","","","","","","","","","","","","","","",""
"audio-keyboard-response","156","215563","0.0-4.0-1.0-0.45","2","0","4jmezqs5npk3znh","","null","","sounds/induction/left_rev/ko_SWS.wav","","null","","","","","","","","","","","","","","","","","","","","","","","","","","","","",""
"html-button-response","157","216020","0.0-4.0-1.0-1.45","2","0","4jmezqs5npk3znh","","455.39999997615814","","Was the sound coming from the left or the right?","0","","","1","INDUCTION-JUDGMENT","left","0","","","","","","","","","","","","","","","","","","","","","","","",""
"html-keyboard-response","158","217026","0.0-4.0-1.0-2.45","2","0","4jmezqs5npk3znh","","null","","<p style=""color:#054d00;""><b>Correct!</b></p>","","null","","","","","","","","","","","","","","","","","","","","","","","","","","","","",""
"audio-keyboard-response","159","217833","0.0-4.0-1.0-0.46","2","0","4jmezqs5npk3znh","","null","","sounds/induction/left_rev/fu_SWS.wav","","null","","","","","","","","","","","","","","","","","","","","","","","","","","","","",""
"html-button-response","160","218232","0.0-4.0-1.0-1.46","2","0","4jmezqs5npk3znh","","397.60000002384186","","Was the sound coming from the left or the right?","0","","","1","INDUCTION-JUDGMENT","left","0","","","","","","","","","","","","","","","","","","","","","","","",""
"html-keyboard-response","161","219247","0.0-4.0-1.0-2.46","2","0","4jmezqs5npk3znh","","null","","<p style=""color:#054d00;""><b>Correct!</b></p>","","null","","","","","","","","","","","","","","","","","","","","","","","","","","","","",""
"audio-keyboard-response","162","220043","0.0-4.0-1.0-0.47","2","0","4jmezqs5npk3znh","","null","","sounds/induction/left_rev/ta_SWS.wav","","null","","","","","","","","","","","","","","","","","","","","","","","","","","","","",""
"html-button-response","163","220491","0.0-4.0-1.0-1.47","2","0","4jmezqs5npk3znh","","447","","Was the sound coming from the left or the right?","0","","","1","INDUCTION-JUDGMENT","left","0","","","","","","","","","","","","","","","","","","","","","","","",""
"html-keyboard-response","164","221498","0.0-4.0-1.0-2.47","2","0","4jmezqs5npk3znh","","null","","<p style=""color:#054d00;""><b>Correct!</b></p>","","null","","","","","","","","","","","","","","","","","","","","","","","","","","","","",""
"html-button-response","165","249519","0.0-5.0-0.0","2","0","4jmezqs5npk3znh","","27508.600000023842","","<p>Thank you for your answers.</p><p>You will now listen to similar sounds. The main difference is that the sounds will be longer.</p><p>Just as before, you will be asked to judge whether the sound was coming from the left or the right.</p><p>There are 10 of these longer sounds in total.","0","","","","","","","","","","","","","","","","","","","","","","","","","","","","","",""
"audio-keyboard-response","166","252253","0.0-5.0-1.0-0.0","2","0","4jmezqs5npk3znh","","null","","sounds/sentences/right_rev/14_09_cfSWS.wav","","null","","","","","","","","","","","","","","","","","","","","","","","","","","","","",""
"html-button-response","167","253950","0.0-5.0-1.0-1.0","2","0","4jmezqs5npk3znh","","1694.6999999284744","","Was the sound coming from the left or the right?","1","","","1","INDUCTION-JUDGMENT","right","1","","","","","","","","","","","","","","","","","","","","","","","",""
"html-keyboard-response","168","254957","0.0-5.0-1.0-2.0","2","0","4jmezqs5npk3znh","","null","","<p style=""color:#054d00;""><b>Correct!</b></p>","","null","","","","","","","","","","","","","","","","","","","","","","","","","","","","",""
"html-button-response","169","257194","0.0-5.0-1.0-3.0","2","0","4jmezqs5npk3znh","","1733.1000000238419","","<p>Press the button below when you are ready to continue.</p>","0","","","","","","","","","","","","","","","","","","","","","","","","","","","","","",""
"audio-keyboard-response","170","260323","0.0-5.0-1.0-0.1","2","0","4jmezqs5npk3znh","","null","","sounds/sentences/left_rev/14_01_cfSWS.wav","","null","","","","","","","","","","","","","","","","","","","","","","","","","","","","",""
"html-button-response","171","261171","0.0-5.0-1.0-1.1","2","0","4jmezqs5npk3znh","","845.6999999284744","","Was the sound coming from the left or the right?","0","","","1","INDUCTION-JUDGMENT","left","0","","","","","","","","","","","","","","","","","","","","","","","",""
"html-keyboard-response","172","262173","0.0-5.0-1.0-2.1","2","0","4jmezqs5npk3znh","","null","","<p style=""color:#054d00;""><b>Correct!</b></p>","","null","","","","","","","","","","","","","","","","","","","","","","","","","","","","",""
"html-button-response","173","263798","0.0-5.0-1.0-3.1","2","0","4jmezqs5npk3znh","","1117.5","","<p>Press the button below when you are ready to continue.</p>","0","","","","","","","","","","","","","","","","","","","","","","","","","","","","","",""
"audio-keyboard-response","174","266612","0.0-5.0-1.0-0.2","2","0","4jmezqs5npk3znh","","null","","sounds/sentences/left_rev/14_02_cfSWS.wav","","null","","","","","","","","","","","","","","","","","","","","","","","","","","","","",""
"html-button-response","175","267359","0.0-5.0-1.0-1.2","2","0","4jmezqs5npk3znh","","745.3999999761581","","Was the sound coming from the left or the right?","0","","","1","INDUCTION-JUDGMENT","left","0","","","","","","","","","","","","","","","","","","","","","","","",""
"html-keyboard-response","176","268367","0.0-5.0-1.0-2.2","2","0","4jmezqs5npk3znh","","null","","<p style=""color:#054d00;""><b>Correct!</b></p>","","null","","","","","","","","","","","","","","","","","","","","","","","","","","","","",""
"html-button-response","177","270008","0.0-5.0-1.0-3.2","2","0","4jmezqs5npk3znh","","1130.6000000238419","","<p>Press the button below when you are ready to continue.</p>","0","","","","","","","","","","","","","","","","","","","","","","","","","","","","","",""
"audio-keyboard-response","178","272902","0.0-5.0-1.0-0.3","2","0","4jmezqs5npk3znh","","null","","sounds/sentences/right_rev/14_07_cfSWS.wav","","null","","","","","","","","","","","","","","","","","","","","","","","","","","","","",""
"html-button-response","179","273856","0.0-5.0-1.0-1.3","2","0","4jmezqs5npk3znh","","951.8000000715256","","Was the sound coming from the left or the right?","1","","","1","INDUCTION-JUDGMENT","right","1","","","","","","","","","","","","","","","","","","","","","","","",""
"html-keyboard-response","180","274870","0.0-5.0-1.0-2.3","2","0","4jmezqs5npk3znh","","null","","<p style=""color:#054d00;""><b>Correct!</b></p>","","null","","","","","","","","","","","","","","","","","","","","","","","","","","","","",""
"html-button-response","181","276488","0.0-5.0-1.0-3.3","2","0","4jmezqs5npk3znh","","1112.0999999046326","","<p>Press the button below when you are ready to continue.</p>","0","","","","","","","","","","","","","","","","","","","","","","","","","","","","","",""
"audio-keyboard-response","182","279082","0.0-5.0-1.0-0.4","2","0","4jmezqs5npk3znh","","null","","sounds/sentences/left_rev/14_03_cfSWS.wav","","null","","","","","","","","","","","","","","","","","","","","","","","","","","","","",""
"html-button-response","183","279842","0.0-5.0-1.0-1.4","2","0","4jmezqs5npk3znh","","758.2999999523163","","Was the sound coming from the left or the right?","0","","","1","INDUCTION-JUDGMENT","left","0","","","","","","","","","","","","","","","","","","","","","","","",""
"html-keyboard-response","184","280848","0.0-5.0-1.0-2.4","2","0","4jmezqs5npk3znh","","null","","<p style=""color:#054d00;""><b>Correct!</b></p>","","null","","","","","","","","","","","","","","","","","","","","","","","","","","","","",""
"html-button-response","185","282361","0.0-5.0-1.0-3.4","2","0","4jmezqs5npk3znh","","1009.8000000715256","","<p>Press the button below when you are ready to continue.</p>","0","","","","","","","","","","","","","","","","","","","","","","","","","","","","","",""
"audio-keyboard-response","186","285382","0.0-5.0-1.0-0.5","2","0","4jmezqs5npk3znh","","null","","sounds/sentences/right_rev/14_10_cfSWS.wav","","null","","","","","","","","","","","","","","","","","","","","","","","","","","","","",""
"html-button-response","187","285904","0.0-5.0-1.0-1.5","2","0","4jmezqs5npk3znh","","520.3999999761581","","Was the sound coming from the left or the right?","1","","","1","INDUCTION-JUDGMENT","right","1","","","","","","","","","","","","","","","","","","","","","","","",""
"html-keyboard-response","188","286918","0.0-5.0-1.0-2.5","2","0","4jmezqs5npk3znh","","null","","<p style=""color:#054d00;""><b>Correct!</b></p>","","null","","","","","","","","","","","","","","","","","","","","","","","","","","","","",""
"html-button-response","189","288234","0.0-5.0-1.0-3.5","2","0","4jmezqs5npk3znh","","803.8999999761581","","<p>Press the button below when you are ready to continue.</p>","0","","","","","","","","","","","","","","","","","","","","","","","","","","","","","",""
"audio-keyboard-response","190","291222","0.0-5.0-1.0-0.6","2","0","4jmezqs5npk3znh","","null","","sounds/sentences/left_rev/14_05_cfSWS.wav","","null","","","","","","","","","","","","","","","","","","","","","","","","","","","","",""
"html-button-response","191","291752","0.0-5.0-1.0-1.6","2","0","4jmezqs5npk3znh","","527","","Was the sound coming from the left or the right?","0","","","1","INDUCTION-JUDGMENT","left","0","","","","","","","","","","","","","","","","","","","","","","","",""
"html-keyboard-response","192","292759","0.0-5.0-1.0-2.6","2","0","4jmezqs5npk3znh","","null","","<p style=""color:#054d00;""><b>Correct!</b></p>","","null","","","","","","","","","","","","","","","","","","","","","","","","","","","","",""
"html-button-response","193","294078","0.0-5.0-1.0-3.6","2","0","4jmezqs5npk3znh","","815.2999999523163","","<p>Press the button below when you are ready to continue.</p>","0","","","","","","","","","","","","","","","","","","","","","","","","","","","","","",""
"audio-keyboard-response","194","296842","0.0-5.0-1.0-0.7","2","0","4jmezqs5npk3znh","","null","","sounds/sentences/right_rev/14_08_cfSWS.wav","","null","","","","","","","","","","","","","","","","","","","","","","","","","","","","",""
"html-button-response","195","298118","0.0-5.0-1.0-1.7","2","0","4jmezqs5npk3znh","","1273.5","","Was the sound coming from the left or the right?","1","","","1","INDUCTION-JUDGMENT","right","1","","","","","","","","","","","","","","","","","","","","","","","",""
"html-keyboard-response","196","299120","0.0-5.0-1.0-2.7","2","0","4jmezqs5npk3znh","","null","","<p style=""color:#054d00;""><b>Correct!</b></p>","","null","","","","","","","","","","","","","","","","","","","","","","","","","","","","",""
"html-button-response","197","300651","0.0-5.0-1.0-3.7","2","0","4jmezqs5npk3znh","","1021","","<p>Press the button below when you are ready to continue.</p>","0","","","","","","","","","","","","","","","","","","","","","","","","","","","","","",""
"audio-keyboard-response","198","303403","0.0-5.0-1.0-0.8","2","0","4jmezqs5npk3znh","","null","","sounds/sentences/right_rev/14_06_cfSWS.wav","","null","","","","","","","","","","","","","","","","","","","","","","","","","","","","",""
"html-button-response","199","304113","0.0-5.0-1.0-1.8","2","0","4jmezqs5npk3znh","","708.1000000238419","","Was the sound coming from the left or the right?","1","","","1","INDUCTION-JUDGMENT","right","1","","","","","","","","","","","","","","","","","","","","","","","",""
"html-keyboard-response","200","305120","0.0-5.0-1.0-2.8","2","0","4jmezqs5npk3znh","","null","","<p style=""color:#054d00;""><b>Correct!</b></p>","","null","","","","","","","","","","","","","","","","","","","","","","","","","","","","",""
"html-button-response","201","306603","0.0-5.0-1.0-3.8","2","0","4jmezqs5npk3znh","","973.5","","<p>Press the button below when you are ready to continue.</p>","0","","","","","","","","","","","","","","","","","","","","","","","","","","","","","",""
"audio-keyboard-response","202","309162","0.0-5.0-1.0-0.9","2","0","4jmezqs5npk3znh","","null","","sounds/sentences/left_rev/14_04_cfSWS.wav","","null","","","","","","","","","","","","","","","","","","","","","","","","","","","","",""
"html-button-response","203","309828","0.0-5.0-1.0-1.9","2","0","4jmezqs5npk3znh","","662.7999999523163","","Was the sound coming from the left or the right?","1","","","0","INDUCTION-JUDGMENT","left","0","","","","","","","","","","","","","","","","","","","","","","","",""
"html-keyboard-response","204","310830","0.0-5.0-1.0-2.9","2","0","4jmezqs5npk3znh","","null","","<p style=""color:#690000;""><b>Incorrect!</b></p>","","null","","","","","","","","","","","","","","","","","","","","","","","","","","","","",""
"html-button-response","205","311907","0.0-5.0-1.0-3.9","2","0","4jmezqs5npk3znh","","574.4000000953674","","<p>Press the button below when you are ready to continue.</p>","0","","","","","","","","","","","","","","","","","","","","","","","","","","","","","",""
"html-keyboard-response","206","326855","0.0-6.0-0.0","2","0","4jmezqs5npk3znh","","14432.800000071526","","<p>In this part of the study, you will hear sounds similar to those you just heard.</p><p>Please focus on these sounds, as you may be asked questions about them later.</p><p>Occasionally, the sounds will pause for up to two seconds. When this happens, please press SPACEBAR as quickly as you can.</br>This helps ensure that you are paying attention to the sounds.</p><p>This part of the study will take about 12 minutes to complete, and you will be given the opportunity to take a couple of short breaks every few minutes.</p><p><strong>Press SPACEBAR to begin</strong></p>","","32","","","","","","","","","","","","","","","","","","","","","","","","","","","","",""
"html-keyboard-response","207","327866","0.0-6.0-1.0-0.0","2","0","4jmezqs5npk3znh","","null","","<p style=""font-size: 40px;"">+</p>","","null","","","","","","","","","","","","","","","","","","","","","","","","","","","","",""
"html-keyboard-response","208","512880","0.0-6.0-1.0-1.0","2","0","4jmezqs5npk3znh","","null","","","","null","","","SL-TRAIN","","","2","null","null","sounds/B/TRAIN/SEQ__12.mp3","0","","","","","","","","","","","","","","","","","","",""
"html-button-response","209","515026","0.0-6.0-1.0-2.0","2","0","4jmezqs5npk3znh","","2142.899999976158","","<p>You may take a short break if you wish.</p>","0","","","","","","","","","","","","","","","","","","","","","","","","","","","","","",""
"html-keyboard-response","210","516031","0.0-6.0-1.0-3.0","2","0","4jmezqs5npk3znh","","null","","<p style=""font-size: 40px;"">+</p>","","null","","","","","","","","","","","","","","","","","","","","","","","","","","","","",""
"html-keyboard-response","211","701045","0.0-6.0-1.0-4.0","2","0","4jmezqs5npk3znh","","null","","","","null","","","SL-TRAIN","","","1","1509.5","null","sounds/B/TRAIN/SEQ__02.mp3","2","","","","","","","","","","","","","","","","","","",""
"html-button-response","212","703361","0.0-6.0-1.0-5.0","2","0","4jmezqs5npk3znh","","2314.1999999284744","","<p>You may take a short break if you wish.</p>","0","","","","","","","","","","","","","","","","","","","","","","","","","","","","","",""
"html-keyboard-response","213","704370","0.0-6.0-1.0-6.0","2","0","4jmezqs5npk3znh","","null","","<p style=""font-size: 40px;"">+</p>","","null","","","","","","","","","","","","","","","","","","","","","","","","","","","","",""
"html-keyboard-response","214","889380","0.0-6.0-1.0-7.0","2","0","4jmezqs5npk3znh","","null","","","","null","","","SL-TRAIN","","","1","null","1015.7000000476837","sounds/B/TRAIN/SEQ__06.mp3","3","","","","","","","","","","","","","","","","","","",""
"html-button-response","215","891632","0.0-6.0-1.0-8.0","2","0","4jmezqs5npk3znh","","2249.399999976158","","<p>You may take a short break if you wish.</p>","0","","","","","","","","","","","","","","","","","","","","","","","","","","","","","",""
"html-keyboard-response","216","892644","0.0-6.0-1.0-9.0","2","0","4jmezqs5npk3znh","","null","","<p style=""font-size: 40px;"">+</p>","","null","","","","","","","","","","","","","","","","","","","","","","","","","","","","",""
"html-keyboard-response","217","1077651","0.0-6.0-1.0-10.0","2","0","4jmezqs5npk3znh","","null","","","","null","","","SL-TRAIN","","","1","null","1180.7000000476837","sounds/B/TRAIN/SEQ__08.mp3","8","","","","","","","","","","","","","","","","","","",""
"html-button-response","218","1079729","0.0-6.0-1.0-11.0","2","0","4jmezqs5npk3znh","","2076.7000000476837","","<p>You may take a short break if you wish.</p>","0","","","","","","","","","","","","","","","","","","","","","","","","","","","","","",""
"html-button-response","219","1081893","0.0-7.0-0.0","2","0","4jmezqs5npk3znh","","2161.7999999523163","","<p>Welcome to the second part of the study. This is a <u>familiarity task</u>.</p><p>You will now hear short sounds and will be asked to rate how familiar they sound to you <b>based on what you heard in the previous part of the study</b>.</p><p>You will rate 12 sounds in total.</p>","0","","","","","","","","","","","","","","","","","","","","","","","","","","","","","",""
"html-keyboard-response","220","1082901","0.0-7.0-1.0-0.0","2","0","4jmezqs5npk3znh","","null","","","","null","","","","","","","","","","","","","","","","","","","","","","","","","","","","",""
"audio-keyboard-response","221","1083903","0.0-7.0-1.0-1.0","2","0","4jmezqs5npk3znh","","null","","sounds/B/FAM/N003.mp3","","null","","","","","","","","","","","","","","","","","","","","","","","","","","","","",""
"html-keyboard-response","222","1086278","0.0-7.0-1.0-2.0","2","0","4jmezqs5npk3znh","","1872.2000000476837","","<p>How familiar did this sound to you?</p><p>1&nbsp;&nbsp;&nbsp;&nbsp;&nbsp;&nbsp;&nbsp;&nbsp;&nbsp;&nbsp;&nbsp;&nbsp;&nbsp;&nbsp;&nbsp;&nbsp;&nbsp;&nbsp;&nbsp;2&nbsp;&nbsp;&nbsp;&nbsp;&nbsp;&nbsp;&nbsp;&nbsp;&nbsp;&nbsp;&nbsp;&nbsp;&nbsp;&nbsp;&nbsp;&nbsp;&nbsp;&nbsp;&nbsp;3&nbsp;&nbsp;&nbsp;&nbsp;&nbsp;&nbsp;&nbsp;&nbsp;&nbsp;&nbsp;&nbsp;&nbsp;&nbsp;&nbsp;&nbsp;&nbsp;&nbsp;&nbsp;&nbsp;4</p><p style=""font-size:14px"">Not at all familiar&nbsp;&nbsp;&nbsp;&nbsp;A little familiar&nbsp;&nbsp;&nbsp;Moderately familiar&nbsp;&nbsp;&nbsp;Extremely familiar</p><p>(press the corresponding number on your keyboard)</p>","","52","","","FAM-RESPONSE","","","","","","","","sounds/B/FAM/N003.mp3","nonword","","","","","","","","","","","","","","","","",""
"html-keyboard-response","223","1088289","0.0-7.0-1.0-0.1","2","0","4jmezqs5npk3znh","","null","","","","null","","","","","","","","","","","","","","","","","","","","","","","","","","","","",""
"audio-keyboard-response","224","1089223","0.0-7.0-1.0-1.1","2","0","4jmezqs5npk3znh","","null","","sounds/B/FAM/N001.mp3","","null","","","","","","","","","","","","","","","","","","","","","","","","","","","","",""
"html-keyboard-response","225","1090225","0.0-7.0-1.0-2.1","2","0","4jmezqs5npk3znh","","493.8000000715256","","<p>How familiar did this sound to you?</p><p>1&nbsp;&nbsp;&nbsp;&nbsp;&nbsp;&nbsp;&nbsp;&nbsp;&nbsp;&nbsp;&nbsp;&nbsp;&nbsp;&nbsp;&nbsp;&nbsp;&nbsp;&nbsp;&nbsp;2&nbsp;&nbsp;&nbsp;&nbsp;&nbsp;&nbsp;&nbsp;&nbsp;&nbsp;&nbsp;&nbsp;&nbsp;&nbsp;&nbsp;&nbsp;&nbsp;&nbsp;&nbsp;&nbsp;3&nbsp;&nbsp;&nbsp;&nbsp;&nbsp;&nbsp;&nbsp;&nbsp;&nbsp;&nbsp;&nbsp;&nbsp;&nbsp;&nbsp;&nbsp;&nbsp;&nbsp;&nbsp;&nbsp;4</p><p style=""font-size:14px"">Not at all familiar&nbsp;&nbsp;&nbsp;&nbsp;A little familiar&nbsp;&nbsp;&nbsp;Moderately familiar&nbsp;&nbsp;&nbsp;Extremely familiar</p><p>(press the corresponding number on your keyboard)</p>","","50","","","FAM-RESPONSE","","","","","","","","sounds/B/FAM/N001.mp3","nonword","","","","","","","","","","","","","","","","",""
"html-keyboard-response","226","1092239","0.0-7.0-1.0-0.2","2","0","4jmezqs5npk3znh","","null","","","","null","","","","","","","","","","","","","","","","","","","","","","","","","","","","",""
"audio-keyboard-response","227","1093172","0.0-7.0-1.0-1.2","2","0","4jmezqs5npk3znh","","null","","sounds/B/FAM/W002.mp3","","null","","","","","","","","","","","","","","","","","","","","","","","","","","","","",""
"html-keyboard-response","228","1094132","0.0-7.0-1.0-2.2","2","0","4jmezqs5npk3znh","","451.2999999523163","","<p>How familiar did this sound to you?</p><p>1&nbsp;&nbsp;&nbsp;&nbsp;&nbsp;&nbsp;&nbsp;&nbsp;&nbsp;&nbsp;&nbsp;&nbsp;&nbsp;&nbsp;&nbsp;&nbsp;&nbsp;&nbsp;&nbsp;2&nbsp;&nbsp;&nbsp;&nbsp;&nbsp;&nbsp;&nbsp;&nbsp;&nbsp;&nbsp;&nbsp;&nbsp;&nbsp;&nbsp;&nbsp;&nbsp;&nbsp;&nbsp;&nbsp;3&nbsp;&nbsp;&nbsp;&nbsp;&nbsp;&nbsp;&nbsp;&nbsp;&nbsp;&nbsp;&nbsp;&nbsp;&nbsp;&nbsp;&nbsp;&nbsp;&nbsp;&nbsp;&nbsp;4</p><p style=""font-size:14px"">Not at all familiar&nbsp;&nbsp;&nbsp;&nbsp;A little familiar&nbsp;&nbsp;&nbsp;Moderately familiar&nbsp;&nbsp;&nbsp;Extremely familiar</p><p>(press the corresponding number on your keyboard)</p>","","51","","","FAM-RESPONSE","","","","","","","","sounds/B/FAM/W002.mp3","word","","","","","","","","","","","","","","","","",""
"html-keyboard-response","229","1096145","0.0-7.0-1.0-0.3","2","0","4jmezqs5npk3znh","","null","","","","null","","","","","","","","","","","","","","","","","","","","","","","","","","","","",""
"audio-keyboard-response","230","1097093","0.0-7.0-1.0-1.3","2","0","4jmezqs5npk3znh","","null","","sounds/B/FAM/N002.mp3","","null","","","","","","","","","","","","","","","","","","","","","","","","","","","","",""
"html-keyboard-response","231","1098205","0.0-7.0-1.0-2.3","2","0","4jmezqs5npk3znh","","603.3000000715256","","<p>How familiar did this sound to you?</p><p>1&nbsp;&nbsp;&nbsp;&nbsp;&nbsp;&nbsp;&nbsp;&nbsp;&nbsp;&nbsp;&nbsp;&nbsp;&nbsp;&nbsp;&nbsp;&nbsp;&nbsp;&nbsp;&nbsp;2&nbsp;&nbsp;&nbsp;&nbsp;&nbsp;&nbsp;&nbsp;&nbsp;&nbsp;&nbsp;&nbsp;&nbsp;&nbsp;&nbsp;&nbsp;&nbsp;&nbsp;&nbsp;&nbsp;3&nbsp;&nbsp;&nbsp;&nbsp;&nbsp;&nbsp;&nbsp;&nbsp;&nbsp;&nbsp;&nbsp;&nbsp;&nbsp;&nbsp;&nbsp;&nbsp;&nbsp;&nbsp;&nbsp;4</p><p style=""font-size:14px"">Not at all familiar&nbsp;&nbsp;&nbsp;&nbsp;A little familiar&nbsp;&nbsp;&nbsp;Moderately familiar&nbsp;&nbsp;&nbsp;Extremely familiar</p><p>(press the corresponding number on your keyboard)</p>","","49","","","FAM-RESPONSE","","","","","","","","sounds/B/FAM/N002.mp3","nonword","","","","","","","","","","","","","","","","",""
"html-keyboard-response","232","1100219","0.0-7.0-1.0-0.4","2","0","4jmezqs5npk3znh","","null","","","","null","","","","","","","","","","","","","","","","","","","","","","","","","","","","",""
"audio-keyboard-response","233","1101163","0.0-7.0-1.0-1.4","2","0","4jmezqs5npk3znh","","null","","sounds/B/FAM/P004.mp3","","null","","","","","","","","","","","","","","","","","","","","","","","","","","","","",""
"html-keyboard-response","234","1102485","0.0-7.0-1.0-2.4","2","0","4jmezqs5npk3znh","","813.7000000476837","","<p>How familiar did this sound to you?</p><p>1&nbsp;&nbsp;&nbsp;&nbsp;&nbsp;&nbsp;&nbsp;&nbsp;&nbsp;&nbsp;&nbsp;&nbsp;&nbsp;&nbsp;&nbsp;&nbsp;&nbsp;&nbsp;&nbsp;2&nbsp;&nbsp;&nbsp;&nbsp;&nbsp;&nbsp;&nbsp;&nbsp;&nbsp;&nbsp;&nbsp;&nbsp;&nbsp;&nbsp;&nbsp;&nbsp;&nbsp;&nbsp;&nbsp;3&nbsp;&nbsp;&nbsp;&nbsp;&nbsp;&nbsp;&nbsp;&nbsp;&nbsp;&nbsp;&nbsp;&nbsp;&nbsp;&nbsp;&nbsp;&nbsp;&nbsp;&nbsp;&nbsp;4</p><p style=""font-size:14px"">Not at all familiar&nbsp;&nbsp;&nbsp;&nbsp;A little familiar&nbsp;&nbsp;&nbsp;Moderately familiar&nbsp;&nbsp;&nbsp;Extremely familiar</p><p>(press the corresponding number on your keyboard)</p>","","50","","","FAM-RESPONSE","","","","","","","","sounds/B/FAM/P004.mp3","partword","","","","","","","","","","","","","","","","",""
"html-keyboard-response","235","1104510","0.0-7.0-1.0-0.5","2","0","4jmezqs5npk3znh","","null","","","","null","","","","","","","","","","","","","","","","","","","","","","","","","","","","",""
"audio-keyboard-response","236","1105453","0.0-7.0-1.0-1.5","2","0","4jmezqs5npk3znh","","null","","sounds/B/FAM/N004.mp3","","null","","","","","","","","","","","","","","","","","","","","","","","","","","","","",""
"html-keyboard-response","237","1106365","0.0-7.0-1.0-2.5","2","0","4jmezqs5npk3znh","","404.39999997615814","","<p>How familiar did this sound to you?</p><p>1&nbsp;&nbsp;&nbsp;&nbsp;&nbsp;&nbsp;&nbsp;&nbsp;&nbsp;&nbsp;&nbsp;&nbsp;&nbsp;&nbsp;&nbsp;&nbsp;&nbsp;&nbsp;&nbsp;2&nbsp;&nbsp;&nbsp;&nbsp;&nbsp;&nbsp;&nbsp;&nbsp;&nbsp;&nbsp;&nbsp;&nbsp;&nbsp;&nbsp;&nbsp;&nbsp;&nbsp;&nbsp;&nbsp;3&nbsp;&nbsp;&nbsp;&nbsp;&nbsp;&nbsp;&nbsp;&nbsp;&nbsp;&nbsp;&nbsp;&nbsp;&nbsp;&nbsp;&nbsp;&nbsp;&nbsp;&nbsp;&nbsp;4</p><p style=""font-size:14px"">Not at all familiar&nbsp;&nbsp;&nbsp;&nbsp;A little familiar&nbsp;&nbsp;&nbsp;Moderately familiar&nbsp;&nbsp;&nbsp;Extremely familiar</p><p>(press the corresponding number on your keyboard)</p>","","51","","","FAM-RESPONSE","","","","","","","","sounds/B/FAM/N004.mp3","nonword","","","","","","","","","","","","","","","","",""
"html-keyboard-response","238","1108379","0.0-7.0-1.0-0.6","2","0","4jmezqs5npk3znh","","null","","","","null","","","","","","","","","","","","","","","","","","","","","","","","","","","","",""
"audio-keyboard-response","239","1109323","0.0-7.0-1.0-1.6","2","0","4jmezqs5npk3znh","","null","","sounds/B/FAM/P002.mp3","","null","","","","","","","","","","","","","","","","","","","","","","","","","","","","",""
"html-keyboard-response","240","1110885","0.0-7.0-1.0-2.6","2","0","4jmezqs5npk3znh","","1055.5","","<p>How familiar did this sound to you?</p><p>1&nbsp;&nbsp;&nbsp;&nbsp;&nbsp;&nbsp;&nbsp;&nbsp;&nbsp;&nbsp;&nbsp;&nbsp;&nbsp;&nbsp;&nbsp;&nbsp;&nbsp;&nbsp;&nbsp;2&nbsp;&nbsp;&nbsp;&nbsp;&nbsp;&nbsp;&nbsp;&nbsp;&nbsp;&nbsp;&nbsp;&nbsp;&nbsp;&nbsp;&nbsp;&nbsp;&nbsp;&nbsp;&nbsp;3&nbsp;&nbsp;&nbsp;&nbsp;&nbsp;&nbsp;&nbsp;&nbsp;&nbsp;&nbsp;&nbsp;&nbsp;&nbsp;&nbsp;&nbsp;&nbsp;&nbsp;&nbsp;&nbsp;4</p><p style=""font-size:14px"">Not at all familiar&nbsp;&nbsp;&nbsp;&nbsp;A little familiar&nbsp;&nbsp;&nbsp;Moderately familiar&nbsp;&nbsp;&nbsp;Extremely familiar</p><p>(press the corresponding number on your keyboard)</p>","","51","","","FAM-RESPONSE","","","","","","","","sounds/B/FAM/P002.mp3","partword","","","","","","","","","","","","","","","","",""
"html-keyboard-response","241","1112901","0.0-7.0-1.0-0.7","2","0","4jmezqs5npk3znh","","null","","","","null","","","","","","","","","","","","","","","","","","","","","","","","","","","","",""
"audio-keyboard-response","242","1113853","0.0-7.0-1.0-1.7","2","0","4jmezqs5npk3znh","","null","","sounds/B/FAM/W001.mp3","","null","","","","","","","","","","","","","","","","","","","","","","","","","","","","",""
"html-keyboard-response","243","1114784","0.0-7.0-1.0-2.7","2","0","4jmezqs5npk3znh","","422.40000009536743","","<p>How familiar did this sound to you?</p><p>1&nbsp;&nbsp;&nbsp;&nbsp;&nbsp;&nbsp;&nbsp;&nbsp;&nbsp;&nbsp;&nbsp;&nbsp;&nbsp;&nbsp;&nbsp;&nbsp;&nbsp;&nbsp;&nbsp;2&nbsp;&nbsp;&nbsp;&nbsp;&nbsp;&nbsp;&nbsp;&nbsp;&nbsp;&nbsp;&nbsp;&nbsp;&nbsp;&nbsp;&nbsp;&nbsp;&nbsp;&nbsp;&nbsp;3&nbsp;&nbsp;&nbsp;&nbsp;&nbsp;&nbsp;&nbsp;&nbsp;&nbsp;&nbsp;&nbsp;&nbsp;&nbsp;&nbsp;&nbsp;&nbsp;&nbsp;&nbsp;&nbsp;4</p><p style=""font-size:14px"">Not at all familiar&nbsp;&nbsp;&nbsp;&nbsp;A little familiar&nbsp;&nbsp;&nbsp;Moderately familiar&nbsp;&nbsp;&nbsp;Extremely familiar</p><p>(press the corresponding number on your keyboard)</p>","","52","","","FAM-RESPONSE","","","","","","","","sounds/B/FAM/W001.mp3","word","","","","","","","","","","","","","","","","",""
"html-keyboard-response","244","1116800","0.0-7.0-1.0-0.8","2","0","4jmezqs5npk3znh","","null","","","","null","","","","","","","","","","","","","","","","","","","","","","","","","","","","",""
"audio-keyboard-response","245","1117733","0.0-7.0-1.0-1.8","2","0","4jmezqs5npk3znh","","null","","sounds/B/FAM/P003.mp3","","null","","","","","","","","","","","","","","","","","","","","","","","","","","","","",""
"html-keyboard-response","246","1118684","0.0-7.0-1.0-2.8","2","0","4jmezqs5npk3znh","","442.7000000476837","","<p>How familiar did this sound to you?</p><p>1&nbsp;&nbsp;&nbsp;&nbsp;&nbsp;&nbsp;&nbsp;&nbsp;&nbsp;&nbsp;&nbsp;&nbsp;&nbsp;&nbsp;&nbsp;&nbsp;&nbsp;&nbsp;&nbsp;2&nbsp;&nbsp;&nbsp;&nbsp;&nbsp;&nbsp;&nbsp;&nbsp;&nbsp;&nbsp;&nbsp;&nbsp;&nbsp;&nbsp;&nbsp;&nbsp;&nbsp;&nbsp;&nbsp;3&nbsp;&nbsp;&nbsp;&nbsp;&nbsp;&nbsp;&nbsp;&nbsp;&nbsp;&nbsp;&nbsp;&nbsp;&nbsp;&nbsp;&nbsp;&nbsp;&nbsp;&nbsp;&nbsp;4</p><p style=""font-size:14px"">Not at all familiar&nbsp;&nbsp;&nbsp;&nbsp;A little familiar&nbsp;&nbsp;&nbsp;Moderately familiar&nbsp;&nbsp;&nbsp;Extremely familiar</p><p>(press the corresponding number on your keyboard)</p>","","51","","","FAM-RESPONSE","","","","","","","","sounds/B/FAM/P003.mp3","partword","","","","","","","","","","","","","","","","",""
"html-keyboard-response","247","1120701","0.0-7.0-1.0-0.9","2","0","4jmezqs5npk3znh","","null","","","","null","","","","","","","","","","","","","","","","","","","","","","","","","","","","",""
"audio-keyboard-response","248","1121643","0.0-7.0-1.0-1.9","2","0","4jmezqs5npk3znh","","null","","sounds/B/FAM/W003.mp3","","null","","","","","","","","","","","","","","","","","","","","","","","","","","","","",""
"html-keyboard-response","249","1122576","0.0-7.0-1.0-2.9","2","0","4jmezqs5npk3znh","","418.89999997615814","","<p>How familiar did this sound to you?</p><p>1&nbsp;&nbsp;&nbsp;&nbsp;&nbsp;&nbsp;&nbsp;&nbsp;&nbsp;&nbsp;&nbsp;&nbsp;&nbsp;&nbsp;&nbsp;&nbsp;&nbsp;&nbsp;&nbsp;2&nbsp;&nbsp;&nbsp;&nbsp;&nbsp;&nbsp;&nbsp;&nbsp;&nbsp;&nbsp;&nbsp;&nbsp;&nbsp;&nbsp;&nbsp;&nbsp;&nbsp;&nbsp;&nbsp;3&nbsp;&nbsp;&nbsp;&nbsp;&nbsp;&nbsp;&nbsp;&nbsp;&nbsp;&nbsp;&nbsp;&nbsp;&nbsp;&nbsp;&nbsp;&nbsp;&nbsp;&nbsp;&nbsp;4</p><p style=""font-size:14px"">Not at all familiar&nbsp;&nbsp;&nbsp;&nbsp;A little familiar&nbsp;&nbsp;&nbsp;Moderately familiar&nbsp;&nbsp;&nbsp;Extremely familiar</p><p>(press the corresponding number on your keyboard)</p>","","50","","","FAM-RESPONSE","","","","","","","","sounds/B/FAM/W003.mp3","word","","","","","","","","","","","","","","","","",""
"html-keyboard-response","250","1124589","0.0-7.0-1.0-0.10","2","0","4jmezqs5npk3znh","","null","","","","null","","","","","","","","","","","","","","","","","","","","","","","","","","","","",""
"audio-keyboard-response","251","1125533","0.0-7.0-1.0-1.10","2","0","4jmezqs5npk3znh","","null","","sounds/B/FAM/W004.mp3","","null","","","","","","","","","","","","","","","","","","","","","","","","","","","","",""
"html-keyboard-response","252","1126574","0.0-7.0-1.0-2.10","2","0","4jmezqs5npk3znh","","535.5","","<p>How familiar did this sound to you?</p><p>1&nbsp;&nbsp;&nbsp;&nbsp;&nbsp;&nbsp;&nbsp;&nbsp;&nbsp;&nbsp;&nbsp;&nbsp;&nbsp;&nbsp;&nbsp;&nbsp;&nbsp;&nbsp;&nbsp;2&nbsp;&nbsp;&nbsp;&nbsp;&nbsp;&nbsp;&nbsp;&nbsp;&nbsp;&nbsp;&nbsp;&nbsp;&nbsp;&nbsp;&nbsp;&nbsp;&nbsp;&nbsp;&nbsp;3&nbsp;&nbsp;&nbsp;&nbsp;&nbsp;&nbsp;&nbsp;&nbsp;&nbsp;&nbsp;&nbsp;&nbsp;&nbsp;&nbsp;&nbsp;&nbsp;&nbsp;&nbsp;&nbsp;4</p><p style=""font-size:14px"">Not at all familiar&nbsp;&nbsp;&nbsp;&nbsp;A little familiar&nbsp;&nbsp;&nbsp;Moderately familiar&nbsp;&nbsp;&nbsp;Extremely familiar</p><p>(press the corresponding number on your keyboard)</p>","","51","","","FAM-RESPONSE","","","","","","","","sounds/B/FAM/W004.mp3","word","","","","","","","","","","","","","","","","",""
"html-keyboard-response","253","1128580","0.0-7.0-1.0-0.11","2","0","4jmezqs5npk3znh","","null","","","","null","","","","","","","","","","","","","","","","","","","","","","","","","","","","",""
"audio-keyboard-response","254","1129522","0.0-7.0-1.0-1.11","2","0","4jmezqs5npk3znh","","null","","sounds/B/FAM/P001.mp3","","null","","","","","","","","","","","","","","","","","","","","","","","","","","","","",""
"html-keyboard-response","255","1130406","0.0-7.0-1.0-2.11","2","0","4jmezqs5npk3znh","","375.60000002384186","","<p>How familiar did this sound to you?</p><p>1&nbsp;&nbsp;&nbsp;&nbsp;&nbsp;&nbsp;&nbsp;&nbsp;&nbsp;&nbsp;&nbsp;&nbsp;&nbsp;&nbsp;&nbsp;&nbsp;&nbsp;&nbsp;&nbsp;2&nbsp;&nbsp;&nbsp;&nbsp;&nbsp;&nbsp;&nbsp;&nbsp;&nbsp;&nbsp;&nbsp;&nbsp;&nbsp;&nbsp;&nbsp;&nbsp;&nbsp;&nbsp;&nbsp;3&nbsp;&nbsp;&nbsp;&nbsp;&nbsp;&nbsp;&nbsp;&nbsp;&nbsp;&nbsp;&nbsp;&nbsp;&nbsp;&nbsp;&nbsp;&nbsp;&nbsp;&nbsp;&nbsp;4</p><p style=""font-size:14px"">Not at all familiar&nbsp;&nbsp;&nbsp;&nbsp;A little familiar&nbsp;&nbsp;&nbsp;Moderately familiar&nbsp;&nbsp;&nbsp;Extremely familiar</p><p>(press the corresponding number on your keyboard)</p>","","50","","","FAM-RESPONSE","","","","","","","","sounds/B/FAM/P001.mp3","partword","","","","","","","","","","","","","","","","",""
"html-button-response","256","1135221","0.0-8.0-0.0","2","0","4jmezqs5npk3znh","","3809.600000023842","","<p>You will now listen to longer sound sequences.</p><p>Each sound sequence will last about 16 seconds.</p><p>On each trial, you will be given a <u>TARGET SOUND</u>. Your task is to listen very carefully for this sound.</p><p>Every time you hear the <u>TARGET SOUND</u>, you will press the <b>SPACEBAR</b> as quickly and accurately as you can.</p>","0","","","","","","","","","","","","","","","","","","","","","","","","","","","","","",""
"html-button-response","257","1140808","0.0-8.0-1.0","2","0","4jmezqs5npk3znh","","5326.399999976158","","<p>It is very important that you make your responses as quickly and accurately as possible.</p><p>To help you make your responses, you will be able to listen to the <u>TARGET SOUND</u> at the beginning of each trial.</p><p>There will be 36 total trials.</p><p><b>Note: This is meant to be a difficult task. We simply want you to try your best.</p>","0","","","","","","","","","","","","","","","","","","","","","","","","","","","","","",""
"html-button-response","258","1142225","0.0-8.0-2.0-0.0","2","0","4jmezqs5npk3znh","","1151.7999999523163","","<p>Trial 1 of 36</p>","0","","","","","","","","","","","","","","NI","sounds/syllables/ni_SWS.wav","2100,3900,6600,12900","2","","","","","","","","","","","","",""
"html-keyboard-response","259","1143640","0.0-8.0-2.0-1.0","2","0","4jmezqs5npk3znh","","1413.7000000476837","","","","80","","","","","","","","","","","","","NI","","2100,3900,6600,12900","2","","","","","","","","","","","","",""
"audio-keyboard-response","260","1143932","0.0-8.0-2.0-2.0-0.0","2","0","4jmezqs5npk3znh","","null","","sounds/syllables/ni_SWS.wav","","null","","","","","","","","","","","","","","","","","","","","","","","","","","","","",""
"html-keyboard-response","261","1145549","0.0-8.0-2.0-2.0-1.0","2","0","4jmezqs5npk3znh","","1616.1000000238419","","<p>To replay the <u>TARGET SOUND</u>, press P.</p> When you are ready to begin, press SPACEBAR.","","80","","","","","","","","","","","","","","","","","","","","","","","","","","","","",""
"audio-keyboard-response","262","1146362","0.0-8.0-2.0-2.1-0.1","2","0","4jmezqs5npk3znh","","null","","sounds/syllables/ni_SWS.wav","","null","","","","","","","","","","","","","","","","","","","","","","","","","","","","",""
"html-keyboard-response","263","1147319","0.0-8.0-2.0-2.1-1.1","2","0","4jmezqs5npk3znh","","955.6999999284744","","<p>To replay the <u>TARGET SOUND</u>, press P.</p> When you are ready to begin, press SPACEBAR.","","32","","","","","","","","","","","","","","","","","","","","","","","","","","","","",""
"audio-keyboard-response","264","1162262","0.0-8.0-2.0-3.0","2","0","4jmezqs5npk3znh","","3320","","sounds/B/TD/NI_06_TD.mp3","","32","","","TD_SUMMARY","","","","","","","","","","NI","","2100,3900,6600,12900","2","2100","3900","6600","12900","null","null","691.1999999284744","null","3313_7291.199999928474_11955.599999904633_14255.5","2","","",""
"html-button-response","265","1163518","0.0-8.0-2.0-0.1","2","0","4jmezqs5npk3znh","","1252.1000000238419","","<p>Trial 2 of 36</p>","0","","","","","","","","","","","","","","FU","sounds/syllables/fu_SWS.wav","3600,6300,9900,12600","1","","","","","","","","","","","","",""
"html-keyboard-response","266","1164950","0.0-8.0-2.0-1.1","2","0","4jmezqs5npk3znh","","1430.5","","","","80","","","","","","","","","","","","","FU","","3600,6300,9900,12600","1","","","","","","","","","","","","",""
"audio-keyboard-response","267","1165253","0.0-8.0-2.0-2.2-0.2","2","0","4jmezqs5npk3znh","","null","","sounds/syllables/fu_SWS.wav","","null","","","","","","","","","","","","","","","","","","","","","","","","","","","","",""
"html-keyboard-response","268","1165803","0.0-8.0-2.0-2.2-1.2","2","0","4jmezqs5npk3znh","","549.1000000238419","","<p>To replay the <u>TARGET SOUND</u>, press P.</p> When you are ready to begin, press SPACEBAR.","","80","","","","","","","","","","","","","","","","","","","","","","","","","","","","",""
"audio-keyboard-response","269","1166613","0.0-8.0-2.0-2.3-0.3","2","0","4jmezqs5npk3znh","","null","","sounds/syllables/fu_SWS.wav","","null","","","","","","","","","","","","","","","","","","","","","","","","","","","","",""
"html-keyboard-response","270","1167400","0.0-8.0-2.0-2.3-1.3","2","0","4jmezqs5npk3znh","","786","","<p>To replay the <u>TARGET SOUND</u>, press P.</p> When you are ready to begin, press SPACEBAR.","","32","","","","","","","","","","","","","","","","","","","","","","","","","","","","",""
"audio-keyboard-response","271","1182353","0.0-8.0-2.0-3.1","2","0","4jmezqs5npk3znh","","4139","","sounds/B/TD/FU_01_TD.mp3","","32","","","TD_SUMMARY","","","","","","","","","","FU","","3600,6300,9900,12600","1","3600","6300","9900","12600","532.8999999761581","1056.8999999761581","916.3999999761581","null","____4132.899999976158_7356.899999976158_10816.399999976158","2","","",""
"html-button-response","272","1183389","0.0-8.0-2.0-0.2","2","0","4jmezqs5npk3znh","","1033.1000000238419","","<p>Trial 3 of 36</p>","0","","","","","","","","","","","","","","PU","sounds/syllables/pu_SWS.wav","1800,3600,5400,10800","1","","","","","","","","","","","","",""
"html-keyboard-response","273","1183935","0.0-8.0-2.0-1.2","2","0","4jmezqs5npk3znh","","543.7999999523163","","","","80","","","","","","","","","","","","","PU","","1800,3600,5400,10800","1","","","","","","","","","","","","",""
"audio-keyboard-response","274","1184242","0.0-8.0-2.0-2.4-0.4","2","0","4jmezqs5npk3znh","","null","","sounds/syllables/pu_SWS.wav","","null","","","","","","","","","","","","","","","","","","","","","","","","","","","","",""
"html-keyboard-response","275","1184661","0.0-8.0-2.0-2.4-1.4","2","0","4jmezqs5npk3znh","","418.3000000715256","","<p>To replay the <u>TARGET SOUND</u>, press P.</p> When you are ready to begin, press SPACEBAR.","","80","","","","","","","","","","","","","","","","","","","","","","","","","","","","",""
"audio-keyboard-response","276","1185462","0.0-8.0-2.0-2.5-0.5","2","0","4jmezqs5npk3znh","","null","","sounds/syllables/pu_SWS.wav","","null","","","","","","","","","","","","","","","","","","","","","","","","","","","","",""
"html-keyboard-response","277","1185581","0.0-8.0-2.0-2.5-1.5","2","0","4jmezqs5npk3znh","","117.79999995231628","","<p>To replay the <u>TARGET SOUND</u>, press P.</p> When you are ready to begin, press SPACEBAR.","","32","","","","","","","","","","","","","","","","","","","","","","","","","","","","",""
"audio-keyboard-response","278","1200533","0.0-8.0-2.0-3.2","2","0","4jmezqs5npk3znh","","2221","","sounds/B/TD/PU_01_TD.mp3","","32","","","TD_SUMMARY","","","","","","","","","","PU","","1800,3600,5400,10800","1","1800","3600","5400","10800","1196.5","1169.3999999761581","null","772.7000000476837","_______2216.8000000715256_2996.5_4142.200000047684_4769.399999976158_6678_11572.700000047684","2","","",""
"html-button-response","279","1201325","0.0-8.0-2.0-0.3","2","0","4jmezqs5npk3znh","","788.5","","<p>Trial 4 of 36</p>","0","","","","","","","","","","","","","","KO","sounds/syllables/ko_SWS.wav","3000,7500,10200,12000","2","","","","","","","","","","","","",""
"html-keyboard-response","280","1201962","0.0-8.0-2.0-1.3","2","0","4jmezqs5npk3znh","","635.7999999523163","","","","80","","","","","","","","","","","","","KO","","3000,7500,10200,12000","2","","","","","","","","","","","","",""
"audio-keyboard-response","281","1202262","0.0-8.0-2.0-2.6-0.6","2","0","4jmezqs5npk3znh","","null","","sounds/syllables/ko_SWS.wav","","null","","","","","","","","","","","","","","","","","","","","","","","","","","","","",""
"html-keyboard-response","282","1202613","0.0-8.0-2.0-2.6-1.6","2","0","4jmezqs5npk3znh","","350.1999999284744","","<p>To replay the <u>TARGET SOUND</u>, press P.</p> When you are ready to begin, press SPACEBAR.","","80","","","","","","","","","","","","","","","","","","","","","","","","","","","","",""
"audio-keyboard-response","283","1203412","0.0-8.0-2.0-2.7-0.7","2","0","4jmezqs5npk3znh","","null","","sounds/syllables/ko_SWS.wav","","null","","","","","","","","","","","","","","","","","","","","","","","","","","","","",""
"html-keyboard-response","284","1203913","0.0-8.0-2.0-2.7-1.7","2","0","4jmezqs5npk3znh","","499.10000002384186","","<p>To replay the <u>TARGET SOUND</u>, press P.</p> When you are ready to begin, press SPACEBAR.","","32","","","","","","","","","","","","","","","","","","","","","","","","","","","","",""
"audio-keyboard-response","285","1218863","0.0-8.0-2.0-3.3","2","0","4jmezqs5npk3znh","","4760","","sounds/B/TD/KO_01_TD.mp3","","32","","","TD_SUMMARY","","","","","","","","","","KO","","3000,7500,10200,12000","2","3000","7500","10200","12000","null","733.5","787.7000000476837","null","_____________4759_8233.5_10987.700000047684","2","","",""
"html-button-response","286","1220129","0.0-8.0-2.0-0.4","2","0","4jmezqs5npk3znh","","1261.3000000715256","","<p>Trial 5 of 36</p>","0","","","","","","","","","","","","","","NI","sounds/syllables/ni_SWS.wav","3900,5700,9300,11100","2","","","","","","","","","","","","",""
"html-keyboard-response","287","1220854","0.0-8.0-2.0-1.4","2","0","4jmezqs5npk3znh","","723.5999999046326","","","","80","","","","","","","","","","","","","NI","","3900,5700,9300,11100","2","","","","","","","","","","","","",""
"audio-keyboard-response","288","1221162","0.0-8.0-2.0-2.8-0.8","2","0","4jmezqs5npk3znh","","null","","sounds/syllables/ni_SWS.wav","","null","","","","","","","","","","","","","","","","","","","","","","","","","","","","",""
"html-keyboard-response","289","1221668","0.0-8.0-2.0-2.8-1.8","2","0","4jmezqs5npk3znh","","505","","<p>To replay the <u>TARGET SOUND</u>, press P.</p> When you are ready to begin, press SPACEBAR.","","80","","","","","","","","","","","","","","","","","","","","","","","","","","","","",""
"audio-keyboard-response","290","1222463","0.0-8.0-2.0-2.9-0.9","2","0","4jmezqs5npk3znh","","null","","sounds/syllables/ni_SWS.wav","","null","","","","","","","","","","","","","","","","","","","","","","","","","","","","",""
"html-keyboard-response","291","1222688","0.0-8.0-2.0-2.9-1.9","2","0","4jmezqs5npk3znh","","224.89999997615814","","<p>To replay the <u>TARGET SOUND</u>, press P.</p> When you are ready to begin, press SPACEBAR.","","32","","","","","","","","","","","","","","","","","","","","","","","","","","","","",""
"audio-keyboard-response","292","1237633","0.0-8.0-2.0-3.4","2","0","4jmezqs5npk3znh","","2680","","sounds/B/TD/NI_02_TD.mp3","","32","","","TD_SUMMARY","","","","","","","","","","NI","","3900,5700,9300,11100","2","3900","5700","9300","11100","1042.1000000238419","853.5","null","null","________________2676.7999999523163_4942.100000023842_6553.5_10574.100000023842","2","","",""
"html-button-response","293","1238360","0.0-8.0-2.0-0.5","2","0","4jmezqs5npk3znh","","724.1999999284744","","<p>Trial 6 of 36</p>","0","","","","","","","","","","","","","","SU","sounds/syllables/su_SWS.wav","2100,3900,7500,12900","2","","","","","","","","","","","","",""
"html-keyboard-response","294","1238711","0.0-8.0-2.0-1.5","2","0","4jmezqs5npk3znh","","349.7999999523163","","","","80","","","","","","","","","","","","","SU","","2100,3900,7500,12900","2","","","","","","","","","","","","",""
"audio-keyboard-response","295","1239012","0.0-8.0-2.0-2.10-0.10","2","0","4jmezqs5npk3znh","","null","","sounds/syllables/su_SWS.wav","","null","","","","","","","","","","","","","","","","","","","","","","","","","","","","",""
"html-keyboard-response","296","1239497","0.0-8.0-2.0-2.10-1.10","2","0","4jmezqs5npk3znh","","484.1999999284744","","<p>To replay the <u>TARGET SOUND</u>, press P.</p> When you are ready to begin, press SPACEBAR.","","32","","","","","","","","","","","","","","","","","","","","","","","","","","","","",""
"audio-keyboard-response","297","1254440","0.0-8.0-2.0-3.5","2","0","4jmezqs5npk3znh","","2560","","sounds/B/TD/SU_09_TD.mp3","","32","","","TD_SUMMARY","","","","","","","","","","SU","","2100,3900,7500,12900","2","2100","3900","7500","12900","458.7999999523163","476.60000002384186","482.89999997615814","661.2999999523163","____________________2558.7999999523163_4376.600000023842_6424.200000047684_7982.899999976158_9813.200000047684_13561.299999952316","1","","",""
"html-button-response","298","1255340","0.0-8.0-2.0-0.6","2","0","4jmezqs5npk3znh","","896.6000000238419","","<p>Trial 7 of 36</p>","0","","","","","","","","","","","","","","ME","sounds/syllables/me_SWS.wav","1200,9300,11100,12900","2","","","","","","","","","","","","",""
"html-keyboard-response","299","1256181","0.0-8.0-2.0-1.6","2","0","4jmezqs5npk3znh","","838.8999999761581","","","","80","","","","","","","","","","","","","ME","","1200,9300,11100,12900","2","","","","","","","","","","","","",""
"audio-keyboard-response","300","1256489","0.0-8.0-2.0-2.11-0.11","2","0","4jmezqs5npk3znh","","null","","sounds/syllables/me_SWS.wav","","null","","","","","","","","","","","","","","","","","","","","","","","","","","","","",""
"html-keyboard-response","301","1256851","0.0-8.0-2.0-2.11-1.11","2","0","4jmezqs5npk3znh","","360.89999997615814","","<p>To replay the <u>TARGET SOUND</u>, press P.</p> When you are ready to begin, press SPACEBAR.","","80","","","","","","","","","","","","","","","","","","","","","","","","","","","","",""
"audio-keyboard-response","302","1257650","0.0-8.0-2.0-2.12-0.12","2","0","4jmezqs5npk3znh","","null","","sounds/syllables/me_SWS.wav","","null","","","","","","","","","","","","","","","","","","","","","","","","","","","","",""
"html-keyboard-response","303","1258259","0.0-8.0-2.0-2.12-1.12","2","0","4jmezqs5npk3znh","","607.6999999284744","","<p>To replay the <u>TARGET SOUND</u>, press P.</p> When you are ready to begin, press SPACEBAR.","","32","","","","","","","","","","","","","","","","","","","","","","","","","","","","",""
"audio-keyboard-response","304","1273211","0.0-8.0-2.0-3.6","2","0","4jmezqs5npk3znh","","1411","","sounds/B/TD/ME_09_TD.mp3","","32","","","TD_SUMMARY","","","","","","","","","","ME","","1200,9300,11100,12900","2","1200","9300","11100","12900","205.19999992847443","1155.5999999046326","null","null","__________________________1405.1999999284744_10455.599999904633","2","","",""
"html-button-response","305","1274013","0.0-8.0-2.0-0.7","2","0","4jmezqs5npk3znh","","799.1999999284744","","<p>Trial 8 of 36</p>","0","","","","","","","","","","","","","","RU","sounds/syllables/ru_SWS.wav","3300,6000,7800,9600","3","","","","","","","","","","","","",""
"html-keyboard-response","306","1274368","0.0-8.0-2.0-1.7","2","0","4jmezqs5npk3znh","","353","","","","80","","","","","","","","","","","","","RU","","3300,6000,7800,9600","3","","","","","","","","","","","","",""
"audio-keyboard-response","307","1274660","0.0-8.0-2.0-2.13-0.13","2","0","4jmezqs5npk3znh","","null","","sounds/syllables/ru_SWS.wav","","null","","","","","","","","","","","","","","","","","","","","","","","","","","","","",""
"html-keyboard-response","308","1274993","0.0-8.0-2.0-2.13-1.13","2","0","4jmezqs5npk3znh","","332","","<p>To replay the <u>TARGET SOUND</u>, press P.</p> When you are ready to begin, press SPACEBAR.","","32","","","","","","","","","","","","","","","","","","","","","","","","","","","","",""
"audio-keyboard-response","309","1289940","0.0-8.0-2.0-3.7","2","0","4jmezqs5npk3znh","","3019","","sounds/B/TD/RU_01_TD.mp3","","32","","","TD_SUMMARY","","","","","","","","","","RU","","3300,6000,7800,9600","3","3300","6000","7800","9600","null","null","269.39999997615814","707.7999999523163","____________________________3018.7999999523163_6086_8069.399999976158_10307.799999952316_13365.199999928474","1","","",""
"html-button-response","310","1290790","0.0-8.0-2.0-0.8","2","0","4jmezqs5npk3znh","","846.5999999046326","","<p>Trial 9 of 36</p>","0","","","","","","","","","","","","","","ME","sounds/syllables/me_SWS.wav","1200,5700,7500,9300","2","","","","","","","","","","","","",""
"html-keyboard-response","311","1291404","0.0-8.0-2.0-1.8","2","0","4jmezqs5npk3znh","","611.7999999523163","","","","80","","","","","","","","","","","","","ME","","1200,5700,7500,9300","2","","","","","","","","","","","","",""
"audio-keyboard-response","312","1291700","0.0-8.0-2.0-2.14-0.14","2","0","4jmezqs5npk3znh","","null","","sounds/syllables/me_SWS.wav","","null","","","","","","","","","","","","","","","","","","","","","","","","","","","","",""
"html-keyboard-response","313","1292084","0.0-8.0-2.0-2.14-1.14","2","0","4jmezqs5npk3znh","","383.10000002384186","","<p>To replay the <u>TARGET SOUND</u>, press P.</p> When you are ready to begin, press SPACEBAR.","","32","","","","","","","","","","","","","","","","","","","","","","","","","","","","",""
"audio-keyboard-response","314","1307040","0.0-8.0-2.0-3.8","2","0","4jmezqs5npk3znh","","6251","","sounds/B/TD/ME_07_TD.mp3","","32","","","TD_SUMMARY","","","","","","","","","","ME","","1200,5700,7500,9300","2","1200","5700","7500","9300","null","550","960.1000000238419","793.2000000476837","_________________________________6250_8460.100000023842_10093.200000047684_10612.400000095367","1","","",""
"html-button-response","315","1309116","0.0-8.0-2.0-0.9","2","0","4jmezqs5npk3znh","","2072.1999999284744","","<p>Trial 10 of 36</p>","0","","","","","","","","","","","","","","TI","sounds/syllables/ti_SWS.wav","4500,6300,9000,11700","1","","","","","","","","","","","","",""
"html-keyboard-response","316","1309843","0.0-8.0-2.0-1.9","2","0","4jmezqs5npk3znh","","725.3999999761581","","","","80","","","","","","","","","","","","","TI","","4500,6300,9000,11700","1","","","","","","","","","","","","",""
"audio-keyboard-response","317","1310141","0.0-8.0-2.0-2.15-0.15","2","0","4jmezqs5npk3znh","","null","","sounds/syllables/ti_SWS.wav","","null","","","","","","","","","","","","","","","","","","","","","","","","","","","","",""
"html-keyboard-response","318","1310701","0.0-8.0-2.0-2.15-1.15","2","0","4jmezqs5npk3znh","","558.3999999761581","","<p>To replay the <u>TARGET SOUND</u>, press P.</p> When you are ready to begin, press SPACEBAR.","","32","","","","","","","","","","","","","","","","","","","","","","","","","","","","",""
"audio-keyboard-response","319","1325653","0.0-8.0-2.0-3.9","2","0","4jmezqs5npk3znh","","5691","","sounds/B/TD/TI_02_TD.mp3","","32","","","TD_SUMMARY","","","","","","","","","","TI","","4500,6300,9000,11700","1","4500","6300","9000","11700","1189.3000000715256","692.5","903.7000000476837","663.5","_____________________________________5689.300000071526_6992.5_9903.700000047684_12363.5","1","","",""
"html-button-response","320","1326534","0.0-8.0-2.0-0.10","2","0","4jmezqs5npk3znh","","877.5","","<p>Trial 11 of 36</p>","0","","","","","","","","","","","","","","FE","sounds/syllables/fe_SWS.wav","3300,7800,9600,11400","3","","","","","","","","","","","","",""
"html-keyboard-response","321","1326935","0.0-8.0-2.0-1.10","2","0","4jmezqs5npk3znh","","398.7999999523163","","","","80","","","","","","","","","","","","","FE","","3300,7800,9600,11400","3","","","","","","","","","","","","",""
"audio-keyboard-response","322","1327243","0.0-8.0-2.0-2.16-0.16","2","0","4jmezqs5npk3znh","","null","","sounds/syllables/fe_SWS.wav","","null","","","","","","","","","","","","","","","","","","","","","","","","","","","","",""
"html-keyboard-response","323","1327645","0.0-8.0-2.0-2.16-1.16","2","0","4jmezqs5npk3znh","","401.3000000715256","","<p>To replay the <u>TARGET SOUND</u>, press P.</p> When you are ready to begin, press SPACEBAR.","","32","","","","","","","","","","","","","","","","","","","","","","","","","","","","",""
"audio-keyboard-response","324","1342593","0.0-8.0-2.0-3.10","2","0","4jmezqs5npk3znh","","10328","","sounds/B/TD/FE_05_TD.mp3","","32","","","TD_SUMMARY","","","","","","","","","","FE","","3300,7800,9600,11400","3","3300","7800","9600","11400","null","null","721.6000000238419","664.8999999761581","_________________________________________10321.600000023842_12064.899999976158","1","","",""
"html-button-response","325","1343488","0.0-8.0-2.0-0.11","2","0","4jmezqs5npk3znh","","891.3000000715256","","<p>Trial 12 of 36</p>","0","","","","","","","","","","","","","","RU","sounds/syllables/ru_SWS.wav","5100,6900,10500,12300","3","","","","","","","","","","","","",""
"html-keyboard-response","326","1343976","0.0-8.0-2.0-1.11","2","0","4jmezqs5npk3znh","","486.60000002384186","","","","80","","","","","","","","","","","","","RU","","5100,6900,10500,12300","3","","","","","","","","","","","","",""
"audio-keyboard-response","327","1344282","0.0-8.0-2.0-2.17-0.17","2","0","4jmezqs5npk3znh","","null","","sounds/syllables/ru_SWS.wav","","null","","","","","","","","","","","","","","","","","","","","","","","","","","","","",""
"html-keyboard-response","328","1344959","0.0-8.0-2.0-2.17-1.17","2","0","4jmezqs5npk3znh","","675.5","","<p>To replay the <u>TARGET SOUND</u>, press P.</p> When you are ready to begin, press SPACEBAR.","","32","","","","","","","","","","","","","","","","","","","","","","","","","","","","",""
"audio-keyboard-response","329","1359904","0.0-8.0-2.0-3.11","2","0","4jmezqs5npk3znh","","5160","","sounds/B/TD/RU_08_TD.mp3","","32","","","TD_SUMMARY","","","","","","","","","","RU","","5100,6900,10500,12300","3","5100","6900","10500","12300","null","null","424.60000002384186","454.89999997615814","___________________________________________5158.300000071526_6883.600000023842_10924.600000023842_12754.899999976158","1","","",""
"html-button-response","330","1360810","0.0-8.0-2.0-0.12","2","0","4jmezqs5npk3znh","","901.3999999761581","","<p>Trial 13 of 36</p>","0","","","","","","","","","","","","","","PU","sounds/syllables/pu_SWS.wav","4500,6300,8100,12600","1","","","","","","","","","","","","",""
"html-keyboard-response","331","1361475","0.0-8.0-2.0-1.12","2","0","4jmezqs5npk3znh","","663.5","","","","80","","","","","","","","","","","","","PU","","4500,6300,8100,12600","1","","","","","","","","","","","","",""
"audio-keyboard-response","332","1361771","0.0-8.0-2.0-2.18-0.18","2","0","4jmezqs5npk3znh","","null","","sounds/syllables/pu_SWS.wav","","null","","","","","","","","","","","","","","","","","","","","","","","","","","","","",""
"html-keyboard-response","333","1362553","0.0-8.0-2.0-2.18-1.18","2","0","4jmezqs5npk3znh","","781","","<p>To replay the <u>TARGET SOUND</u>, press P.</p> When you are ready to begin, press SPACEBAR.","","32","","","","","","","","","","","","","","","","","","","","","","","","","","","","",""
"audio-keyboard-response","334","1377511","0.0-8.0-2.0-3.12","2","0","4jmezqs5npk3znh","","5029","","sounds/B/TD/PU_08_TD.mp3","","32","","","TD_SUMMARY","","","","","","","","","","PU","","4500,6300,8100,12600","1","4500","6300","8100","12600","536.3000000715256","588.5","690.3999999761581","762.3000000715256","_______________________________________________5036.300000071526_6888.5_8790.399999976158_13362.300000071526","1","","",""
"html-button-response","335","1378802","0.0-8.0-2.0-0.13","2","0","4jmezqs5npk3znh","","1289.0999999046326","","<p>Trial 14 of 36</p>","0","","","","","","","","","","","","","","RE","sounds/syllables/re_SWS.wav","1500,3300,6000,13200","3","","","","","","","","","","","","",""
"html-keyboard-response","336","1379455","0.0-8.0-2.0-1.13","2","0","4jmezqs5npk3znh","","652.5","","","","80","","","","","","","","","","","","","RE","","1500,3300,6000,13200","3","","","","","","","","","","","","",""
"audio-keyboard-response","337","1379761","0.0-8.0-2.0-2.19-0.19","2","0","4jmezqs5npk3znh","","null","","sounds/syllables/re_SWS.wav","","null","","","","","","","","","","","","","","","","","","","","","","","","","","","","",""
"html-keyboard-response","338","1380710","0.0-8.0-2.0-2.19-1.19","2","0","4jmezqs5npk3znh","","947.7000000476837","","<p>To replay the <u>TARGET SOUND</u>, press P.</p> When you are ready to begin, press SPACEBAR.","","80","","","","","","","","","","","","","","","","","","","","","","","","","","","","",""
"audio-keyboard-response","339","1381502","0.0-8.0-2.0-2.20-0.20","2","0","4jmezqs5npk3znh","","null","","sounds/syllables/re_SWS.wav","","null","","","","","","","","","","","","","","","","","","","","","","","","","","","","",""
"html-keyboard-response","340","1382965","0.0-8.0-2.0-2.20-1.20","2","0","4jmezqs5npk3znh","","1463.1000000238419","","<p>To replay the <u>TARGET SOUND</u>, press P.</p> When you are ready to begin, press SPACEBAR.","","80","","","","","","","","","","","","","","","","","","","","","","","","","","","","",""
"audio-keyboard-response","341","1383772","0.0-8.0-2.0-2.21-0.21","2","0","4jmezqs5npk3znh","","null","","sounds/syllables/re_SWS.wav","","null","","","","","","","","","","","","","","","","","","","","","","","","","","","","",""
"html-keyboard-response","342","1384504","0.0-8.0-2.0-2.21-1.21","2","0","4jmezqs5npk3znh","","731.7000000476837","","<p>To replay the <u>TARGET SOUND</u>, press P.</p> When you are ready to begin, press SPACEBAR.","","32","","","","","","","","","","","","","","","","","","","","","","","","","","","","",""
"audio-keyboard-response","343","1399461","0.0-8.0-2.0-3.13","2","0","4jmezqs5npk3znh","","12379","","sounds/B/TD/RE_01_TD.mp3","","32","","","TD_SUMMARY","","","","","","","","","","RE","","1500,3300,6000,13200","3","1500","3300","6000","13200","null","null","null","null","___________________________________________________12379.600000023842","3","","",""
"html-button-response","344","1400619","0.0-8.0-2.0-0.14","2","0","4jmezqs5npk3znh","","1155.3000000715256","","<p>Trial 15 of 36</p>","0","","","","","","","","","","","","","","RE","sounds/syllables/re_SWS.wav","3300,6000,9600,11400","3","","","","","","","","","","","","",""
"html-keyboard-response","345","1401002","0.0-8.0-2.0-1.14","2","0","4jmezqs5npk3znh","","379.10000002384186","","","","80","","","","","","","","","","","","","RE","","3300,6000,9600,11400","3","","","","","","","","","","","","",""
"audio-keyboard-response","346","1401302","0.0-8.0-2.0-2.22-0.22","2","0","4jmezqs5npk3znh","","null","","sounds/syllables/re_SWS.wav","","null","","","","","","","","","","","","","","","","","","","","","","","","","","","","",""
"html-keyboard-response","347","1401647","0.0-8.0-2.0-2.22-1.22","2","0","4jmezqs5npk3znh","","345","","<p>To replay the <u>TARGET SOUND</u>, press P.</p> When you are ready to begin, press SPACEBAR.","","32","","","","","","","","","","","","","","","","","","","","","","","","","","","","",""
"audio-keyboard-response","348","1416592","0.0-8.0-2.0-3.14","2","0","4jmezqs5npk3znh","","6968","","sounds/B/TD/RE_02_TD.mp3","","32","","","TD_SUMMARY","","","","","","","","","","RE","","3300,6000,9600,11400","3","3300","6000","9600","11400","null","971.5","null","null","____________________________________________________6971.5","1","","",""
"html-button-response","349","1417580","0.0-8.0-2.0-0.15","2","0","4jmezqs5npk3znh","","986.7000000476837","","<p>Trial 16 of 36</p>","0","","","","","","","","","","","","","","SU","sounds/syllables/su_SWS.wav","3000,7500,9300,12900","2","","","","","","","","","","","","",""
