"trial_type","trial_index","time_elapsed","internal_node_id","counterbalance","lang_instruct","ParticipantID","view_history","rt","url","stimulus","button_pressed","key_press","correctRESP","correct","designation","location","correctanswer","responses","sentence","keywords","typed_resp","keyword1_acc","keyword2_acc","keyword3_acc","keyword4_acc","keyword5_acc","total_acc","prop_acc","timeouts","pause_rt01","pause_rt02","train_file","numKeyPress","sound","fam_type","SYLLABLE","EXEMPLAR","TD_LOCS","TD_TYPE","TDLOC_01","TDLOC_02","TDLOC_03","TDLOC_04","TD_RT_01","TD_RT_02","TD_RT_03","TD_RT_04","TD_SUBJ_RTs","number_of_plays","slider_start","response","question_order","syllable","syllable_type"
"pavlovia","0","3","0.0-0.0","3","1","zl5xeevl29zt9c3","","","","","","","","","","","","","","","","","","","","","","","","","","","","","","","","","","","","","","","","","","","","","","","",""
"instructions","1","23608","0.0-1.0","3","1","zl5xeevl29zt9c3","[{""page_index"":0,""viewing_time"":7318.300000011921},{""page_index"":1,""viewing_time"":16284.59999999404}]","23605.30000001192","","","","","","","","","","","","","","","","","","","","","","","","","","","","","","","","","","","","","","","","","","","","","",""
"external-html","2","27874","0.0-2.0","3","1","zl5xeevl29zt9c3","","4146.699999988079","consent/consent.html","","","","","","","","","","","","","","","","","","","","","","","","","","","","","","","","","","","","","","","","","","","","",""
"html-button-response","3","192039","0.0-3.0-0.0-0.0","3","1","zl5xeevl29zt9c3","","164159.59999999404","","<p>Welcome to the study. You will first complete a short volume calibration and headphone check.</p><p>Please make sure you are in a quiet listening environment, that you are wearing headphones, and that your computer's volume is turned on.<p></p>","0","","","","","","","","","","","","","","","","","","","","","","","","","","","","","","","","","","","","","","","","","","",""
"html-button-response","4","197688","0.0-3.0-0.0-1.0","3","1","zl5xeevl29zt9c3","","5388.5999999940395","","<p>The volume calibration will be first.</p><p>You will hear a thirty-second noise. Please adjust your computer's volume so that this noise is being presented at a comfortable level.<p></p>","0","","","","","","","","","","","","","","","","","","","","","","","","","","","","","","","","","","","","","","","","","","",""
"audio-button-response","5","205796","0.0-3.0-0.0-2.0","3","1","zl5xeevl29zt9c3","","7120","","audCalib/volumetest.mp3","0","","","","","","","","","","","","","","","","","","","","","","","","","","","","","","","","","","","","","","","","","","",""
"html-button-response","6","214794","0.0-3.0-1.0-0.0","3","1","zl5xeevl29zt9c3","","8997.90000000596","","<p>You will now complete a short headphone check.</p><p>On each trial, you will hear three tones. One of these tones will be quieter than the others. Your task is to identify whether the quiet tone occured first, second, or third.</p><p>There are six trials in total.<p></p>","0","","","","","","","","","","","","","","","","","","","","","","","","","","","","","","","","","","","","","","","","","","",""
"html-keyboard-response","7","215566","0.0-3.0-1.0-1.0-0.0","3","1","zl5xeevl29zt9c3","","null","","<div style=""font-size:60px;"">+</div>","","null","","","","","","","","","","","","","","","","","","","","","","","","","","","","","","","","","","","","","","","","","",""
"audio-button-response","8","227600","0.0-3.0-1.0-1.0-1.0","3","1","zl5xeevl29zt9c3","","12032","","audCalib/t3_2.mp3","0","","2","0","headphone-test","","","","","","","","","","","","","","","","","","","","","","","","","","","","","","","","","","","","","","",""
"html-keyboard-response","9","228366","0.0-3.0-1.0-1.0-0.1","3","1","zl5xeevl29zt9c3","","null","","<div style=""font-size:60px;"">+</div>","","null","","","","","","","","","","","","","","","","","","","","","","","","","","","","","","","","","","","","","","","","","",""
"audio-button-response","10","234195","0.0-3.0-1.0-1.0-1.1","3","1","zl5xeevl29zt9c3","","5821","","audCalib/t2_1.mp3","0","","1","0","headphone-test","","","","","","","","","","","","","","","","","","","","","","","","","","","","","","","","","","","","","","",""
"html-keyboard-response","11","234976","0.0-3.0-1.0-1.0-0.2","3","1","zl5xeevl29zt9c3","","null","","<div style=""font-size:60px;"">+</div>","","null","","","","","","","","","","","","","","","","","","","","","","","","","","","","","","","","","","","","","","","","","",""
"audio-button-response","12","240644","0.0-3.0-1.0-1.0-1.2","3","1","zl5xeevl29zt9c3","","5661","","audCalib/t1_1.mp3","0","","0","1","headphone-test","","","","","","","","","","","","","","","","","","","","","","","","","","","","","","","","","","","","","","",""
"html-keyboard-response","13","241406","0.0-3.0-1.0-1.0-0.3","3","1","zl5xeevl29zt9c3","","null","","<div style=""font-size:60px;"">+</div>","","null","","","","","","","","","","","","","","","","","","","","","","","","","","","","","","","","","","","","","","","","","",""
"audio-button-response","14","245908","0.0-3.0-1.0-1.0-1.3","3","1","zl5xeevl29zt9c3","","4501","","audCalib/t2_2.mp3","0","","1","0","headphone-test","","","","","","","","","","","","","","","","","","","","","","","","","","","","","","","","","","","","","","",""
"html-keyboard-response","15","246676","0.0-3.0-1.0-1.0-0.4","3","1","zl5xeevl29zt9c3","","null","","<div style=""font-size:60px;"">+</div>","","null","","","","","","","","","","","","","","","","","","","","","","","","","","","","","","","","","","","","","","","","","",""
"audio-button-response","16","247744","0.0-3.0-1.0-1.0-1.4","3","1","zl5xeevl29zt9c3","","1059","","audCalib/t3_1.mp3","1","","2","0","headphone-test","","","","","","","","","","","","","","","","","","","","","","","","","","","","","","","","","","","","","","",""
"html-keyboard-response","17","248526","0.0-3.0-1.0-1.0-0.5","3","1","zl5xeevl29zt9c3","","null","","<div style=""font-size:60px;"">+</div>","","null","","","","","","","","","","","","","","","","","","","","","","","","","","","","","","","","","","","","","","","","","",""
"audio-button-response","18","250728","0.0-3.0-1.0-1.0-1.5","3","1","zl5xeevl29zt9c3","","2200","","audCalib/t1_2.mp3","2","","0","0","headphone-test","","","","","","","","","","","","","","","","","","","","","","","","","","","","","","","","","","","","","","",""
"html-button-response","19","253957","0.0-3.0-2.0","3","1","zl5xeevl29zt9c3","","2970.199999988079","","<p>The volume calibration and headphone check are now complete.</p>","0","","","","","","","","","","","","","","","","","","","","","","","","","","","","","","","","","","","","","","","","","","",""
"instructions","20","341896","0.0-4.0-0.0","3","1","zl5xeevl29zt9c3","[{""page_index"":0,""viewing_time"":3727.800000011921},{""page_index"":1,""viewing_time"":82072},{""page_index"":2,""viewing_time"":2136.800000011921}]","87936.80000001192","","","","","","","","","","","","","","","","","","","","","","","","","","","","","","","","","","","","","","","","","","","","","",""
"audio-keyboard-response","21","342548","0.0-4.0-1.0-0.0","3","1","zl5xeevl29zt9c3","","null","","sounds/induction/left/pu_SWS.wav","","null","","","","","","","","","","","","","","","","","","","","","","","","","","","","","","","","","","","","","","","","","",""
"html-button-response","22","400582","0.0-4.0-1.0-1.0","3","1","zl5xeevl29zt9c3","","58032.90000000596","","What sound did you hear?","0","","","1","INDUCTION-JUDGMENT","left","0","","","","","","","","","","","","","","","","","","","","","","","","","","","","","","","","","","","","",""
"html-keyboard-response","23","401591","0.0-4.0-1.0-2.0","3","1","zl5xeevl29zt9c3","","null","","<p style=""color:green;""><b>Correct!</b></p>","","null","","","","","","","","","","","","","","","","","","","","","","","","","","","","","","","","","","","","","","","","","",""
"audio-keyboard-response","24","402765","0.0-4.0-1.0-0.1","3","1","zl5xeevl29zt9c3","","null","","sounds/induction/right/re_SWS.wav","","null","","","","","","","","","","","","","","","","","","","","","","","","","","","","","","","","","","","","","","","","","",""
"html-button-response","25","404892","0.0-4.0-1.0-1.1","3","1","zl5xeevl29zt9c3","","2126.899999976158","","What sound did you hear?","0","","","0","INDUCTION-JUDGMENT","right","1","","","","","","","","","","","","","","","","","","","","","","","","","","","","","","","","","","","","",""
"html-keyboard-response","26","405902","0.0-4.0-1.0-2.1","3","1","zl5xeevl29zt9c3","","null","","<p style=""color:red;""><b>Incorrect!</b></p>","","null","","","","","","","","","","","","","","","","","","","","","","","","","","","","","","","","","","","","","","","","","",""
"audio-keyboard-response","27","406707","0.0-4.0-1.0-0.2","3","1","zl5xeevl29zt9c3","","null","","sounds/induction/right/fu_SWS.wav","","null","","","","","","","","","","","","","","","","","","","","","","","","","","","","","","","","","","","","","","","","","",""
"html-button-response","28","408599","0.0-4.0-1.0-1.2","3","1","zl5xeevl29zt9c3","","1891.4000000059605","","What sound did you hear?","0","","","1","INDUCTION-JUDGMENT","right","0","","","","","","","","","","","","","","","","","","","","","","","","","","","","","","","","","","","","",""
"html-keyboard-response","29","409614","0.0-4.0-1.0-2.2","3","1","zl5xeevl29zt9c3","","null","","<p style=""color:green;""><b>Correct!</b></p>","","null","","","","","","","","","","","","","","","","","","","","","","","","","","","","","","","","","","","","","","","","","",""
"audio-keyboard-response","30","410415","0.0-4.0-1.0-0.3","3","1","zl5xeevl29zt9c3","","null","","sounds/induction/right/ta_SWS.wav","","null","","","","","","","","","","","","","","","","","","","","","","","","","","","","","","","","","","","","","","","","","",""
"html-button-response","31","412684","0.0-4.0-1.0-1.3","3","1","zl5xeevl29zt9c3","","2269","","What sound did you hear?","0","","","0","INDUCTION-JUDGMENT","right","1","","","","","","","","","","","","","","","","","","","","","","","","","","","","","","","","","","","","",""
"html-keyboard-response","32","413702","0.0-4.0-1.0-2.3","3","1","zl5xeevl29zt9c3","","null","","<p style=""color:red;""><b>Incorrect!</b></p>","","null","","","","","","","","","","","","","","","","","","","","","","","","","","","","","","","","","","","","","","","","","",""
"audio-keyboard-response","33","414505","0.0-4.0-1.0-0.4","3","1","zl5xeevl29zt9c3","","null","","sounds/induction/right/fe_SWS.wav","","null","","","","","","","","","","","","","","","","","","","","","","","","","","","","","","","","","","","","","","","","","",""
"html-button-response","34","418346","0.0-4.0-1.0-1.4","3","1","zl5xeevl29zt9c3","","3839.300000011921","","What sound did you hear?","0","","","1","INDUCTION-JUDGMENT","right","0","","","","","","","","","","","","","","","","","","","","","","","","","","","","","","","","","","","","",""
"html-keyboard-response","35","419363","0.0-4.0-1.0-2.4","3","1","zl5xeevl29zt9c3","","null","","<p style=""color:green;""><b>Correct!</b></p>","","null","","","","","","","","","","","","","","","","","","","","","","","","","","","","","","","","","","","","","","","","","",""
"audio-keyboard-response","36","420184","0.0-4.0-1.0-0.5","3","1","zl5xeevl29zt9c3","","null","","sounds/induction/right/su_SWS.wav","","null","","","","","","","","","","","","","","","","","","","","","","","","","","","","","","","","","","","","","","","","","",""
"html-button-response","37","437536","0.0-4.0-1.0-1.5","3","1","zl5xeevl29zt9c3","","17350.90000000596","","What sound did you hear?","1","","","1","INDUCTION-JUDGMENT","right","1","","","","","","","","","","","","","","","","","","","","","","","","","","","","","","","","","","","","",""
"html-keyboard-response","38","438543","0.0-4.0-1.0-2.5","3","1","zl5xeevl29zt9c3","","null","","<p style=""color:green;""><b>Correct!</b></p>","","null","","","","","","","","","","","","","","","","","","","","","","","","","","","","","","","","","","","","","","","","","",""
"audio-keyboard-response","39","439355","0.0-4.0-1.0-0.6","3","1","zl5xeevl29zt9c3","","null","","sounds/induction/left/ge_SWS.wav","","null","","","","","","","","","","","","","","","","","","","","","","","","","","","","","","","","","","","","","","","","","",""
"html-button-response","40","441356","0.0-4.0-1.0-1.6","3","1","zl5xeevl29zt9c3","","2000.5","","What sound did you hear?","1","","","1","INDUCTION-JUDGMENT","left","1","","","","","","","","","","","","","","","","","","","","","","","","","","","","","","","","","","","","",""
"html-keyboard-response","41","442369","0.0-4.0-1.0-2.6","3","1","zl5xeevl29zt9c3","","null","","<p style=""color:green;""><b>Correct!</b></p>","","null","","","","","","","","","","","","","","","","","","","","","","","","","","","","","","","","","","","","","","","","","",""
"audio-keyboard-response","42","443175","0.0-4.0-1.0-0.7","3","1","zl5xeevl29zt9c3","","null","","sounds/induction/right/ni_SWS.wav","","null","","","","","","","","","","","","","","","","","","","","","","","","","","","","","","","","","","","","","","","","","",""
"html-button-response","43","445261","0.0-4.0-1.0-1.7","3","1","zl5xeevl29zt9c3","","2085.899999976158","","What sound did you hear?","0","","","1","INDUCTION-JUDGMENT","right","0","","","","","","","","","","","","","","","","","","","","","","","","","","","","","","","","","","","","",""
"html-keyboard-response","44","446273","0.0-4.0-1.0-2.7","3","1","zl5xeevl29zt9c3","","null","","<p style=""color:green;""><b>Correct!</b></p>","","null","","","","","","","","","","","","","","","","","","","","","","","","","","","","","","","","","","","","","","","","","",""
"audio-keyboard-response","45","447075","0.0-4.0-1.0-0.8","3","1","zl5xeevl29zt9c3","","null","","sounds/induction/left/ni_SWS.wav","","null","","","","","","","","","","","","","","","","","","","","","","","","","","","","","","","","","","","","","","","","","",""
"html-button-response","46","449200","0.0-4.0-1.0-1.8","3","1","zl5xeevl29zt9c3","","2124.300000011921","","What sound did you hear?","1","","","1","INDUCTION-JUDGMENT","left","1","","","","","","","","","","","","","","","","","","","","","","","","","","","","","","","","","","","","",""
"html-keyboard-response","47","450201","0.0-4.0-1.0-2.8","3","1","zl5xeevl29zt9c3","","null","","<p style=""color:green;""><b>Correct!</b></p>","","null","","","","","","","","","","","","","","","","","","","","","","","","","","","","","","","","","","","","","","","","","",""
"audio-keyboard-response","48","450995","0.0-4.0-1.0-0.9","3","1","zl5xeevl29zt9c3","","null","","sounds/induction/left/ta_SWS.wav","","null","","","","","","","","","","","","","","","","","","","","","","","","","","","","","","","","","","","","","","","","","",""
"html-button-response","49","453180","0.0-4.0-1.0-1.9","3","1","zl5xeevl29zt9c3","","2185","","What sound did you hear?","0","","","1","INDUCTION-JUDGMENT","left","0","","","","","","","","","","","","","","","","","","","","","","","","","","","","","","","","","","","","",""
"html-keyboard-response","50","454194","0.0-4.0-1.0-2.9","3","1","zl5xeevl29zt9c3","","null","","<p style=""color:green;""><b>Correct!</b></p>","","null","","","","","","","","","","","","","","","","","","","","","","","","","","","","","","","","","","","","","","","","","",""
"audio-keyboard-response","51","455014","0.0-4.0-1.0-0.10","3","1","zl5xeevl29zt9c3","","null","","sounds/induction/left/ta_SWS.wav","","null","","","","","","","","","","","","","","","","","","","","","","","","","","","","","","","","","","","","","","","","","",""
"html-button-response","52","456615","0.0-4.0-1.0-1.10","3","1","zl5xeevl29zt9c3","","1599.2000000178814","","What sound did you hear?","0","","","1","INDUCTION-JUDGMENT","left","0","","","","","","","","","","","","","","","","","","","","","","","","","","","","","","","","","","","","",""
"html-keyboard-response","53","457633","0.0-4.0-1.0-2.10","3","1","zl5xeevl29zt9c3","","null","","<p style=""color:green;""><b>Correct!</b></p>","","null","","","","","","","","","","","","","","","","","","","","","","","","","","","","","","","","","","","","","","","","","",""
"audio-keyboard-response","54","458465","0.0-4.0-1.0-0.11","3","1","zl5xeevl29zt9c3","","null","","sounds/induction/right/su_SWS.wav","","null","","","","","","","","","","","","","","","","","","","","","","","","","","","","","","","","","","","","","","","","","",""
"html-button-response","55","461716","0.0-4.0-1.0-1.11","3","1","zl5xeevl29zt9c3","","3251.199999988079","","What sound did you hear?","1","","","1","INDUCTION-JUDGMENT","right","1","","","","","","","","","","","","","","","","","","","","","","","","","","","","","","","","","","","","",""
"html-keyboard-response","56","462723","0.0-4.0-1.0-2.11","3","1","zl5xeevl29zt9c3","","null","","<p style=""color:green;""><b>Correct!</b></p>","","null","","","","","","","","","","","","","","","","","","","","","","","","","","","","","","","","","","","","","","","","","",""
"audio-keyboard-response","57","463544","0.0-4.0-1.0-0.12","3","1","zl5xeevl29zt9c3","","null","","sounds/induction/right/re_SWS.wav","","null","","","","","","","","","","","","","","","","","","","","","","","","","","","","","","","","","","","","","","","","","",""
"html-button-response","58","467005","0.0-4.0-1.0-1.12","3","1","zl5xeevl29zt9c3","","3460.5","","What sound did you hear?","0","","","0","INDUCTION-JUDGMENT","right","1","","","","","","","","","","","","","","","","","","","","","","","","","","","","","","","","","","","","",""
"html-keyboard-response","59","468007","0.0-4.0-1.0-2.12","3","1","zl5xeevl29zt9c3","","null","","<p style=""color:red;""><b>Incorrect!</b></p>","","null","","","","","","","","","","","","","","","","","","","","","","","","","","","","","","","","","","","","","","","","","",""
"audio-keyboard-response","60","468824","0.0-4.0-1.0-0.13","3","1","zl5xeevl29zt9c3","","null","","sounds/induction/left/su_SWS.wav","","null","","","","","","","","","","","","","","","","","","","","","","","","","","","","","","","","","","","","","","","","","",""
"html-button-response","61","470704","0.0-4.0-1.0-1.13","3","1","zl5xeevl29zt9c3","","1878.9000000059605","","What sound did you hear?","1","","","0","INDUCTION-JUDGMENT","left","0","","","","","","","","","","","","","","","","","","","","","","","","","","","","","","","","","","","","",""
"html-keyboard-response","62","471710","0.0-4.0-1.0-2.13","3","1","zl5xeevl29zt9c3","","null","","<p style=""color:red;""><b>Incorrect!</b></p>","","null","","","","","","","","","","","","","","","","","","","","","","","","","","","","","","","","","","","","","","","","","",""
"audio-keyboard-response","63","472514","0.0-4.0-1.0-0.14","3","1","zl5xeevl29zt9c3","","null","","sounds/induction/right/ru_SWS.wav","","null","","","","","","","","","","","","","","","","","","","","","","","","","","","","","","","","","","","","","","","","","",""
"html-button-response","64","474108","0.0-4.0-1.0-1.14","3","1","zl5xeevl29zt9c3","","1593","","What sound did you hear?","1","","","1","INDUCTION-JUDGMENT","right","1","","","","","","","","","","","","","","","","","","","","","","","","","","","","","","","","","","","","",""
"html-keyboard-response","65","475123","0.0-4.0-1.0-2.14","3","1","zl5xeevl29zt9c3","","null","","<p style=""color:green;""><b>Correct!</b></p>","","null","","","","","","","","","","","","","","","","","","","","","","","","","","","","","","","","","","","","","","","","","",""
"audio-keyboard-response","66","475934","0.0-4.0-1.0-0.15","3","1","zl5xeevl29zt9c3","","null","","sounds/induction/right/ti_SWS.wav","","null","","","","","","","","","","","","","","","","","","","","","","","","","","","","","","","","","","","","","","","","","",""
"html-button-response","67","478255","0.0-4.0-1.0-1.15","3","1","zl5xeevl29zt9c3","","2320.5","","What sound did you hear?","1","","","1","INDUCTION-JUDGMENT","right","1","","","","","","","","","","","","","","","","","","","","","","","","","","","","","","","","","","","","",""
"html-keyboard-response","68","479261","0.0-4.0-1.0-2.15","3","1","zl5xeevl29zt9c3","","null","","<p style=""color:green;""><b>Correct!</b></p>","","null","","","","","","","","","","","","","","","","","","","","","","","","","","","","","","","","","","","","","","","","","",""
"audio-keyboard-response","69","480064","0.0-4.0-1.0-0.16","3","1","zl5xeevl29zt9c3","","null","","sounds/induction/right/ge_SWS.wav","","null","","","","","","","","","","","","","","","","","","","","","","","","","","","","","","","","","","","","","","","","","",""
"html-button-response","70","481506","0.0-4.0-1.0-1.16","3","1","zl5xeevl29zt9c3","","1439.300000011921","","What sound did you hear?","0","","","1","INDUCTION-JUDGMENT","right","0","","","","","","","","","","","","","","","","","","","","","","","","","","","","","","","","","","","","",""
"html-keyboard-response","71","482523","0.0-4.0-1.0-2.16","3","1","zl5xeevl29zt9c3","","null","","<p style=""color:green;""><b>Correct!</b></p>","","null","","","","","","","","","","","","","","","","","","","","","","","","","","","","","","","","","","","","","","","","","",""
"audio-keyboard-response","72","483334","0.0-4.0-1.0-0.17","3","1","zl5xeevl29zt9c3","","null","","sounds/induction/left/me_SWS.wav","","null","","","","","","","","","","","","","","","","","","","","","","","","","","","","","","","","","","","","","","","","","",""
"html-button-response","73","484771","0.0-4.0-1.0-1.17","3","1","zl5xeevl29zt9c3","","1435.9000000059605","","What sound did you hear?","1","","","1","INDUCTION-JUDGMENT","left","1","","","","","","","","","","","","","","","","","","","","","","","","","","","","","","","","","","","","",""
"html-keyboard-response","74","485773","0.0-4.0-1.0-2.17","3","1","zl5xeevl29zt9c3","","null","","<p style=""color:green;""><b>Correct!</b></p>","","null","","","","","","","","","","","","","","","","","","","","","","","","","","","","","","","","","","","","","","","","","",""
"audio-keyboard-response","75","486584","0.0-4.0-1.0-0.18","3","1","zl5xeevl29zt9c3","","null","","sounds/induction/left/re_SWS.wav","","null","","","","","","","","","","","","","","","","","","","","","","","","","","","","","","","","","","","","","","","","","",""
"html-button-response","76","488701","0.0-4.0-1.0-1.18","3","1","zl5xeevl29zt9c3","","2115.7999999821186","","What sound did you hear?","0","","","1","INDUCTION-JUDGMENT","left","0","","","","","","","","","","","","","","","","","","","","","","","","","","","","","","","","","","","","",""
"html-keyboard-response","77","489713","0.0-4.0-1.0-2.18","3","1","zl5xeevl29zt9c3","","null","","<p style=""color:green;""><b>Correct!</b></p>","","null","","","","","","","","","","","","","","","","","","","","","","","","","","","","","","","","","","","","","","","","","",""
"audio-keyboard-response","78","490534","0.0-4.0-1.0-0.19","3","1","zl5xeevl29zt9c3","","null","","sounds/induction/left/su_SWS.wav","","null","","","","","","","","","","","","","","","","","","","","","","","","","","","","","","","","","","","","","","","","","",""
"html-button-response","79","492953","0.0-4.0-1.0-1.19","3","1","zl5xeevl29zt9c3","","2418","","What sound did you hear?","1","","","0","INDUCTION-JUDGMENT","left","0","","","","","","","","","","","","","","","","","","","","","","","","","","","","","","","","","","","","",""
"html-keyboard-response","80","493973","0.0-4.0-1.0-2.19","3","1","zl5xeevl29zt9c3","","null","","<p style=""color:red;""><b>Incorrect!</b></p>","","null","","","","","","","","","","","","","","","","","","","","","","","","","","","","","","","","","","","","","","","","","",""
"audio-keyboard-response","81","494794","0.0-4.0-1.0-0.20","3","1","zl5xeevl29zt9c3","","null","","sounds/induction/left/pu_SWS.wav","","null","","","","","","","","","","","","","","","","","","","","","","","","","","","","","","","","","","","","","","","","","",""
"html-button-response","82","495720","0.0-4.0-1.0-1.20","3","1","zl5xeevl29zt9c3","","925.4000000059605","","What sound did you hear?","0","","","1","INDUCTION-JUDGMENT","left","0","","","","","","","","","","","","","","","","","","","","","","","","","","","","","","","","","","","","",""
"html-keyboard-response","83","496723","0.0-4.0-1.0-2.20","3","1","zl5xeevl29zt9c3","","null","","<p style=""color:green;""><b>Correct!</b></p>","","null","","","","","","","","","","","","","","","","","","","","","","","","","","","","","","","","","","","","","","","","","",""
"audio-keyboard-response","84","497534","0.0-4.0-1.0-0.21","3","1","zl5xeevl29zt9c3","","null","","sounds/induction/right/fe_SWS.wav","","null","","","","","","","","","","","","","","","","","","","","","","","","","","","","","","","","","","","","","","","","","",""
"html-button-response","85","498733","0.0-4.0-1.0-1.21","3","1","zl5xeevl29zt9c3","","1197.7999999821186","","What sound did you hear?","0","","","1","INDUCTION-JUDGMENT","right","0","","","","","","","","","","","","","","","","","","","","","","","","","","","","","","","","","","","","",""
"html-keyboard-response","86","499743","0.0-4.0-1.0-2.21","3","1","zl5xeevl29zt9c3","","null","","<p style=""color:green;""><b>Correct!</b></p>","","null","","","","","","","","","","","","","","","","","","","","","","","","","","","","","","","","","","","","","","","","","",""
"audio-keyboard-response","87","500544","0.0-4.0-1.0-0.22","3","1","zl5xeevl29zt9c3","","null","","sounds/induction/right/pu_SWS.wav","","null","","","","","","","","","","","","","","","","","","","","","","","","","","","","","","","","","","","","","","","","","",""
"html-button-response","88","502292","0.0-4.0-1.0-1.22","3","1","zl5xeevl29zt9c3","","1747.5","","What sound did you hear?","1","","","1","INDUCTION-JUDGMENT","right","1","","","","","","","","","","","","","","","","","","","","","","","","","","","","","","","","","","","","",""
"html-keyboard-response","89","503303","0.0-4.0-1.0-2.22","3","1","zl5xeevl29zt9c3","","null","","<p style=""color:green;""><b>Correct!</b></p>","","null","","","","","","","","","","","","","","","","","","","","","","","","","","","","","","","","","","","","","","","","","",""
"audio-keyboard-response","90","504114","0.0-4.0-1.0-0.23","3","1","zl5xeevl29zt9c3","","null","","sounds/induction/left/fe_SWS.wav","","null","","","","","","","","","","","","","","","","","","","","","","","","","","","","","","","","","","","","","","","","","",""
"html-button-response","91","506254","0.0-4.0-1.0-1.23","3","1","zl5xeevl29zt9c3","","2139.300000011921","","What sound did you hear?","1","","","1","INDUCTION-JUDGMENT","left","1","","","","","","","","","","","","","","","","","","","","","","","","","","","","","","","","","","","","",""
"html-keyboard-response","92","507273","0.0-4.0-1.0-2.23","3","1","zl5xeevl29zt9c3","","null","","<p style=""color:green;""><b>Correct!</b></p>","","null","","","","","","","","","","","","","","","","","","","","","","","","","","","","","","","","","","","","","","","","","",""
"audio-keyboard-response","93","508075","0.0-4.0-1.0-0.24","3","1","zl5xeevl29zt9c3","","null","","sounds/induction/left/fu_SWS.wav","","null","","","","","","","","","","","","","","","","","","","","","","","","","","","","","","","","","","","","","","","","","",""
"html-button-response","94","509284","0.0-4.0-1.0-1.24","3","1","zl5xeevl29zt9c3","","1208.5999999940395","","What sound did you hear?","1","","","1","INDUCTION-JUDGMENT","left","1","","","","","","","","","","","","","","","","","","","","","","","","","","","","","","","","","","","","",""
"html-keyboard-response","95","510292","0.0-4.0-1.0-2.24","3","1","zl5xeevl29zt9c3","","null","","<p style=""color:green;""><b>Correct!</b></p>","","null","","","","","","","","","","","","","","","","","","","","","","","","","","","","","","","","","","","","","","","","","",""
"audio-keyboard-response","96","511095","0.0-4.0-1.0-0.25","3","1","zl5xeevl29zt9c3","","null","","sounds/induction/left/ti_SWS.wav","","null","","","","","","","","","","","","","","","","","","","","","","","","","","","","","","","","","","","","","","","","","",""
"html-button-response","97","512121","0.0-4.0-1.0-1.25","3","1","zl5xeevl29zt9c3","","1025.7999999821186","","What sound did you hear?","0","","","1","INDUCTION-JUDGMENT","left","0","","","","","","","","","","","","","","","","","","","","","","","","","","","","","","","","","","","","",""
"html-keyboard-response","98","513124","0.0-4.0-1.0-2.25","3","1","zl5xeevl29zt9c3","","null","","<p style=""color:green;""><b>Correct!</b></p>","","null","","","","","","","","","","","","","","","","","","","","","","","","","","","","","","","","","","","","","","","","","",""
"audio-keyboard-response","99","513934","0.0-4.0-1.0-0.26","3","1","zl5xeevl29zt9c3","","null","","sounds/induction/right/ti_SWS.wav","","null","","","","","","","","","","","","","","","","","","","","","","","","","","","","","","","","","","","","","","","","","",""
"html-button-response","100","515071","0.0-4.0-1.0-1.26","3","1","zl5xeevl29zt9c3","","1136.0999999940395","","What sound did you hear?","1","","","1","INDUCTION-JUDGMENT","right","1","","","","","","","","","","","","","","","","","","","","","","","","","","","","","","","","","","","","",""
"html-keyboard-response","101","516072","0.0-4.0-1.0-2.26","3","1","zl5xeevl29zt9c3","","null","","<p style=""color:green;""><b>Correct!</b></p>","","null","","","","","","","","","","","","","","","","","","","","","","","","","","","","","","","","","","","","","","","","","",""
"audio-keyboard-response","102","516875","0.0-4.0-1.0-0.27","3","1","zl5xeevl29zt9c3","","null","","sounds/induction/right/ni_SWS.wav","","null","","","","","","","","","","","","","","","","","","","","","","","","","","","","","","","","","","","","","","","","","",""
"html-button-response","103","518517","0.0-4.0-1.0-1.27","3","1","zl5xeevl29zt9c3","","1642.0999999940395","","What sound did you hear?","0","","","1","INDUCTION-JUDGMENT","right","0","","","","","","","","","","","","","","","","","","","","","","","","","","","","","","","","","","","","",""
"html-keyboard-response","104","519523","0.0-4.0-1.0-2.27","3","1","zl5xeevl29zt9c3","","null","","<p style=""color:green;""><b>Correct!</b></p>","","null","","","","","","","","","","","","","","","","","","","","","","","","","","","","","","","","","","","","","","","","","",""
"audio-keyboard-response","105","520314","0.0-4.0-1.0-0.28","3","1","zl5xeevl29zt9c3","","null","","sounds/induction/left/fe_SWS.wav","","null","","","","","","","","","","","","","","","","","","","","","","","","","","","","","","","","","","","","","","","","","",""
"html-button-response","106","521708","0.0-4.0-1.0-1.28","3","1","zl5xeevl29zt9c3","","1398.0999999940395","","What sound did you hear?","1","","","1","INDUCTION-JUDGMENT","left","1","","","","","","","","","","","","","","","","","","","","","","","","","","","","","","","","","","","","",""
"html-keyboard-response","107","522722","0.0-4.0-1.0-2.28","3","1","zl5xeevl29zt9c3","","null","","<p style=""color:green;""><b>Correct!</b></p>","","null","","","","","","","","","","","","","","","","","","","","","","","","","","","","","","","","","","","","","","","","","",""
"audio-keyboard-response","108","523530","0.0-4.0-1.0-0.29","3","1","zl5xeevl29zt9c3","","null","","sounds/induction/left/ni_SWS.wav","","null","","","","","","","","","","","","","","","","","","","","","","","","","","","","","","","","","","","","","","","","","",""
"html-button-response","109","524769","0.0-4.0-1.0-1.29","3","1","zl5xeevl29zt9c3","","1238.8999999761581","","What sound did you hear?","1","","","1","INDUCTION-JUDGMENT","left","1","","","","","","","","","","","","","","","","","","","","","","","","","","","","","","","","","","","","",""
"html-keyboard-response","110","525789","0.0-4.0-1.0-2.29","3","1","zl5xeevl29zt9c3","","null","","<p style=""color:green;""><b>Correct!</b></p>","","null","","","","","","","","","","","","","","","","","","","","","","","","","","","","","","","","","","","","","","","","","",""
"audio-keyboard-response","111","526620","0.0-4.0-1.0-0.30","3","1","zl5xeevl29zt9c3","","null","","sounds/induction/right/ko_SWS.wav","","null","","","","","","","","","","","","","","","","","","","","","","","","","","","","","","","","","","","","","","","","","",""
"html-button-response","112","527800","0.0-4.0-1.0-1.30","3","1","zl5xeevl29zt9c3","","1179.4000000059605","","What sound did you hear?","0","","","1","INDUCTION-JUDGMENT","right","0","","","","","","","","","","","","","","","","","","","","","","","","","","","","","","","","","","","","",""
"html-keyboard-response","113","528809","0.0-4.0-1.0-2.30","3","1","zl5xeevl29zt9c3","","null","","<p style=""color:green;""><b>Correct!</b></p>","","null","","","","","","","","","","","","","","","","","","","","","","","","","","","","","","","","","","","","","","","","","",""
"audio-keyboard-response","114","529620","0.0-4.0-1.0-0.31","3","1","zl5xeevl29zt9c3","","null","","sounds/induction/right/fu_SWS.wav","","null","","","","","","","","","","","","","","","","","","","","","","","","","","","","","","","","","","","","","","","","","",""
"html-button-response","115","531058","0.0-4.0-1.0-1.31","3","1","zl5xeevl29zt9c3","","1437","","What sound did you hear?","1","","","0","INDUCTION-JUDGMENT","right","0","","","","","","","","","","","","","","","","","","","","","","","","","","","","","","","","","","","","",""
"html-keyboard-response","116","532079","0.0-4.0-1.0-2.31","3","1","zl5xeevl29zt9c3","","null","","<p style=""color:red;""><b>Incorrect!</b></p>","","null","","","","","","","","","","","","","","","","","","","","","","","","","","","","","","","","","","","","","","","","","",""
"audio-keyboard-response","117","532890","0.0-4.0-1.0-0.32","3","1","zl5xeevl29zt9c3","","null","","sounds/induction/right/ko_SWS.wav","","null","","","","","","","","","","","","","","","","","","","","","","","","","","","","","","","","","","","","","","","","","",""
"html-button-response","118","534845","0.0-4.0-1.0-1.32","3","1","zl5xeevl29zt9c3","","1954.699999988079","","What sound did you hear?","0","","","1","INDUCTION-JUDGMENT","right","0","","","","","","","","","","","","","","","","","","","","","","","","","","","","","","","","","","","","",""
"html-keyboard-response","119","535848","0.0-4.0-1.0-2.32","3","1","zl5xeevl29zt9c3","","null","","<p style=""color:green;""><b>Correct!</b></p>","","null","","","","","","","","","","","","","","","","","","","","","","","","","","","","","","","","","","","","","","","","","",""
"audio-keyboard-response","120","536660","0.0-4.0-1.0-0.33","3","1","zl5xeevl29zt9c3","","null","","sounds/induction/left/re_SWS.wav","","null","","","","","","","","","","","","","","","","","","","","","","","","","","","","","","","","","","","","","","","","","",""
"html-button-response","121","539108","0.0-4.0-1.0-1.33","3","1","zl5xeevl29zt9c3","","2447.699999988079","","What sound did you hear?","1","","","0","INDUCTION-JUDGMENT","left","0","","","","","","","","","","","","","","","","","","","","","","","","","","","","","","","","","","","","",""
"html-keyboard-response","122","540110","0.0-4.0-1.0-2.33","3","1","zl5xeevl29zt9c3","","null","","<p style=""color:red;""><b>Incorrect!</b></p>","","null","","","","","","","","","","","","","","","","","","","","","","","","","","","","","","","","","","","","","","","","","",""
"audio-keyboard-response","123","540910","0.0-4.0-1.0-0.34","3","1","zl5xeevl29zt9c3","","null","","sounds/induction/right/ta_SWS.wav","","null","","","","","","","","","","","","","","","","","","","","","","","","","","","","","","","","","","","","","","","","","",""
"html-button-response","124","542002","0.0-4.0-1.0-1.34","3","1","zl5xeevl29zt9c3","","1091.5999999940395","","What sound did you hear?","1","","","1","INDUCTION-JUDGMENT","right","1","","","","","","","","","","","","","","","","","","","","","","","","","","","","","","","","","","","","",""
"html-keyboard-response","125","543019","0.0-4.0-1.0-2.34","3","1","zl5xeevl29zt9c3","","null","","<p style=""color:green;""><b>Correct!</b></p>","","null","","","","","","","","","","","","","","","","","","","","","","","","","","","","","","","","","","","","","","","","","",""
"audio-keyboard-response","126","543829","0.0-4.0-1.0-0.35","3","1","zl5xeevl29zt9c3","","null","","sounds/induction/right/pu_SWS.wav","","null","","","","","","","","","","","","","","","","","","","","","","","","","","","","","","","","","","","","","","","","","",""
"html-button-response","127","545045","0.0-4.0-1.0-1.35","3","1","zl5xeevl29zt9c3","","1215.2999999821186","","What sound did you hear?","1","","","1","INDUCTION-JUDGMENT","right","1","","","","","","","","","","","","","","","","","","","","","","","","","","","","","","","","","","","","",""
"html-keyboard-response","128","546049","0.0-4.0-1.0-2.35","3","1","zl5xeevl29zt9c3","","null","","<p style=""color:green;""><b>Correct!</b></p>","","null","","","","","","","","","","","","","","","","","","","","","","","","","","","","","","","","","","","","","","","","","",""
"audio-keyboard-response","129","546860","0.0-4.0-1.0-0.36","3","1","zl5xeevl29zt9c3","","null","","sounds/induction/left/me_SWS.wav","","null","","","","","","","","","","","","","","","","","","","","","","","","","","","","","","","","","","","","","","","","","",""
"html-button-response","130","548575","0.0-4.0-1.0-1.36","3","1","zl5xeevl29zt9c3","","1713.7999999821186","","What sound did you hear?","1","","","1","INDUCTION-JUDGMENT","left","1","","","","","","","","","","","","","","","","","","","","","","","","","","","","","","","","","","","","",""
"html-keyboard-response","131","549587","0.0-4.0-1.0-2.36","3","1","zl5xeevl29zt9c3","","null","","<p style=""color:green;""><b>Correct!</b></p>","","null","","","","","","","","","","","","","","","","","","","","","","","","","","","","","","","","","","","","","","","","","",""
"audio-keyboard-response","132","550380","0.0-4.0-1.0-0.37","3","1","zl5xeevl29zt9c3","","null","","sounds/induction/left/ge_SWS.wav","","null","","","","","","","","","","","","","","","","","","","","","","","","","","","","","","","","","","","","","","","","","",""
"html-button-response","133","551438","0.0-4.0-1.0-1.37","3","1","zl5xeevl29zt9c3","","1058","","What sound did you hear?","1","","","1","INDUCTION-JUDGMENT","left","1","","","","","","","","","","","","","","","","","","","","","","","","","","","","","","","","","","","","",""
"html-keyboard-response","134","552459","0.0-4.0-1.0-2.37","3","1","zl5xeevl29zt9c3","","null","","<p style=""color:green;""><b>Correct!</b></p>","","null","","","","","","","","","","","","","","","","","","","","","","","","","","","","","","","","","","","","","","","","","",""
"audio-keyboard-response","135","553270","0.0-4.0-1.0-0.38","3","1","zl5xeevl29zt9c3","","null","","sounds/induction/right/ru_SWS.wav","","null","","","","","","","","","","","","","","","","","","","","","","","","","","","","","","","","","","","","","","","","","",""
"html-button-response","136","554591","0.0-4.0-1.0-1.38","3","1","zl5xeevl29zt9c3","","1320.300000011921","","What sound did you hear?","1","","","1","INDUCTION-JUDGMENT","right","1","","","","","","","","","","","","","","","","","","","","","","","","","","","","","","","","","","","","",""
"html-keyboard-response","137","555609","0.0-4.0-1.0-2.38","3","1","zl5xeevl29zt9c3","","null","","<p style=""color:green;""><b>Correct!</b></p>","","null","","","","","","","","","","","","","","","","","","","","","","","","","","","","","","","","","","","","","","","","","",""
"audio-keyboard-response","138","556420","0.0-4.0-1.0-0.39","3","1","zl5xeevl29zt9c3","","null","","sounds/induction/left/fu_SWS.wav","","null","","","","","","","","","","","","","","","","","","","","","","","","","","","","","","","","","","","","","","","","","",""
"html-button-response","139","558480","0.0-4.0-1.0-1.39","3","1","zl5xeevl29zt9c3","","2060","","What sound did you hear?","1","","","1","INDUCTION-JUDGMENT","left","1","","","","","","","","","","","","","","","","","","","","","","","","","","","","","","","","","","","","",""
"html-keyboard-response","140","559487","0.0-4.0-1.0-2.39","3","1","zl5xeevl29zt9c3","","null","","<p style=""color:green;""><b>Correct!</b></p>","","null","","","","","","","","","","","","","","","","","","","","","","","","","","","","","","","","","","","","","","","","","",""
"audio-keyboard-response","141","560290","0.0-4.0-1.0-0.40","3","1","zl5xeevl29zt9c3","","null","","sounds/induction/right/ge_SWS.wav","","null","","","","","","","","","","","","","","","","","","","","","","","","","","","","","","","","","","","","","","","","","",""
"html-button-response","142","561543","0.0-4.0-1.0-1.40","3","1","zl5xeevl29zt9c3","","1252.0999999940395","","What sound did you hear?","0","","","1","INDUCTION-JUDGMENT","right","0","","","","","","","","","","","","","","","","","","","","","","","","","","","","","","","","","","","","",""
"html-keyboard-response","143","562549","0.0-4.0-1.0-2.40","3","1","zl5xeevl29zt9c3","","null","","<p style=""color:green;""><b>Correct!</b></p>","","null","","","","","","","","","","","","","","","","","","","","","","","","","","","","","","","","","","","","","","","","","",""
"audio-keyboard-response","144","563350","0.0-4.0-1.0-0.41","3","1","zl5xeevl29zt9c3","","null","","sounds/induction/left/ru_SWS.wav","","null","","","","","","","","","","","","","","","","","","","","","","","","","","","","","","","","","","","","","","","","","",""
"html-button-response","145","564526","0.0-4.0-1.0-1.41","3","1","zl5xeevl29zt9c3","","1175","","What sound did you hear?","0","","","1","INDUCTION-JUDGMENT","left","0","","","","","","","","","","","","","","","","","","","","","","","","","","","","","","","","","","","","",""
"html-keyboard-response","146","565529","0.0-4.0-1.0-2.41","3","1","zl5xeevl29zt9c3","","null","","<p style=""color:green;""><b>Correct!</b></p>","","null","","","","","","","","","","","","","","","","","","","","","","","","","","","","","","","","","","","","","","","","","",""
"audio-keyboard-response","147","566340","0.0-4.0-1.0-0.42","3","1","zl5xeevl29zt9c3","","null","","sounds/induction/right/me_SWS.wav","","null","","","","","","","","","","","","","","","","","","","","","","","","","","","","","","","","","","","","","","","","","",""
"html-button-response","148","567231","0.0-4.0-1.0-1.42","3","1","zl5xeevl29zt9c3","","890.1000000238419","","What sound did you hear?","0","","","1","INDUCTION-JUDGMENT","right","0","","","","","","","","","","","","","","","","","","","","","","","","","","","","","","","","","","","","",""
"html-keyboard-response","149","568249","0.0-4.0-1.0-2.42","3","1","zl5xeevl29zt9c3","","null","","<p style=""color:green;""><b>Correct!</b></p>","","null","","","","","","","","","","","","","","","","","","","","","","","","","","","","","","","","","","","","","","","","","",""
"audio-keyboard-response","150","569060","0.0-4.0-1.0-0.43","3","1","zl5xeevl29zt9c3","","null","","sounds/induction/left/ko_SWS.wav","","null","","","","","","","","","","","","","","","","","","","","","","","","","","","","","","","","","","","","","","","","","",""
"html-button-response","151","570434","0.0-4.0-1.0-1.43","3","1","zl5xeevl29zt9c3","","1373.5999999940395","","What sound did you hear?","1","","","1","INDUCTION-JUDGMENT","left","1","","","","","","","","","","","","","","","","","","","","","","","","","","","","","","","","","","","","",""
"html-keyboard-response","152","571439","0.0-4.0-1.0-2.43","3","1","zl5xeevl29zt9c3","","null","","<p style=""color:green;""><b>Correct!</b></p>","","null","","","","","","","","","","","","","","","","","","","","","","","","","","","","","","","","","","","","","","","","","",""
"audio-keyboard-response","153","572250","0.0-4.0-1.0-0.44","3","1","zl5xeevl29zt9c3","","null","","sounds/induction/left/ko_SWS.wav","","null","","","","","","","","","","","","","","","","","","","","","","","","","","","","","","","","","","","","","","","","","",""
"html-button-response","154","573667","0.0-4.0-1.0-1.44","3","1","zl5xeevl29zt9c3","","1416.199999988079","","What sound did you hear?","1","","","1","INDUCTION-JUDGMENT","left","1","","","","","","","","","","","","","","","","","","","","","","","","","","","","","","","","","","","","",""
"html-keyboard-response","155","574668","0.0-4.0-1.0-2.44","3","1","zl5xeevl29zt9c3","","null","","<p style=""color:green;""><b>Correct!</b></p>","","null","","","","","","","","","","","","","","","","","","","","","","","","","","","","","","","","","","","","","","","","","",""
"audio-keyboard-response","156","575470","0.0-4.0-1.0-0.45","3","1","zl5xeevl29zt9c3","","null","","sounds/induction/left/ru_SWS.wav","","null","","","","","","","","","","","","","","","","","","","","","","","","","","","","","","","","","","","","","","","","","",""
"html-button-response","157","576611","0.0-4.0-1.0-1.45","3","1","zl5xeevl29zt9c3","","1140.199999988079","","What sound did you hear?","0","","","1","INDUCTION-JUDGMENT","left","0","","","","","","","","","","","","","","","","","","","","","","","","","","","","","","","","","","","","",""
"html-keyboard-response","158","577619","0.0-4.0-1.0-2.45","3","1","zl5xeevl29zt9c3","","null","","<p style=""color:green;""><b>Correct!</b></p>","","null","","","","","","","","","","","","","","","","","","","","","","","","","","","","","","","","","","","","","","","","","",""
"audio-keyboard-response","159","578430","0.0-4.0-1.0-0.46","3","1","zl5xeevl29zt9c3","","null","","sounds/induction/left/ti_SWS.wav","","null","","","","","","","","","","","","","","","","","","","","","","","","","","","","","","","","","","","","","","","","","",""
"html-button-response","160","579464","0.0-4.0-1.0-1.46","3","1","zl5xeevl29zt9c3","","1033.4000000059605","","What sound did you hear?","0","","","1","INDUCTION-JUDGMENT","left","0","","","","","","","","","","","","","","","","","","","","","","","","","","","","","","","","","","","","",""
"html-keyboard-response","161","580474","0.0-4.0-1.0-2.46","3","1","zl5xeevl29zt9c3","","null","","<p style=""color:green;""><b>Correct!</b></p>","","null","","","","","","","","","","","","","","","","","","","","","","","","","","","","","","","","","","","","","","","","","",""
"audio-keyboard-response","162","581304","0.0-4.0-1.0-0.47","3","1","zl5xeevl29zt9c3","","null","","sounds/induction/right/me_SWS.wav","","null","","","","","","","","","","","","","","","","","","","","","","","","","","","","","","","","","","","","","","","","","",""
"html-button-response","163","582399","0.0-4.0-1.0-1.47","3","1","zl5xeevl29zt9c3","","1093.7000000178814","","What sound did you hear?","0","","","1","INDUCTION-JUDGMENT","right","0","","","","","","","","","","","","","","","","","","","","","","","","","","","","","","","","","","","","",""
"html-keyboard-response","164","583403","0.0-4.0-1.0-2.47","3","1","zl5xeevl29zt9c3","","null","","<p style=""color:green;""><b>Correct!</b></p>","","null","","","","","","","","","","","","","","","","","","","","","","","","","","","","","","","","","","","","","","","","","",""
"html-button-response","165","597247","0.0-5.0-0.0","3","1","zl5xeevl29zt9c3","","13330.899999976158","","<p>Thank you for your answers.</p><p>You will now listen to similar sounds. The main difference is that the sounds will be longer and will make up complete sentences.</p><p>Please listen carefully to each sentence. After each sentence, you will be asked to type back what you heard to the best of your ability. After you provide your response, you will be given feedback about the correct answer.</p><p>There are 10 sentences in total.","0","","","","","","","","","","","","","","","","","","","","","","","","","","","","","","","","","","","","","","","","","","",""
"audio-keyboard-response","166","600004","0.0-5.0-1.0-0.0","3","1","zl5xeevl29zt9c3","","null","","sounds/sentences/right/14_08_cfSWS.wav","","null","","","","","","","","","","","","","","","","","","","","","","","","","","","","","","","","","","","","","","","","","",""
"sentence-resp","167","609930","0.0-5.0-1.0-1.0","3","1","zl5xeevl29zt9c3","","9923","","","","","","","SWS-SENT-RESPONSE","","","{""Q0"":""Do you want to come with?""}","Clothes and lodging are free to new men.","clothes,lodging,free,new,men","DO YOU WANT TO COME WITH","0","0","0","0","0","0","0","","","","","","","","","","","","","","","","","","","","","","","","","",""
"html-keyboard-response","168","611203","0.0-5.0-1.0-2.0","3","1","zl5xeevl29zt9c3","","null","","","","null","","","","","","","","","","","","","","","","","","","","","","","","","","","","","","","","","","","","","","","","","",""
"audio-keyboard-response","169","613464","0.0-5.0-1.0-3.0","3","1","zl5xeevl29zt9c3","","null","","sounds/sentences/right/14_08_cfSWS.wav","","null","","","","","","","","","","","","","","","","","","","","","","","","","","","","","","","","","","","","","","","","","",""
"html-keyboard-response","170","614484","0.0-5.0-1.0-4.0","3","1","zl5xeevl29zt9c3","","null","","","","null","","","","","","","","","","","","","","","","","","","","","","","","","","","","","","","","","","","","","","","","","",""
"html-button-response","171","630076","0.0-5.0-1.0-5.0","3","1","zl5xeevl29zt9c3","","15081.600000023842","","<p>Press the button below when you are ready to continue.</p>","0","","","","","","","","","","","","","","","","","","","","","","","","","","","","","","","","","","","","","","","","","","",""
"audio-keyboard-response","172","633194","0.0-5.0-1.0-0.1","3","1","zl5xeevl29zt9c3","","null","","sounds/sentences/left/14_01_cfSWS.wav","","null","","","","","","","","","","","","","","","","","","","","","","","","","","","","","","","","","","","","","","","","","",""
"sentence-resp","173","650375","0.0-5.0-1.0-1.1","3","1","zl5xeevl29zt9c3","","17180","","","","","","","SWS-SENT-RESPONSE","","","{""Q0"":""Do you want to go to the mall for a swim?""}","A cramp is no small danger on a swim.","cramp,no,small,danger,swim","DO YOU WANT TO GO TO THE MALL FOR A SWIM","0","0","0","0","1","1","0.2","","","","","","","","","","","","","","","","","","","","","","","","","",""
"html-keyboard-response","174","651662","0.0-5.0-1.0-2.1","3","1","zl5xeevl29zt9c3","","null","","","","null","","","","","","","","","","","","","","","","","","","","","","","","","","","","","","","","","","","","","","","","","",""
"audio-keyboard-response","175","654273","0.0-5.0-1.0-3.1","3","1","zl5xeevl29zt9c3","","null","","sounds/sentences/left/14_01_cfSWS.wav","","null","","","","","","","","","","","","","","","","","","","","","","","","","","","","","","","","","","","","","","","","","",""
"html-keyboard-response","176","655283","0.0-5.0-1.0-4.1","3","1","zl5xeevl29zt9c3","","null","","","","null","","","","","","","","","","","","","","","","","","","","","","","","","","","","","","","","","","","","","","","","","",""
"html-button-response","177","658465","0.0-5.0-1.0-5.1","3","1","zl5xeevl29zt9c3","","2681.5999999940395","","<p>Press the button below when you are ready to continue.</p>","0","","","","","","","","","","","","","","","","","","","","","","","","","","","","","","","","","","","","","","","","","","",""
"audio-keyboard-response","178","661484","0.0-5.0-1.0-0.2","3","1","zl5xeevl29zt9c3","","null","","sounds/sentences/right/14_10_cfSWS.wav","","null","","","","","","","","","","","","","","","","","","","","","","","","","","","","","","","","","","","","","","","","","",""
"sentence-resp","179","675677","0.0-5.0-1.0-1.2","3","1","zl5xeevl29zt9c3","","14191","","","","","","","SWS-SENT-RESPONSE","","","{""Q0"":""A strong smile for a taste""}","Port is a strong wine with a smoky taste.","port,strong,wine,smoky,taste","A STRONG SMILE FOR A TASTE","0","1","0","0","1","2","0.4","","","","","","","","","","","","","","","","","","","","","","","","","",""
"html-keyboard-response","180","676942","0.0-5.0-1.0-2.2","3","1","zl5xeevl29zt9c3","","null","","","","null","","","","","","","","","","","","","","","","","","","","","","","","","","","","","","","","","","","","","","","","","",""
"audio-keyboard-response","181","679454","0.0-5.0-1.0-3.2","3","1","zl5xeevl29zt9c3","","null","","sounds/sentences/right/14_10_cfSWS.wav","","null","","","","","","","","","","","","","","","","","","","","","","","","","","","","","","","","","","","","","","","","","",""
"html-keyboard-response","182","680463","0.0-5.0-1.0-4.2","3","1","zl5xeevl29zt9c3","","null","","","","null","","","","","","","","","","","","","","","","","","","","","","","","","","","","","","","","","","","","","","","","","",""
"html-button-response","183","696727","0.0-5.0-1.0-5.2","3","1","zl5xeevl29zt9c3","","15743.5","","<p>Press the button below when you are ready to continue.</p>","0","","","","","","","","","","","","","","","","","","","","","","","","","","","","","","","","","","","","","","","","","","",""
"audio-keyboard-response","184","699303","0.0-5.0-1.0-0.3","3","1","zl5xeevl29zt9c3","","null","","sounds/sentences/left/14_04_cfSWS.wav","","null","","","","","","","","","","","","","","","","","","","","","","","","","","","","","","","","","","","","","","","","","",""
"sentence-resp","185","717546","0.0-5.0-1.0-1.3","3","1","zl5xeevl29zt9c3","","18241","","","","","","","SWS-SENT-RESPONSE","","","{""Q0"":""You're supposed to know it's less than ten""}","Two plus seven is less than ten.","two,plus,seven,less,ten","YOU'RE SUPPOSED TO KNOW IT'S LESS THAN TEN","0","0","0","1","1","2","0.4","","","","","","","","","","","","","","","","","","","","","","","","","",""
"html-keyboard-response","186","718810","0.0-5.0-1.0-2.3","3","1","zl5xeevl29zt9c3","","null","","","","null","","","","","","","","","","","","","","","","","","","","","","","","","","","","","","","","","","","","","","","","","",""
"audio-keyboard-response","187","720865","0.0-5.0-1.0-3.3","3","1","zl5xeevl29zt9c3","","null","","sounds/sentences/left/14_04_cfSWS.wav","","null","","","","","","","","","","","","","","","","","","","","","","","","","","","","","","","","","","","","","","","","","",""
"html-keyboard-response","188","721873","0.0-5.0-1.0-4.3","3","1","zl5xeevl29zt9c3","","null","","","","null","","","","","","","","","","","","","","","","","","","","","","","","","","","","","","","","","","","","","","","","","",""
"html-button-response","189","723438","0.0-5.0-1.0-5.3","3","1","zl5xeevl29zt9c3","","1057.699999988079","","<p>Press the button below when you are ready to continue.</p>","0","","","","","","","","","","","","","","","","","","","","","","","","","","","","","","","","","","","","","","","","","","",""
"audio-keyboard-response","190","726444","0.0-5.0-1.0-0.4","3","1","zl5xeevl29zt9c3","","null","","sounds/sentences/left/14_05_cfSWS.wav","","null","","","","","","","","","","","","","","","","","","","","","","","","","","","","","","","","","","","","","","","","","",""
"sentence-resp","191","739376","0.0-5.0-1.0-1.4","3","1","zl5xeevl29zt9c3","","12930","","","","","","","SWS-SENT-RESPONSE","","","{""Q0"":""He looked deeply into the eyes of the sweet girl\n""}","The glow deepened in the eyes of the sweet girl.","glow,deepened,eyes,sweet,girl","HE LOOKED DEEPLY INTO THE EYES OF THE SWEET GIRL ","0","0","1","1","1","3","0.6","","","","","","","","","","","","","","","","","","","","","","","","","",""
"html-keyboard-response","192","740642","0.0-5.0-1.0-2.4","3","1","zl5xeevl29zt9c3","","null","","","","null","","","","","","","","","","","","","","","","","","","","","","","","","","","","","","","","","","","","","","","","","",""
"audio-keyboard-response","193","743125","0.0-5.0-1.0-3.4","3","1","zl5xeevl29zt9c3","","null","","sounds/sentences/left/14_05_cfSWS.wav","","null","","","","","","","","","","","","","","","","","","","","","","","","","","","","","","","","","","","","","","","","","",""
"html-keyboard-response","194","744143","0.0-5.0-1.0-4.4","3","1","zl5xeevl29zt9c3","","null","","","","null","","","","","","","","","","","","","","","","","","","","","","","","","","","","","","","","","","","","","","","","","",""
"html-button-response","195","745571","0.0-5.0-1.0-5.4","3","1","zl5xeevl29zt9c3","","925.6999999880791","","<p>Press the button below when you are ready to continue.</p>","0","","","","","","","","","","","","","","","","","","","","","","","","","","","","","","","","","","","","","","","","","","",""
"audio-keyboard-response","196","748314","0.0-5.0-1.0-0.5","3","1","zl5xeevl29zt9c3","","null","","sounds/sentences/right/14_09_cfSWS.wav","","null","","","","","","","","","","","","","","","","","","","","","","","","","","","","","","","","","","","","","","","","","",""
"sentence-resp","197","756316","0.0-5.0-1.0-1.5","3","1","zl5xeevl29zt9c3","","8000","","","","","","","SWS-SENT-RESPONSE","","","{""Q0"":""We found the answers""}","We frown when events take a bad turn.","frown,events,take,bad,turn","WE FOUND THE ANSWERS","0","0","0","0","0","0","0","","","","","","","","","","","","","","","","","","","","","","","","","",""
"html-keyboard-response","198","757594","0.0-5.0-1.0-2.5","3","1","zl5xeevl29zt9c3","","null","","","","null","","","","","","","","","","","","","","","","","","","","","","","","","","","","","","","","","","","","","","","","","",""
"audio-keyboard-response","199","759824","0.0-5.0-1.0-3.5","3","1","zl5xeevl29zt9c3","","null","","sounds/sentences/right/14_09_cfSWS.wav","","null","","","","","","","","","","","","","","","","","","","","","","","","","","","","","","","","","","","","","","","","","",""
"html-keyboard-response","200","760834","0.0-5.0-1.0-4.5","3","1","zl5xeevl29zt9c3","","null","","","","null","","","","","","","","","","","","","","","","","","","","","","","","","","","","","","","","","","","","","","","","","",""
"html-button-response","201","762622","0.0-5.0-1.0-5.5","3","1","zl5xeevl29zt9c3","","1267.5","","<p>Press the button below when you are ready to continue.</p>","0","","","","","","","","","","","","","","","","","","","","","","","","","","","","","","","","","","","","","","","","","","",""
"audio-keyboard-response","202","765384","0.0-5.0-1.0-0.6","3","1","zl5xeevl29zt9c3","","null","","sounds/sentences/right/14_06_cfSWS.wav","","null","","","","","","","","","","","","","","","","","","","","","","","","","","","","","","","","","","","","","","","","","",""
"sentence-resp","203","778478","0.0-5.0-1.0-1.6","3","1","zl5xeevl29zt9c3","","13092","","","","","","","SWS-SENT-RESPONSE","","","{""Q0"":""3 years of problems for the wise chief""}","Bring your problems to the wise chief.","bring,your,problems,wise,chief","3 YEARS OF PROBLEMS FOR THE WISE CHIEF","0","0","1","1","1","3","0.6","","","","","","","","","","","","","","","","","","","","","","","","","",""
"html-keyboard-response","204","779753","0.0-5.0-1.0-2.6","3","1","zl5xeevl29zt9c3","","null","","","","null","","","","","","","","","","","","","","","","","","","","","","","","","","","","","","","","","","","","","","","","","",""
"audio-keyboard-response","205","782004","0.0-5.0-1.0-3.6","3","1","zl5xeevl29zt9c3","","null","","sounds/sentences/right/14_06_cfSWS.wav","","null","","","","","","","","","","","","","","","","","","","","","","","","","","","","","","","","","","","","","","","","","",""
"html-keyboard-response","206","783013","0.0-5.0-1.0-4.6","3","1","zl5xeevl29zt9c3","","null","","","","null","","","","","","","","","","","","","","","","","","","","","","","","","","","","","","","","","","","","","","","","","",""
"html-button-response","207","784706","0.0-5.0-1.0-5.6","3","1","zl5xeevl29zt9c3","","1187.2000000178814","","<p>Press the button below when you are ready to continue.</p>","0","","","","","","","","","","","","","","","","","","","","","","","","","","","","","","","","","","","","","","","","","","",""
"audio-keyboard-response","208","787604","0.0-5.0-1.0-0.7","3","1","zl5xeevl29zt9c3","","null","","sounds/sentences/right/14_07_cfSWS.wav","","null","","","","","","","","","","","","","","","","","","","","","","","","","","","","","","","","","","","","","","","","","",""
"sentence-resp","209","807359","0.0-5.0-1.0-1.7","3","1","zl5xeevl29zt9c3","","19753","","","","","","","SWS-SENT-RESPONSE","","","{""Q0"":""Describe your problems to the friends you cherish""}","Write a fond note to the friend you cherish.","write,fond,note,friend,cherish","DESCRIBE YOUR PROBLEMS TO THE FRIENDS YOU CHERISH","0","0","0","0","1","1","0.2","","","","","","","","","","","","","","","","","","","","","","","","","",""
"html-keyboard-response","210","808633","0.0-5.0-1.0-2.7","3","1","zl5xeevl29zt9c3","","null","","","","null","","","","","","","","","","","","","","","","","","","","","","","","","","","","","","","","","","","","","","","","","",""
"audio-keyboard-response","211","811014","0.0-5.0-1.0-3.7","3","1","zl5xeevl29zt9c3","","null","","sounds/sentences/right/14_07_cfSWS.wav","","null","","","","","","","","","","","","","","","","","","","","","","","","","","","","","","","","","","","","","","","","","",""
"html-keyboard-response","212","812023","0.0-5.0-1.0-4.7","3","1","zl5xeevl29zt9c3","","null","","","","null","","","","","","","","","","","","","","","","","","","","","","","","","","","","","","","","","","","","","","","","","",""
"html-button-response","213","815750","0.0-5.0-1.0-5.7","3","1","zl5xeevl29zt9c3","","3216.5","","<p>Press the button below when you are ready to continue.</p>","0","","","","","","","","","","","","","","","","","","","","","","","","","","","","","","","","","","","","","","","","","","",""
"audio-keyboard-response","214","818354","0.0-5.0-1.0-0.8","3","1","zl5xeevl29zt9c3","","null","","sounds/sentences/left/14_03_cfSWS.wav","","null","","","","","","","","","","","","","","","","","","","","","","","","","","","","","","","","","","","","","","","","","",""
"sentence-resp","215","829655","0.0-5.0-1.0-1.8","3","1","zl5xeevl29zt9c3","","11298","","","","","","","SWS-SENT-RESPONSE","","","{""Q0"":""Sometimes they grow without leaves""}","Pluck the bright rose without leaves.","pluck,bright,rose,without,leaves","SOMETIMES THEY GROW WITHOUT LEAVES","0","0","0","1","1","2","0.4","","","","","","","","","","","","","","","","","","","","","","","","","",""
"html-keyboard-response","216","830931","0.0-5.0-1.0-2.8","3","1","zl5xeevl29zt9c3","","null","","","","null","","","","","","","","","","","","","","","","","","","","","","","","","","","","","","","","","","","","","","","","","",""
"audio-keyboard-response","217","833013","0.0-5.0-1.0-3.8","3","1","zl5xeevl29zt9c3","","null","","sounds/sentences/left/14_03_cfSWS.wav","","null","","","","","","","","","","","","","","","","","","","","","","","","","","","","","","","","","","","","","","","","","",""
"html-keyboard-response","218","834032","0.0-5.0-1.0-4.8","3","1","zl5xeevl29zt9c3","","null","","","","null","","","","","","","","","","","","","","","","","","","","","","","","","","","","","","","","","","","","","","","","","",""
"html-button-response","219","835700","0.0-5.0-1.0-5.8","3","1","zl5xeevl29zt9c3","","1148.0999999940395","","<p>Press the button below when you are ready to continue.</p>","0","","","","","","","","","","","","","","","","","","","","","","","","","","","","","","","","","","","","","","","","","","",""
"audio-keyboard-response","220","838532","0.0-5.0-1.0-0.9","3","1","zl5xeevl29zt9c3","","null","","sounds/sentences/left/14_02_cfSWS.wav","","null","","","","","","","","","","","","","","","","","","","","","","","","","","","","","","","","","","","","","","","","","",""
"sentence-resp","221","851131","0.0-5.0-1.0-1.9","3","1","zl5xeevl29zt9c3","","12597","","","","","","","SWS-SENT-RESPONSE","","","{""Q0"":""He said the same phrase thirty times""}","He said the same phrase thirty times.","said,same,phrase,thirty,times","HE SAID THE SAME PHRASE THIRTY TIMES","1","1","1","1","1","5","1","","","","","","","","","","","","","","","","","","","","","","","","","",""
"html-keyboard-response","222","852412","0.0-5.0-1.0-2.9","3","1","zl5xeevl29zt9c3","","null","","","","null","","","","","","","","","","","","","","","","","","","","","","","","","","","","","","","","","","","","","","","","","",""
"audio-keyboard-response","223","854732","0.0-5.0-1.0-3.9","3","1","zl5xeevl29zt9c3","","null","","sounds/sentences/left/14_02_cfSWS.wav","","null","","","","","","","","","","","","","","","","","","","","","","","","","","","","","","","","","","","","","","","","","",""
"html-keyboard-response","224","855742","0.0-5.0-1.0-4.9","3","1","zl5xeevl29zt9c3","","null","","","","null","","","","","","","","","","","","","","","","","","","","","","","","","","","","","","","","","","","","","","","","","",""
"html-button-response","225","857197","0.0-5.0-1.0-5.9","3","1","zl5xeevl29zt9c3","","953.7999999821186","","<p>Press the button below when you are ready to continue.</p>","0","","","","","","","","","","","","","","","","","","","","","","","","","","","","","","","","","","","","","","","","","","",""
"html-keyboard-response","226","896021","0.0-6.0-0.0","3","1","zl5xeevl29zt9c3","","38308.39999997616","","<p>In this part of the study, you will hear sounds similar to those you just heard.</p><p>Please focus on these sounds, as you may be asked questions about them later.</p><p>Occasionally, the sounds will pause for up to two seconds. When this happens, please press SPACEBAR as quickly as you can.</br>This helps ensure that you are paying attention to the sounds.</p><p>This part of the study will take about 12 minutes to complete, and you will be given the opportunity to take a couple of short breaks every few minutes.</p><p><strong>Press SPACEBAR to begin</strong></p>","","32","","","","","","","","","","","","","","","","","","","","","","","","","","","","","","","","","","","","","","","","","",""
"html-keyboard-response","227","897024","0.0-6.0-1.0-0.0","3","1","zl5xeevl29zt9c3","","null","","<p style=""font-size: 40px;"">+</p>","","null","","","","","","","","","","","","","","","","","","","","","","","","","","","","","","","","","","","","","","","","","",""
"html-keyboard-response","228","1082032","0.0-6.0-1.0-1.0","3","1","zl5xeevl29zt9c3","","null","","","","null","","","SL-TRAIN","","","","","","","","","","","","","","2","null","null","sounds/C/TRAIN/SEQ__03.mp3","3","","","","","","","","","","","","","","","","","","","","",""
"html-button-response","229","1093442","0.0-6.0-1.0-2.0","3","1","zl5xeevl29zt9c3","","11408.899999976158","","<p>You may take a short break if you wish.</p>","0","","","","","","","","","","","","","","","","","","","","","","","","","","","","","","","","","","","","","","","","","","",""
"html-keyboard-response","230","1094445","0.0-6.0-1.0-3.0","3","1","zl5xeevl29zt9c3","","null","","<p style=""font-size: 40px;"">+</p>","","null","","","","","","","","","","","","","","","","","","","","","","","","","","","","","","","","","","","","","","","","","",""
"html-keyboard-response","231","1279447","0.0-6.0-1.0-4.0","3","1","zl5xeevl29zt9c3","","null","","","","null","","","SL-TRAIN","","","","","","","","","","","","","","1","1830.300000011921","null","sounds/C/TRAIN/SEQ__04.mp3","5","","","","","","","","","","","","","","","","","","","","",""
"html-button-response","232","1283615","0.0-6.0-1.0-5.0","3","1","zl5xeevl29zt9c3","","4165.800000011921","","<p>You may take a short break if you wish.</p>","0","","","","","","","","","","","","","","","","","","","","","","","","","","","","","","","","","","","","","","","","","","",""
"html-keyboard-response","233","1284626","0.0-6.0-1.0-6.0","3","1","zl5xeevl29zt9c3","","null","","<p style=""font-size: 40px;"">+</p>","","null","","","","","","","","","","","","","","","","","","","","","","","","","","","","","","","","","","","","","","","","","",""
"html-keyboard-response","234","1469637","0.0-6.0-1.0-7.0","3","1","zl5xeevl29zt9c3","","null","","","","null","","","SL-TRAIN","","","","","","","","","","","","","","2","null","null","sounds/C/TRAIN/SEQ__06.mp3","6","","","","","","","","","","","","","","","","","","","","",""
"html-button-response","235","1472089","0.0-6.0-1.0-8.0","3","1","zl5xeevl29zt9c3","","2450.5","","<p>You may take a short break if you wish.</p>","0","","","","","","","","","","","","","","","","","","","","","","","","","","","","","","","","","","","","","","","","","","",""
"html-keyboard-response","236","1473091","0.0-6.0-1.0-9.0","3","1","zl5xeevl29zt9c3","","null","","<p style=""font-size: 40px;"">+</p>","","null","","","","","","","","","","","","","","","","","","","","","","","","","","","","","","","","","","","","","","","","","",""
"html-keyboard-response","237","1658098","0.0-6.0-1.0-10.0","3","1","zl5xeevl29zt9c3","","null","","","","null","","","SL-TRAIN","","","","","","","","","","","","","","2","null","null","sounds/C/TRAIN/SEQ__10.mp3","8","","","","","","","","","","","","","","","","","","","","",""
"html-button-response","238","1661889","0.0-6.0-1.0-11.0","3","1","zl5xeevl29zt9c3","","3788","","<p>You may take a short break if you wish.</p>","0","","","","","","","","","","","","","","","","","","","","","","","","","","","","","","","","","","","","","","","","","","",""
"html-button-response","239","1670176","0.0-7.0-0.0","3","1","zl5xeevl29zt9c3","","8286.300000011921","","<p>Welcome to the second part of the study. This is a <u>familiarity task</u>.</p><p>You will now hear short sounds and will be asked to rate how familiar they sound to you <b>based on what you heard in the previous part of the study</b>.</p><p>You will rate 12 sounds in total.</p>","0","","","","","","","","","","","","","","","","","","","","","","","","","","","","","","","","","","","","","","","","","","",""
"html-keyboard-response","240","1671184","0.0-7.0-1.0-0.0","3","1","zl5xeevl29zt9c3","","null","","","","null","","","","","","","","","","","","","","","","","","","","","","","","","","","","","","","","","","","","","","","","","",""
"audio-keyboard-response","241","1672182","0.0-7.0-1.0-1.0","3","1","zl5xeevl29zt9c3","","null","","sounds/C/FAM/N001.mp3","","null","","","","","","","","","","","","","","","","","","","","","","","","","","","","","","","","","","","","","","","","","",""
"html-keyboard-response","242","1679362","0.0-7.0-1.0-2.0","3","1","zl5xeevl29zt9c3","","6670.799999982119","","<p>How familiar did this sound to you?</p><p>1&nbsp;&nbsp;&nbsp;&nbsp;&nbsp;&nbsp;&nbsp;&nbsp;&nbsp;&nbsp;&nbsp;&nbsp;&nbsp;&nbsp;&nbsp;&nbsp;&nbsp;&nbsp;&nbsp;2&nbsp;&nbsp;&nbsp;&nbsp;&nbsp;&nbsp;&nbsp;&nbsp;&nbsp;&nbsp;&nbsp;&nbsp;&nbsp;&nbsp;&nbsp;&nbsp;&nbsp;&nbsp;&nbsp;3&nbsp;&nbsp;&nbsp;&nbsp;&nbsp;&nbsp;&nbsp;&nbsp;&nbsp;&nbsp;&nbsp;&nbsp;&nbsp;&nbsp;&nbsp;&nbsp;&nbsp;&nbsp;&nbsp;4</p><p style=""font-size:14px"">Not at all familiar&nbsp;&nbsp;&nbsp;&nbsp;A little familiar&nbsp;&nbsp;&nbsp;Moderately familiar&nbsp;&nbsp;&nbsp;Extremely familiar</p><p>(press the corresponding number on your keyboard)</p>","","52","","","FAM-RESPONSE","","","","","","","","","","","","","","","","","","","sounds/C/FAM/N001.mp3","nonword","","","","","","","","","","","","","","","","","","",""
"html-keyboard-response","243","1681391","0.0-7.0-1.0-0.1","3","1","zl5xeevl29zt9c3","","null","","","","null","","","","","","","","","","","","","","","","","","","","","","","","","","","","","","","","","","","","","","","","","",""
"audio-keyboard-response","244","1682332","0.0-7.0-1.0-1.1","3","1","zl5xeevl29zt9c3","","null","","sounds/C/FAM/P001.mp3","","null","","","","","","","","","","","","","","","","","","","","","","","","","","","","","","","","","","","","","","","","","",""
"html-keyboard-response","245","1683851","0.0-7.0-1.0-2.1","3","1","zl5xeevl29zt9c3","","1011.9000000059605","","<p>How familiar did this sound to you?</p><p>1&nbsp;&nbsp;&nbsp;&nbsp;&nbsp;&nbsp;&nbsp;&nbsp;&nbsp;&nbsp;&nbsp;&nbsp;&nbsp;&nbsp;&nbsp;&nbsp;&nbsp;&nbsp;&nbsp;2&nbsp;&nbsp;&nbsp;&nbsp;&nbsp;&nbsp;&nbsp;&nbsp;&nbsp;&nbsp;&nbsp;&nbsp;&nbsp;&nbsp;&nbsp;&nbsp;&nbsp;&nbsp;&nbsp;3&nbsp;&nbsp;&nbsp;&nbsp;&nbsp;&nbsp;&nbsp;&nbsp;&nbsp;&nbsp;&nbsp;&nbsp;&nbsp;&nbsp;&nbsp;&nbsp;&nbsp;&nbsp;&nbsp;4</p><p style=""font-size:14px"">Not at all familiar&nbsp;&nbsp;&nbsp;&nbsp;A little familiar&nbsp;&nbsp;&nbsp;Moderately familiar&nbsp;&nbsp;&nbsp;Extremely familiar</p><p>(press the corresponding number on your keyboard)</p>","","51","","","FAM-RESPONSE","","","","","","","","","","","","","","","","","","","sounds/C/FAM/P001.mp3","partword","","","","","","","","","","","","","","","","","","",""
"html-keyboard-response","246","1685871","0.0-7.0-1.0-0.2","3","1","zl5xeevl29zt9c3","","null","","","","null","","","","","","","","","","","","","","","","","","","","","","","","","","","","","","","","","","","","","","","","","",""
"audio-keyboard-response","247","1686811","0.0-7.0-1.0-1.2","3","1","zl5xeevl29zt9c3","","null","","sounds/C/FAM/W001.mp3","","null","","","","","","","","","","","","","","","","","","","","","","","","","","","","","","","","","","","","","","","","","",""
"html-keyboard-response","248","1688177","0.0-7.0-1.0-2.2","3","1","zl5xeevl29zt9c3","","855.4000000059605","","<p>How familiar did this sound to you?</p><p>1&nbsp;&nbsp;&nbsp;&nbsp;&nbsp;&nbsp;&nbsp;&nbsp;&nbsp;&nbsp;&nbsp;&nbsp;&nbsp;&nbsp;&nbsp;&nbsp;&nbsp;&nbsp;&nbsp;2&nbsp;&nbsp;&nbsp;&nbsp;&nbsp;&nbsp;&nbsp;&nbsp;&nbsp;&nbsp;&nbsp;&nbsp;&nbsp;&nbsp;&nbsp;&nbsp;&nbsp;&nbsp;&nbsp;3&nbsp;&nbsp;&nbsp;&nbsp;&nbsp;&nbsp;&nbsp;&nbsp;&nbsp;&nbsp;&nbsp;&nbsp;&nbsp;&nbsp;&nbsp;&nbsp;&nbsp;&nbsp;&nbsp;4</p><p style=""font-size:14px"">Not at all familiar&nbsp;&nbsp;&nbsp;&nbsp;A little familiar&nbsp;&nbsp;&nbsp;Moderately familiar&nbsp;&nbsp;&nbsp;Extremely familiar</p><p>(press the corresponding number on your keyboard)</p>","","52","","","FAM-RESPONSE","","","","","","","","","","","","","","","","","","","sounds/C/FAM/W001.mp3","word","","","","","","","","","","","","","","","","","","",""
"html-keyboard-response","249","1690181","0.0-7.0-1.0-0.3","3","1","zl5xeevl29zt9c3","","null","","","","null","","","","","","","","","","","","","","","","","","","","","","","","","","","","","","","","","","","","","","","","","",""
"audio-keyboard-response","250","1691132","0.0-7.0-1.0-1.3","3","1","zl5xeevl29zt9c3","","null","","sounds/C/FAM/P002.mp3","","null","","","","","","","","","","","","","","","","","","","","","","","","","","","","","","","","","","","","","","","","","",""
"html-keyboard-response","251","1692471","0.0-7.0-1.0-2.3","3","1","zl5xeevl29zt9c3","","829.3000000119209","","<p>How familiar did this sound to you?</p><p>1&nbsp;&nbsp;&nbsp;&nbsp;&nbsp;&nbsp;&nbsp;&nbsp;&nbsp;&nbsp;&nbsp;&nbsp;&nbsp;&nbsp;&nbsp;&nbsp;&nbsp;&nbsp;&nbsp;2&nbsp;&nbsp;&nbsp;&nbsp;&nbsp;&nbsp;&nbsp;&nbsp;&nbsp;&nbsp;&nbsp;&nbsp;&nbsp;&nbsp;&nbsp;&nbsp;&nbsp;&nbsp;&nbsp;3&nbsp;&nbsp;&nbsp;&nbsp;&nbsp;&nbsp;&nbsp;&nbsp;&nbsp;&nbsp;&nbsp;&nbsp;&nbsp;&nbsp;&nbsp;&nbsp;&nbsp;&nbsp;&nbsp;4</p><p style=""font-size:14px"">Not at all familiar&nbsp;&nbsp;&nbsp;&nbsp;A little familiar&nbsp;&nbsp;&nbsp;Moderately familiar&nbsp;&nbsp;&nbsp;Extremely familiar</p><p>(press the corresponding number on your keyboard)</p>","","52","","","FAM-RESPONSE","","","","","","","","","","","","","","","","","","","sounds/C/FAM/P002.mp3","partword","","","","","","","","","","","","","","","","","","",""
"html-keyboard-response","252","1694480","0.0-7.0-1.0-0.4","3","1","zl5xeevl29zt9c3","","null","","","","null","","","","","","","","","","","","","","","","","","","","","","","","","","","","","","","","","","","","","","","","","",""
"audio-keyboard-response","253","1695412","0.0-7.0-1.0-1.4","3","1","zl5xeevl29zt9c3","","null","","sounds/C/FAM/W002.mp3","","null","","","","","","","","","","","","","","","","","","","","","","","","","","","","","","","","","","","","","","","","","",""
"html-keyboard-response","254","1697193","0.0-7.0-1.0-2.4","3","1","zl5xeevl29zt9c3","","1271.300000011921","","<p>How familiar did this sound to you?</p><p>1&nbsp;&nbsp;&nbsp;&nbsp;&nbsp;&nbsp;&nbsp;&nbsp;&nbsp;&nbsp;&nbsp;&nbsp;&nbsp;&nbsp;&nbsp;&nbsp;&nbsp;&nbsp;&nbsp;2&nbsp;&nbsp;&nbsp;&nbsp;&nbsp;&nbsp;&nbsp;&nbsp;&nbsp;&nbsp;&nbsp;&nbsp;&nbsp;&nbsp;&nbsp;&nbsp;&nbsp;&nbsp;&nbsp;3&nbsp;&nbsp;&nbsp;&nbsp;&nbsp;&nbsp;&nbsp;&nbsp;&nbsp;&nbsp;&nbsp;&nbsp;&nbsp;&nbsp;&nbsp;&nbsp;&nbsp;&nbsp;&nbsp;4</p><p style=""font-size:14px"">Not at all familiar&nbsp;&nbsp;&nbsp;&nbsp;A little familiar&nbsp;&nbsp;&nbsp;Moderately familiar&nbsp;&nbsp;&nbsp;Extremely familiar</p><p>(press the corresponding number on your keyboard)</p>","","52","","","FAM-RESPONSE","","","","","","","","","","","","","","","","","","","sounds/C/FAM/W002.mp3","word","","","","","","","","","","","","","","","","","","",""
"html-keyboard-response","255","1699221","0.0-7.0-1.0-0.5","3","1","zl5xeevl29zt9c3","","null","","","","null","","","","","","","","","","","","","","","","","","","","","","","","","","","","","","","","","","","","","","","","","",""
"audio-keyboard-response","256","1700172","0.0-7.0-1.0-1.5","3","1","zl5xeevl29zt9c3","","null","","sounds/C/FAM/N002.mp3","","null","","","","","","","","","","","","","","","","","","","","","","","","","","","","","","","","","","","","","","","","","",""
"html-keyboard-response","257","1701779","0.0-7.0-1.0-2.5","3","1","zl5xeevl29zt9c3","","1088","","<p>How familiar did this sound to you?</p><p>1&nbsp;&nbsp;&nbsp;&nbsp;&nbsp;&nbsp;&nbsp;&nbsp;&nbsp;&nbsp;&nbsp;&nbsp;&nbsp;&nbsp;&nbsp;&nbsp;&nbsp;&nbsp;&nbsp;2&nbsp;&nbsp;&nbsp;&nbsp;&nbsp;&nbsp;&nbsp;&nbsp;&nbsp;&nbsp;&nbsp;&nbsp;&nbsp;&nbsp;&nbsp;&nbsp;&nbsp;&nbsp;&nbsp;3&nbsp;&nbsp;&nbsp;&nbsp;&nbsp;&nbsp;&nbsp;&nbsp;&nbsp;&nbsp;&nbsp;&nbsp;&nbsp;&nbsp;&nbsp;&nbsp;&nbsp;&nbsp;&nbsp;4</p><p style=""font-size:14px"">Not at all familiar&nbsp;&nbsp;&nbsp;&nbsp;A little familiar&nbsp;&nbsp;&nbsp;Moderately familiar&nbsp;&nbsp;&nbsp;Extremely familiar</p><p>(press the corresponding number on your keyboard)</p>","","50","","","FAM-RESPONSE","","","","","","","","","","","","","","","","","","","sounds/C/FAM/N002.mp3","nonword","","","","","","","","","","","","","","","","","","",""
"html-keyboard-response","258","1703801","0.0-7.0-1.0-0.6","3","1","zl5xeevl29zt9c3","","null","","","","null","","","","","","","","","","","","","","","","","","","","","","","","","","","","","","","","","","","","","","","","","",""
"audio-keyboard-response","259","1704742","0.0-7.0-1.0-1.6","3","1","zl5xeevl29zt9c3","","null","","sounds/C/FAM/N003.mp3","","null","","","","","","","","","","","","","","","","","","","","","","","","","","","","","","","","","","","","","","","","","",""
"html-keyboard-response","260","1705636","0.0-7.0-1.0-2.6","3","1","zl5xeevl29zt9c3","","384.7000000178814","","<p>How familiar did this sound to you?</p><p>1&nbsp;&nbsp;&nbsp;&nbsp;&nbsp;&nbsp;&nbsp;&nbsp;&nbsp;&nbsp;&nbsp;&nbsp;&nbsp;&nbsp;&nbsp;&nbsp;&nbsp;&nbsp;&nbsp;2&nbsp;&nbsp;&nbsp;&nbsp;&nbsp;&nbsp;&nbsp;&nbsp;&nbsp;&nbsp;&nbsp;&nbsp;&nbsp;&nbsp;&nbsp;&nbsp;&nbsp;&nbsp;&nbsp;3&nbsp;&nbsp;&nbsp;&nbsp;&nbsp;&nbsp;&nbsp;&nbsp;&nbsp;&nbsp;&nbsp;&nbsp;&nbsp;&nbsp;&nbsp;&nbsp;&nbsp;&nbsp;&nbsp;4</p><p style=""font-size:14px"">Not at all familiar&nbsp;&nbsp;&nbsp;&nbsp;A little familiar&nbsp;&nbsp;&nbsp;Moderately familiar&nbsp;&nbsp;&nbsp;Extremely familiar</p><p>(press the corresponding number on your keyboard)</p>","","50","","","FAM-RESPONSE","","","","","","","","","","","","","","","","","","","sounds/C/FAM/N003.mp3","nonword","","","","","","","","","","","","","","","","","","",""
"html-keyboard-response","261","1707671","0.0-7.0-1.0-0.7","3","1","zl5xeevl29zt9c3","","null","","","","null","","","","","","","","","","","","","","","","","","","","","","","","","","","","","","","","","","","","","","","","","",""
"audio-keyboard-response","262","1708612","0.0-7.0-1.0-1.7","3","1","zl5xeevl29zt9c3","","null","","sounds/C/FAM/N004.mp3","","null","","","","","","","","","","","","","","","","","","","","","","","","","","","","","","","","","","","","","","","","","",""
"html-keyboard-response","263","1710846","0.0-7.0-1.0-2.7","3","1","zl5xeevl29zt9c3","","1724.9000000059605","","<p>How familiar did this sound to you?</p><p>1&nbsp;&nbsp;&nbsp;&nbsp;&nbsp;&nbsp;&nbsp;&nbsp;&nbsp;&nbsp;&nbsp;&nbsp;&nbsp;&nbsp;&nbsp;&nbsp;&nbsp;&nbsp;&nbsp;2&nbsp;&nbsp;&nbsp;&nbsp;&nbsp;&nbsp;&nbsp;&nbsp;&nbsp;&nbsp;&nbsp;&nbsp;&nbsp;&nbsp;&nbsp;&nbsp;&nbsp;&nbsp;&nbsp;3&nbsp;&nbsp;&nbsp;&nbsp;&nbsp;&nbsp;&nbsp;&nbsp;&nbsp;&nbsp;&nbsp;&nbsp;&nbsp;&nbsp;&nbsp;&nbsp;&nbsp;&nbsp;&nbsp;4</p><p style=""font-size:14px"">Not at all familiar&nbsp;&nbsp;&nbsp;&nbsp;A little familiar&nbsp;&nbsp;&nbsp;Moderately familiar&nbsp;&nbsp;&nbsp;Extremely familiar</p><p>(press the corresponding number on your keyboard)</p>","","51","","","FAM-RESPONSE","","","","","","","","","","","","","","","","","","","sounds/C/FAM/N004.mp3","nonword","","","","","","","","","","","","","","","","","","",""
"html-keyboard-response","264","1712870","0.0-7.0-1.0-0.8","3","1","zl5xeevl29zt9c3","","null","","","","null","","","","","","","","","","","","","","","","","","","","","","","","","","","","","","","","","","","","","","","","","",""
"audio-keyboard-response","265","1713812","0.0-7.0-1.0-1.8","3","1","zl5xeevl29zt9c3","","null","","sounds/C/FAM/W003.mp3","","null","","","","","","","","","","","","","","","","","","","","","","","","","","","","","","","","","","","","","","","","","",""
"html-keyboard-response","266","1714649","0.0-7.0-1.0-2.8","3","1","zl5xeevl29zt9c3","","328.59999999403954","","<p>How familiar did this sound to you?</p><p>1&nbsp;&nbsp;&nbsp;&nbsp;&nbsp;&nbsp;&nbsp;&nbsp;&nbsp;&nbsp;&nbsp;&nbsp;&nbsp;&nbsp;&nbsp;&nbsp;&nbsp;&nbsp;&nbsp;2&nbsp;&nbsp;&nbsp;&nbsp;&nbsp;&nbsp;&nbsp;&nbsp;&nbsp;&nbsp;&nbsp;&nbsp;&nbsp;&nbsp;&nbsp;&nbsp;&nbsp;&nbsp;&nbsp;3&nbsp;&nbsp;&nbsp;&nbsp;&nbsp;&nbsp;&nbsp;&nbsp;&nbsp;&nbsp;&nbsp;&nbsp;&nbsp;&nbsp;&nbsp;&nbsp;&nbsp;&nbsp;&nbsp;4</p><p style=""font-size:14px"">Not at all familiar&nbsp;&nbsp;&nbsp;&nbsp;A little familiar&nbsp;&nbsp;&nbsp;Moderately familiar&nbsp;&nbsp;&nbsp;Extremely familiar</p><p>(press the corresponding number on your keyboard)</p>","","51","","","FAM-RESPONSE","","","","","","","","","","","","","","","","","","","sounds/C/FAM/W003.mp3","word","","","","","","","","","","","","","","","","","","",""
"html-keyboard-response","267","1716681","0.0-7.0-1.0-0.9","3","1","zl5xeevl29zt9c3","","null","","","","null","","","","","","","","","","","","","","","","","","","","","","","","","","","","","","","","","","","","","","","","","",""
"audio-keyboard-response","268","1717622","0.0-7.0-1.0-1.9","3","1","zl5xeevl29zt9c3","","null","","sounds/C/FAM/P003.mp3","","null","","","","","","","","","","","","","","","","","","","","","","","","","","","","","","","","","","","","","","","","","",""
"html-keyboard-response","269","1718656","0.0-7.0-1.0-2.9","3","1","zl5xeevl29zt9c3","","525.0999999940395","","<p>How familiar did this sound to you?</p><p>1&nbsp;&nbsp;&nbsp;&nbsp;&nbsp;&nbsp;&nbsp;&nbsp;&nbsp;&nbsp;&nbsp;&nbsp;&nbsp;&nbsp;&nbsp;&nbsp;&nbsp;&nbsp;&nbsp;2&nbsp;&nbsp;&nbsp;&nbsp;&nbsp;&nbsp;&nbsp;&nbsp;&nbsp;&nbsp;&nbsp;&nbsp;&nbsp;&nbsp;&nbsp;&nbsp;&nbsp;&nbsp;&nbsp;3&nbsp;&nbsp;&nbsp;&nbsp;&nbsp;&nbsp;&nbsp;&nbsp;&nbsp;&nbsp;&nbsp;&nbsp;&nbsp;&nbsp;&nbsp;&nbsp;&nbsp;&nbsp;&nbsp;4</p><p style=""font-size:14px"">Not at all familiar&nbsp;&nbsp;&nbsp;&nbsp;A little familiar&nbsp;&nbsp;&nbsp;Moderately familiar&nbsp;&nbsp;&nbsp;Extremely familiar</p><p>(press the corresponding number on your keyboard)</p>","","50","","","FAM-RESPONSE","","","","","","","","","","","","","","","","","","","sounds/C/FAM/P003.mp3","partword","","","","","","","","","","","","","","","","","","",""
"html-keyboard-response","270","1720690","0.0-7.0-1.0-0.10","3","1","zl5xeevl29zt9c3","","null","","","","null","","","","","","","","","","","","","","","","","","","","","","","","","","","","","","","","","","","","","","","","","",""
"audio-keyboard-response","271","1721622","0.0-7.0-1.0-1.10","3","1","zl5xeevl29zt9c3","","null","","sounds/C/FAM/W004.mp3","","null","","","","","","","","","","","","","","","","","","","","","","","","","","","","","","","","","","","","","","","","","",""
"html-keyboard-response","272","1722706","0.0-7.0-1.0-2.10","3","1","zl5xeevl29zt9c3","","564.6999999880791","","<p>How familiar did this sound to you?</p><p>1&nbsp;&nbsp;&nbsp;&nbsp;&nbsp;&nbsp;&nbsp;&nbsp;&nbsp;&nbsp;&nbsp;&nbsp;&nbsp;&nbsp;&nbsp;&nbsp;&nbsp;&nbsp;&nbsp;2&nbsp;&nbsp;&nbsp;&nbsp;&nbsp;&nbsp;&nbsp;&nbsp;&nbsp;&nbsp;&nbsp;&nbsp;&nbsp;&nbsp;&nbsp;&nbsp;&nbsp;&nbsp;&nbsp;3&nbsp;&nbsp;&nbsp;&nbsp;&nbsp;&nbsp;&nbsp;&nbsp;&nbsp;&nbsp;&nbsp;&nbsp;&nbsp;&nbsp;&nbsp;&nbsp;&nbsp;&nbsp;&nbsp;4</p><p style=""font-size:14px"">Not at all familiar&nbsp;&nbsp;&nbsp;&nbsp;A little familiar&nbsp;&nbsp;&nbsp;Moderately familiar&nbsp;&nbsp;&nbsp;Extremely familiar</p><p>(press the corresponding number on your keyboard)</p>","","52","","","FAM-RESPONSE","","","","","","","","","","","","","","","","","","","sounds/C/FAM/W004.mp3","word","","","","","","","","","","","","","","","","","","",""
"html-keyboard-response","273","1724731","0.0-7.0-1.0-0.11","3","1","zl5xeevl29zt9c3","","null","","","","null","","","","","","","","","","","","","","","","","","","","","","","","","","","","","","","","","","","","","","","","","",""
"audio-keyboard-response","274","1725680","0.0-7.0-1.0-1.11","3","1","zl5xeevl29zt9c3","","null","","sounds/C/FAM/P004.mp3","","null","","","","","","","","","","","","","","","","","","","","","","","","","","","","","","","","","","","","","","","","","",""
"html-keyboard-response","275","1726453","0.0-7.0-1.0-2.11","3","1","zl5xeevl29zt9c3","","263.39999997615814","","<p>How familiar did this sound to you?</p><p>1&nbsp;&nbsp;&nbsp;&nbsp;&nbsp;&nbsp;&nbsp;&nbsp;&nbsp;&nbsp;&nbsp;&nbsp;&nbsp;&nbsp;&nbsp;&nbsp;&nbsp;&nbsp;&nbsp;2&nbsp;&nbsp;&nbsp;&nbsp;&nbsp;&nbsp;&nbsp;&nbsp;&nbsp;&nbsp;&nbsp;&nbsp;&nbsp;&nbsp;&nbsp;&nbsp;&nbsp;&nbsp;&nbsp;3&nbsp;&nbsp;&nbsp;&nbsp;&nbsp;&nbsp;&nbsp;&nbsp;&nbsp;&nbsp;&nbsp;&nbsp;&nbsp;&nbsp;&nbsp;&nbsp;&nbsp;&nbsp;&nbsp;4</p><p style=""font-size:14px"">Not at all familiar&nbsp;&nbsp;&nbsp;&nbsp;A little familiar&nbsp;&nbsp;&nbsp;Moderately familiar&nbsp;&nbsp;&nbsp;Extremely familiar</p><p>(press the corresponding number on your keyboard)</p>","","52","","","FAM-RESPONSE","","","","","","","","","","","","","","","","","","","sounds/C/FAM/P004.mp3","partword","","","","","","","","","","","","","","","","","","",""
"html-button-response","276","1740563","0.0-8.0-0.0","3","1","zl5xeevl29zt9c3","","13103","","<p>You will now listen to longer sound sequences.</p><p>Each sound sequence will last about 16 seconds.</p><p>On each trial, you will be given a <u>TARGET SOUND</u>. Your task is to listen very carefully for this sound.</p><p>Every time you hear the <u>TARGET SOUND</u>, you will press the <b>SPACEBAR</b> as quickly and accurately as you can.</p>","0","","","","","","","","","","","","","","","","","","","","","","","","","","","","","","","","","","","","","","","","","","",""
"html-button-response","277","1753007","0.0-8.0-1.0","3","1","zl5xeevl29zt9c3","","12175.90000000596","","<p>It is very important that you make your responses as quickly and accurately as possible.</p><p>To help you make your responses, you will be able to listen to the <u>TARGET SOUND</u> at the beginning of each trial.</p><p>There will be 36 total trials.</p><p><b>Note: This is meant to be a difficult task. We simply want you to try your best.</p>","0","","","","","","","","","","","","","","","","","","","","","","","","","","","","","","","","","","","","","","","","","","",""
"html-button-response","278","1759114","0.0-8.0-2.0-0.0","3","1","zl5xeevl29zt9c3","","5843.200000017881","","<p>Trial 1 of 36</p>","0","","","","","","","","","","","","","","","","","","","","","","","","","NI","sounds/syllables/ni_SWS.wav","900,5400,9000,10800","1","","","","","","","","","","","","","","",""
"html-keyboard-response","279","1769413","0.0-8.0-2.0-1.0","3","1","zl5xeevl29zt9c3","","10296","","","","80","","","","","","","","","","","","","","","","","","","","","","","","NI","","900,5400,9000,10800","1","","","","","","","","","","","","","","",""
"audio-keyboard-response","280","1770138","0.0-8.0-2.0-2.0-0.0","3","1","zl5xeevl29zt9c3","","null","","sounds/syllables/ni_SWS.wav","","null","","","","","","","","","","","","","","","","","","","","","","","","","","","","","","","","","","","","","","","","","",""
"html-keyboard-response","281","1775347","0.0-8.0-2.0-2.0-1.0","3","1","zl5xeevl29zt9c3","","5208.100000023842","","<p>To replay the <u>TARGET SOUND</u>, press P.</p> When you are ready to begin, press SPACEBAR.","","80","","","","","","","","","","","","","","","","","","","","","","","","","","","","","","","","","","","","","","","","","",""
"audio-keyboard-response","282","1776178","0.0-8.0-2.0-2.1-0.1","3","1","zl5xeevl29zt9c3","","null","","sounds/syllables/ni_SWS.wav","","null","","","","","","","","","","","","","","","","","","","","","","","","","","","","","","","","","","","","","","","","","",""
"html-keyboard-response","283","1777989","0.0-8.0-2.0-2.1-1.1","3","1","zl5xeevl29zt9c3","","1809.699999988079","","<p>To replay the <u>TARGET SOUND</u>, press P.</p> When you are ready to begin, press SPACEBAR.","","32","","","","","","","","","","","","","","","","","","","","","","","","","","","","","","","","","","","","","","","","","",""
"audio-keyboard-response","284","1792948","0.0-8.0-2.0-3.0","3","1","zl5xeevl29zt9c3","","1160","","sounds/C/TD/NI_10_TD.mp3","","32","","","TD_SUMMARY","","","","","","","","","","","","","","","","","","","","","NI","","900,5400,9000,10800","1","900","5400","9000","10800","264.2000000178814","1155.6000000238419","null","276.2000000178814","1164.2000000178814_2259.800000011921_4308.600000023842_6555.600000023842_11076.200000017881_13582.5","2","","","","",""
"html-button-response","285","1796521","0.0-8.0-2.0-0.1","3","1","zl5xeevl29zt9c3","","3568.7000000178814","","<p>Trial 2 of 36</p>","0","","","","","","","","","","","","","","","","","","","","","","","","","TI","sounds/syllables/ti_SWS.wav","2400,4200,7800,12300","3","","","","","","","","","","","","","","",""
"html-keyboard-response","286","1799459","0.0-8.0-2.0-1.1","3","1","zl5xeevl29zt9c3","","2937.0999999940395","","","","80","","","","","","","","","","","","","","","","","","","","","","","","TI","","2400,4200,7800,12300","3","","","","","","","","","","","","","","",""
"audio-keyboard-response","287","1799768","0.0-8.0-2.0-2.2-0.2","3","1","zl5xeevl29zt9c3","","null","","sounds/syllables/ti_SWS.wav","","null","","","","","","","","","","","","","","","","","","","","","","","","","","","","","","","","","","","","","","","","","",""
"html-keyboard-response","288","1803382","0.0-8.0-2.0-2.2-1.2","3","1","zl5xeevl29zt9c3","","3613.300000011921","","<p>To replay the <u>TARGET SOUND</u>, press P.</p> When you are ready to begin, press SPACEBAR.","","80","","","","","","","","","","","","","","","","","","","","","","","","","","","","","","","","","","","","","","","","","",""
"audio-keyboard-response","289","1804209","0.0-8.0-2.0-2.3-0.3","3","1","zl5xeevl29zt9c3","","null","","sounds/syllables/ti_SWS.wav","","null","","","","","","","","","","","","","","","","","","","","","","","","","","","","","","","","","","","","","","","","","",""
"html-keyboard-response","290","1804558","0.0-8.0-2.0-2.3-1.3","3","1","zl5xeevl29zt9c3","","349.30000001192093","","<p>To replay the <u>TARGET SOUND</u>, press P.</p> When you are ready to begin, press SPACEBAR.","","80","","","","","","","","","","","","","","","","","","","","","","","","","","","","","","","","","","","","","","","","","",""
"audio-keyboard-response","291","1805378","0.0-8.0-2.0-2.4-0.4","3","1","zl5xeevl29zt9c3","","null","","sounds/syllables/ti_SWS.wav","","null","","","","","","","","","","","","","","","","","","","","","","","","","","","","","","","","","","","","","","","","","",""
"html-keyboard-response","292","1805566","0.0-8.0-2.0-2.4-1.4","3","1","zl5xeevl29zt9c3","","187.2000000178814","","<p>To replay the <u>TARGET SOUND</u>, press P.</p> When you are ready to begin, press SPACEBAR.","","80","","","","","","","","","","","","","","","","","","","","","","","","","","","","","","","","","","","","","","","","","",""
"audio-keyboard-response","293","1806379","0.0-8.0-2.0-2.5-0.5","3","1","zl5xeevl29zt9c3","","null","","sounds/syllables/ti_SWS.wav","","null","","","","","","","","","","","","","","","","","","","","","","","","","","","","","","","","","","","","","","","","","",""
"html-keyboard-response","294","1806797","0.0-8.0-2.0-2.5-1.5","3","1","zl5xeevl29zt9c3","","417.19999998807907","","<p>To replay the <u>TARGET SOUND</u>, press P.</p> When you are ready to begin, press SPACEBAR.","","32","","","","","","","","","","","","","","","","","","","","","","","","","","","","","","","","","","","","","","","","","",""
"audio-keyboard-response","295","1821748","0.0-8.0-2.0-3.1","3","1","zl5xeevl29zt9c3","","1469","","sounds/C/TD/TI_06_TD.mp3","","32","","","TD_SUMMARY","","","","","","","","","","","","","","","","","","","","","TI","","2400,4200,7800,12300","3","2400","4200","7800","12300","573.5999999940395","399.7999999821186","356.69999998807907","431.19999998807907","______1471.699999988079_2973.5999999940395_4599.799999982119_6901.5999999940395_8156.699999988079_10598.5_12731.199999988079","4","","","","",""
"html-button-response","296","1824274","0.0-8.0-2.0-0.2","3","1","zl5xeevl29zt9c3","","2522.9000000059605","","<p>Trial 3 of 36</p>","0","","","","","","","","","","","","","","","","","","","","","","","","","FU","sounds/syllables/fu_SWS.wav","3300,6000,8700,12300","3","","","","","","","","","","","","","","",""
"html-keyboard-response","297","1826019","0.0-8.0-2.0-1.2","3","1","zl5xeevl29zt9c3","","1744.199999988079","","","","80","","","","","","","","","","","","","","","","","","","","","","","","FU","","3300,6000,8700,12300","3","","","","","","","","","","","","","","",""
"audio-keyboard-response","298","1826328","0.0-8.0-2.0-2.6-0.6","3","1","zl5xeevl29zt9c3","","null","","sounds/syllables/fu_SWS.wav","","null","","","","","","","","","","","","","","","","","","","","","","","","","","","","","","","","","","","","","","","","","",""
"html-keyboard-response","299","1826875","0.0-8.0-2.0-2.6-1.6","3","1","zl5xeevl29zt9c3","","546.5","","<p>To replay the <u>TARGET SOUND</u>, press P.</p> When you are ready to begin, press SPACEBAR.","","80","","","","","","","","","","","","","","","","","","","","","","","","","","","","","","","","","","","","","","","","","",""
"audio-keyboard-response","300","1827688","0.0-8.0-2.0-2.7-0.7","3","1","zl5xeevl29zt9c3","","null","","sounds/syllables/fu_SWS.wav","","null","","","","","","","","","","","","","","","","","","","","","","","","","","","","","","","","","","","","","","","","","",""
"html-keyboard-response","301","1828702","0.0-8.0-2.0-2.7-1.7","3","1","zl5xeevl29zt9c3","","1013.2000000178814","","<p>To replay the <u>TARGET SOUND</u>, press P.</p> When you are ready to begin, press SPACEBAR.","","32","","","","","","","","","","","","","","","","","","","","","","","","","","","","","","","","","","","","","","","","","",""
"audio-keyboard-response","302","1843658","0.0-8.0-2.0-3.2","3","1","zl5xeevl29zt9c3","","971","","sounds/C/TD/FU_03_TD.mp3","","32","","","TD_SUMMARY","","","","","","","","","","","","","","","","","","","","","FU","","3300,6000,8700,12300","3","3300","6000","8700","12300","1030.8999999761581","null","null","null","_____________975.5_2564.899999976158_4330.899999976158_5833.799999982119_7816.5_10240_11517.199999988079_14011.09999999404","2","","","","",""
"html-button-response","303","1845216","0.0-8.0-2.0-0.3","3","1","zl5xeevl29zt9c3","","1555.5999999940395","","<p>Trial 4 of 36</p>","0","","","","","","","","","","","","","","","","","","","","","","","","","GE","sounds/syllables/ge_SWS.wav","3300,5100,6900,10500","3","","","","","","","","","","","","","","",""
"html-keyboard-response","304","1846335","0.0-8.0-2.0-1.3","3","1","zl5xeevl29zt9c3","","1117.4000000059605","","","","80","","","","","","","","","","","","","","","","","","","","","","","","GE","","3300,5100,6900,10500","3","","","","","","","","","","","","","","",""
"audio-keyboard-response","305","1846629","0.0-8.0-2.0-2.8-0.8","3","1","zl5xeevl29zt9c3","","null","","sounds/syllables/ge_SWS.wav","","null","","","","","","","","","","","","","","","","","","","","","","","","","","","","","","","","","","","","","","","","","",""
"html-keyboard-response","306","1848009","0.0-8.0-2.0-2.8-1.8","3","1","zl5xeevl29zt9c3","","1379.4000000059605","","<p>To replay the <u>TARGET SOUND</u>, press P.</p> When you are ready to begin, press SPACEBAR.","","32","","","","","","","","","","","","","","","","","","","","","","","","","","","","","","","","","","","","","","","","","",""
"audio-keyboard-response","307","1862968","0.0-8.0-2.0-3.3","3","1","zl5xeevl29zt9c3","","1552","","sounds/C/TD/GE_08_TD.mp3","","32","","","TD_SUMMARY","","","","","","","","","","","","","","","","","","","","","GE","","3300,5100,6900,10500","3","3300","5100","6900","10500","null","null","null","null","_____________________1559.7999999821186_3253.7999999821186_6677.399999976158_9386.5_12039.399999976158","1","","","","",""
"html-button-response","308","1879079","0.0-8.0-2.0-0.4","3","1","zl5xeevl29zt9c3","","16108.299999982119","","<p>Trial 5 of 36</p>","0","","","","","","","","","","","","","","","","","","","","","","","","","FE","sounds/syllables/fe_SWS.wav","1200,5700,10200,12900","2","","","","","","","","","","","","","","",""
"html-keyboard-response","309","1880653","0.0-8.0-2.0-1.4","3","1","zl5xeevl29zt9c3","","1571.7999999821186","","","","80","","","","","","","","","","","","","","","","","","","","","","","","FE","","1200,5700,10200,12900","2","","","","","","","","","","","","","","",""
"audio-keyboard-response","310","1880948","0.0-8.0-2.0-2.9-0.9","3","1","zl5xeevl29zt9c3","","null","","sounds/syllables/fe_SWS.wav","","null","","","","","","","","","","","","","","","","","","","","","","","","","","","","","","","","","","","","","","","","","",""
"html-keyboard-response","311","1881898","0.0-8.0-2.0-2.9-1.9","3","1","zl5xeevl29zt9c3","","949.2999999821186","","<p>To replay the <u>TARGET SOUND</u>, press P.</p> When you are ready to begin, press SPACEBAR.","","32","","","","","","","","","","","","","","","","","","","","","","","","","","","","","","","","","","","","","","","","","",""
"audio-keyboard-response","312","1896858","0.0-8.0-2.0-3.4","3","1","zl5xeevl29zt9c3","","491","","sounds/C/TD/FE_04_TD.mp3","","32","","","TD_SUMMARY","","","","","","","","","","","","","","","","","","","","","FE","","1200,5700,10200,12900","2","1200","5700","10200","12900","1106.5999999940395","613.7999999821186","null","null","__________________________497.5_2306.5999999940395_4863.9000000059605_6313.799999982119_8924.699999988079_10345.09999999404_14119.799999982119","1","","","","",""
"html-button-response","313","1898311","0.0-8.0-2.0-0.5","3","1","zl5xeevl29zt9c3","","1450.300000011921","","<p>Trial 6 of 36</p>","0","","","","","","","","","","","","","","","","","","","","","","","","","PU","sounds/syllables/pu_SWS.wav","3300,6900,8700,10500","3","","","","","","","","","","","","","","",""
