"trial_type","trial_index","time_elapsed","internal_node_id","counterbalance","lang_instruct","ParticipantID","view_history","rt","url","stimulus","button_pressed","key_press","correctRESP","correct","designation","location","correctanswer","timeouts","pause_rt01","pause_rt02","train_file","numKeyPress","sound","fam_type","SYLLABLE","EXEMPLAR","TD_LOCS","TD_TYPE","TDLOC_01","TDLOC_02","TDLOC_03","TDLOC_04","TD_RT_01","TD_RT_02","TD_RT_03","TD_RT_04","TD_SUBJ_RTs","number_of_plays","responses","slider_start","response","question_order","syllable","syllable_type"
"pavlovia","0","6","0.0-0.0","3","0","cug30k3oy2t694b","","","","","","","","","","","","","","","","","","","","","","","","","","","","","","","","","","","","","",""
"instructions","1","70631","0.0-1.0","3","0","cug30k3oy2t694b","[{""page_index"":0,""viewing_time"":10824},{""page_index"":1,""viewing_time"":59798}]","70623.5","","","","","","","","","","","","","","","","","","","","","","","","","","","","","","","","","","","",""
"external-html","2","74154","0.0-2.0","3","0","cug30k3oy2t694b","","3400.8000000715256","consent/consent.html","","","","","","","","","","","","","","","","","","","","","","","","","","","","","","","","","","",""
"html-button-response","3","77513","0.0-3.0-0.0-0.0","3","0","cug30k3oy2t694b","","3356.2999999523163","","<p>Welcome to the study. You will first complete a short volume calibration and headphone check.</p><p>Please make sure you are in a quiet listening environment, that you are wearing headphones, and that your computer's volume is turned on.<p></p>","0","","","","","","","","","","","","","","","","","","","","","","","","","","","","","","","","",""
"html-button-response","4","86727","0.0-3.0-0.0-1.0","3","0","cug30k3oy2t694b","","8960.299999952316","","<p>The volume calibration will be first.</p><p>You will hear a thirty-second noise. Please adjust your computer's volume so that this noise is being presented at a comfortable level.<p></p>","0","","","","","","","","","","","","","","","","","","","","","","","","","","","","","","","","",""
"audio-button-response","5","116988","0.0-3.0-0.0-2.0","3","0","cug30k3oy2t694b","","null","","audCalib/volumetest.mp3","null","","","","","","","","","","","","","","","","","","","","","","","","","","","","","","","","",""
"html-button-response","6","128701","0.0-3.0-1.0-0.0","3","0","cug30k3oy2t694b","","11712","","<p>You will now complete a short headphone check.</p><p>On each trial, you will hear three tones. One of these tones will be quieter than the others. Your task is to identify whether the quiet tone occured first, second, or third.</p><p>There are six trials in total.<p></p>","0","","","","","","","","","","","","","","","","","","","","","","","","","","","","","","","","",""
"html-keyboard-response","7","129457","0.0-3.0-1.0-1.0-0.0","3","0","cug30k3oy2t694b","","null","","<div style=""font-size:60px;"">+</div>","","null","","","","","","","","","","","","","","","","","","","","","","","","","","","","","","","",""
"audio-button-response","8","135208","0.0-3.0-1.0-1.0-1.0","3","0","cug30k3oy2t694b","","5747","","audCalib/t1_2.mp3","0","","0","1","headphone-test","","","","","","","","","","","","","","","","","","","","","","","","","","","","",""
"html-keyboard-response","9","135967","0.0-3.0-1.0-1.0-0.1","3","0","cug30k3oy2t694b","","null","","<div style=""font-size:60px;"">+</div>","","null","","","","","","","","","","","","","","","","","","","","","","","","","","","","","","","",""
"audio-button-response","10","140499","0.0-3.0-1.0-1.0-1.1","3","0","cug30k3oy2t694b","","4534","","audCalib/t2_2.mp3","1","","1","1","headphone-test","","","","","","","","","","","","","","","","","","","","","","","","","","","","",""
"html-keyboard-response","11","141255","0.0-3.0-1.0-1.0-0.2","3","0","cug30k3oy2t694b","","null","","<div style=""font-size:60px;"">+</div>","","null","","","","","","","","","","","","","","","","","","","","","","","","","","","","","","","",""
"audio-button-response","12","145749","0.0-3.0-1.0-1.0-1.2","3","0","cug30k3oy2t694b","","4493","","audCalib/t1_1.mp3","0","","0","1","headphone-test","","","","","","","","","","","","","","","","","","","","","","","","","","","","",""
"html-keyboard-response","13","146505","0.0-3.0-1.0-1.0-0.3","3","0","cug30k3oy2t694b","","null","","<div style=""font-size:60px;"">+</div>","","null","","","","","","","","","","","","","","","","","","","","","","","","","","","","","","","",""
"audio-button-response","14","151527","0.0-3.0-1.0-1.0-1.3","3","0","cug30k3oy2t694b","","5021","","audCalib/t2_1.mp3","1","","1","1","headphone-test","","","","","","","","","","","","","","","","","","","","","","","","","","","","",""
"html-keyboard-response","15","152283","0.0-3.0-1.0-1.0-0.4","3","0","cug30k3oy2t694b","","null","","<div style=""font-size:60px;"">+</div>","","null","","","","","","","","","","","","","","","","","","","","","","","","","","","","","","","",""
"audio-button-response","16","157170","0.0-3.0-1.0-1.0-1.4","3","0","cug30k3oy2t694b","","4882","","audCalib/t3_1.mp3","2","","2","1","headphone-test","","","","","","","","","","","","","","","","","","","","","","","","","","","","",""
"html-keyboard-response","17","157924","0.0-3.0-1.0-1.0-0.5","3","0","cug30k3oy2t694b","","null","","<div style=""font-size:60px;"">+</div>","","null","","","","","","","","","","","","","","","","","","","","","","","","","","","","","","","",""
"audio-button-response","18","162114","0.0-3.0-1.0-1.0-1.5","3","0","cug30k3oy2t694b","","4185","","audCalib/t3_2.mp3","2","","2","1","headphone-test","","","","","","","","","","","","","","","","","","","","","","","","","","","","",""
"html-button-response","19","165339","0.0-3.0-2.0","3","0","cug30k3oy2t694b","","2971.8000000715256","","<p>The volume calibration and headphone check are now complete.</p>","0","","","","","","","","","","","","","","","","","","","","","","","","","","","","","","","","",""
"instructions","20","187320","0.0-4.0-0.0","3","0","cug30k3oy2t694b","[{""page_index"":0,""viewing_time"":3392.7999999523163},{""page_index"":1,""viewing_time"":15746.600000023842},{""page_index"":2,""viewing_time"":2840.8000000715256}]","21980.399999976158","","","","","","","","","","","","","","","","","","","","","","","","","","","","","","","","","","","",""
"audio-keyboard-response","21","187618","0.0-4.0-1.0-0.0","3","0","cug30k3oy2t694b","","null","","sounds/induction/right_rev/ru_SWS.wav","","null","","","","","","","","","","","","","","","","","","","","","","","","","","","","","","","",""
"html-button-response","22","189249","0.0-4.0-1.0-1.0","3","0","cug30k3oy2t694b","","1627.5","","Was the sound coming from the left or the right?","1","","","1","INDUCTION-JUDGMENT","right","1","","","","","","","","","","","","","","","","","","","","","","","","","","",""
"html-keyboard-response","23","190250","0.0-4.0-1.0-2.0","3","0","cug30k3oy2t694b","","null","","<p style=""color:#054d00;""><b>Correct!</b></p>","","null","","","","","","","","","","","","","","","","","","","","","","","","","","","","","","","",""
"audio-keyboard-response","24","191052","0.0-4.0-1.0-0.1","3","0","cug30k3oy2t694b","","null","","sounds/induction/right_rev/su_SWS.wav","","null","","","","","","","","","","","","","","","","","","","","","","","","","","","","","","","",""
"html-button-response","25","191946","0.0-4.0-1.0-1.1","3","0","cug30k3oy2t694b","","892.8000000715256","","Was the sound coming from the left or the right?","1","","","1","INDUCTION-JUDGMENT","right","1","","","","","","","","","","","","","","","","","","","","","","","","","","",""
"html-keyboard-response","26","192952","0.0-4.0-1.0-2.1","3","0","cug30k3oy2t694b","","null","","<p style=""color:#054d00;""><b>Correct!</b></p>","","null","","","","","","","","","","","","","","","","","","","","","","","","","","","","","","","",""
"audio-keyboard-response","27","193763","0.0-4.0-1.0-0.2","3","0","cug30k3oy2t694b","","null","","sounds/induction/right_rev/ge_SWS.wav","","null","","","","","","","","","","","","","","","","","","","","","","","","","","","","","","","",""
"html-button-response","28","194748","0.0-4.0-1.0-1.2","3","0","cug30k3oy2t694b","","984","","Was the sound coming from the left or the right?","1","","","1","INDUCTION-JUDGMENT","right","1","","","","","","","","","","","","","","","","","","","","","","","","","","",""
"html-keyboard-response","29","195749","0.0-4.0-1.0-2.2","3","0","cug30k3oy2t694b","","null","","<p style=""color:#054d00;""><b>Correct!</b></p>","","null","","","","","","","","","","","","","","","","","","","","","","","","","","","","","","","",""
"audio-keyboard-response","30","196555","0.0-4.0-1.0-0.3","3","0","cug30k3oy2t694b","","null","","sounds/induction/left_rev/ru_SWS.wav","","null","","","","","","","","","","","","","","","","","","","","","","","","","","","","","","","",""
"html-button-response","31","197261","0.0-4.0-1.0-1.3","3","0","cug30k3oy2t694b","","704.6000000238419","","Was the sound coming from the left or the right?","0","","","1","INDUCTION-JUDGMENT","left","0","","","","","","","","","","","","","","","","","","","","","","","","","","",""
"html-keyboard-response","32","198264","0.0-4.0-1.0-2.3","3","0","cug30k3oy2t694b","","null","","<p style=""color:#054d00;""><b>Correct!</b></p>","","null","","","","","","","","","","","","","","","","","","","","","","","","","","","","","","","",""
"audio-keyboard-response","33","199068","0.0-4.0-1.0-0.4","3","0","cug30k3oy2t694b","","null","","sounds/induction/right_rev/ko_SWS.wav","","null","","","","","","","","","","","","","","","","","","","","","","","","","","","","","","","",""
"html-button-response","34","199846","0.0-4.0-1.0-1.4","3","0","cug30k3oy2t694b","","776.8000000715256","","Was the sound coming from the left or the right?","1","","","1","INDUCTION-JUDGMENT","right","1","","","","","","","","","","","","","","","","","","","","","","","","","","",""
"html-keyboard-response","35","200847","0.0-4.0-1.0-2.4","3","0","cug30k3oy2t694b","","null","","<p style=""color:#054d00;""><b>Correct!</b></p>","","null","","","","","","","","","","","","","","","","","","","","","","","","","","","","","","","",""
"audio-keyboard-response","36","201651","0.0-4.0-1.0-0.5","3","0","cug30k3oy2t694b","","null","","sounds/induction/left_rev/ko_SWS.wav","","null","","","","","","","","","","","","","","","","","","","","","","","","","","","","","","","",""
"html-button-response","37","202655","0.0-4.0-1.0-1.5","3","0","cug30k3oy2t694b","","1003.3000000715256","","Was the sound coming from the left or the right?","0","","","1","INDUCTION-JUDGMENT","left","0","","","","","","","","","","","","","","","","","","","","","","","","","","",""
"html-keyboard-response","38","203656","0.0-4.0-1.0-2.5","3","0","cug30k3oy2t694b","","null","","<p style=""color:#054d00;""><b>Correct!</b></p>","","null","","","","","","","","","","","","","","","","","","","","","","","","","","","","","","","",""
"audio-keyboard-response","39","204460","0.0-4.0-1.0-0.6","3","0","cug30k3oy2t694b","","null","","sounds/induction/right_rev/ta_SWS.wav","","null","","","","","","","","","","","","","","","","","","","","","","","","","","","","","","","",""
"html-button-response","40","205288","0.0-4.0-1.0-1.6","3","0","cug30k3oy2t694b","","826.8999999761581","","Was the sound coming from the left or the right?","1","","","1","INDUCTION-JUDGMENT","right","1","","","","","","","","","","","","","","","","","","","","","","","","","","",""
"html-keyboard-response","41","206290","0.0-4.0-1.0-2.6","3","0","cug30k3oy2t694b","","null","","<p style=""color:#054d00;""><b>Correct!</b></p>","","null","","","","","","","","","","","","","","","","","","","","","","","","","","","","","","","",""
"audio-keyboard-response","42","207095","0.0-4.0-1.0-0.7","3","0","cug30k3oy2t694b","","null","","sounds/induction/left_rev/fu_SWS.wav","","null","","","","","","","","","","","","","","","","","","","","","","","","","","","","","","","",""
"html-button-response","43","207953","0.0-4.0-1.0-1.7","3","0","cug30k3oy2t694b","","856.6000000238419","","Was the sound coming from the left or the right?","0","","","1","INDUCTION-JUDGMENT","left","0","","","","","","","","","","","","","","","","","","","","","","","","","","",""
"html-keyboard-response","44","208955","0.0-4.0-1.0-2.7","3","0","cug30k3oy2t694b","","null","","<p style=""color:#054d00;""><b>Correct!</b></p>","","null","","","","","","","","","","","","","","","","","","","","","","","","","","","","","","","",""
"audio-keyboard-response","45","209759","0.0-4.0-1.0-0.8","3","0","cug30k3oy2t694b","","null","","sounds/induction/right_rev/re_SWS.wav","","null","","","","","","","","","","","","","","","","","","","","","","","","","","","","","","","",""
"html-button-response","46","210539","0.0-4.0-1.0-1.8","3","0","cug30k3oy2t694b","","778.1000000238419","","Was the sound coming from the left or the right?","1","","","1","INDUCTION-JUDGMENT","right","1","","","","","","","","","","","","","","","","","","","","","","","","","","",""
"html-keyboard-response","47","211543","0.0-4.0-1.0-2.8","3","0","cug30k3oy2t694b","","null","","<p style=""color:#054d00;""><b>Correct!</b></p>","","null","","","","","","","","","","","","","","","","","","","","","","","","","","","","","","","",""
"audio-keyboard-response","48","212343","0.0-4.0-1.0-0.9","3","0","cug30k3oy2t694b","","null","","sounds/induction/right_rev/ni_SWS.wav","","null","","","","","","","","","","","","","","","","","","","","","","","","","","","","","","","",""
"html-button-response","49","213124","0.0-4.0-1.0-1.9","3","0","cug30k3oy2t694b","","780.1999999284744","","Was the sound coming from the left or the right?","1","","","1","INDUCTION-JUDGMENT","right","1","","","","","","","","","","","","","","","","","","","","","","","","","","",""
"html-keyboard-response","50","214128","0.0-4.0-1.0-2.9","3","0","cug30k3oy2t694b","","null","","<p style=""color:#054d00;""><b>Correct!</b></p>","","null","","","","","","","","","","","","","","","","","","","","","","","","","","","","","","","",""
"audio-keyboard-response","51","214932","0.0-4.0-1.0-0.10","3","0","cug30k3oy2t694b","","null","","sounds/induction/left_rev/me_SWS.wav","","null","","","","","","","","","","","","","","","","","","","","","","","","","","","","","","","",""
"html-button-response","52","215501","0.0-4.0-1.0-1.10","3","0","cug30k3oy2t694b","","567.8999999761581","","Was the sound coming from the left or the right?","0","","","1","INDUCTION-JUDGMENT","left","0","","","","","","","","","","","","","","","","","","","","","","","","","","",""
"html-keyboard-response","53","216503","0.0-4.0-1.0-2.10","3","0","cug30k3oy2t694b","","null","","<p style=""color:#054d00;""><b>Correct!</b></p>","","null","","","","","","","","","","","","","","","","","","","","","","","","","","","","","","","",""
"audio-keyboard-response","54","217306","0.0-4.0-1.0-0.11","3","0","cug30k3oy2t694b","","null","","sounds/induction/left_rev/fe_SWS.wav","","null","","","","","","","","","","","","","","","","","","","","","","","","","","","","","","","",""
"html-button-response","55","217982","0.0-4.0-1.0-1.11","3","0","cug30k3oy2t694b","","675.1000000238419","","Was the sound coming from the left or the right?","0","","","1","INDUCTION-JUDGMENT","left","0","","","","","","","","","","","","","","","","","","","","","","","","","","",""
"html-keyboard-response","56","218986","0.0-4.0-1.0-2.11","3","0","cug30k3oy2t694b","","null","","<p style=""color:#054d00;""><b>Correct!</b></p>","","null","","","","","","","","","","","","","","","","","","","","","","","","","","","","","","","",""
"audio-keyboard-response","57","219791","0.0-4.0-1.0-0.12","3","0","cug30k3oy2t694b","","null","","sounds/induction/right_rev/me_SWS.wav","","null","","","","","","","","","","","","","","","","","","","","","","","","","","","","","","","",""
"html-button-response","58","220543","0.0-4.0-1.0-1.12","3","0","cug30k3oy2t694b","","750.8999999761581","","Was the sound coming from the left or the right?","1","","","1","INDUCTION-JUDGMENT","right","1","","","","","","","","","","","","","","","","","","","","","","","","","","",""
"html-keyboard-response","59","221544","0.0-4.0-1.0-2.12","3","0","cug30k3oy2t694b","","null","","<p style=""color:#054d00;""><b>Correct!</b></p>","","null","","","","","","","","","","","","","","","","","","","","","","","","","","","","","","","",""
"audio-keyboard-response","60","222351","0.0-4.0-1.0-0.13","3","0","cug30k3oy2t694b","","null","","sounds/induction/left_rev/ta_SWS.wav","","null","","","","","","","","","","","","","","","","","","","","","","","","","","","","","","","",""
"html-button-response","61","222887","0.0-4.0-1.0-1.13","3","0","cug30k3oy2t694b","","535.5","","Was the sound coming from the left or the right?","0","","","1","INDUCTION-JUDGMENT","left","0","","","","","","","","","","","","","","","","","","","","","","","","","","",""
"html-keyboard-response","62","223892","0.0-4.0-1.0-2.13","3","0","cug30k3oy2t694b","","null","","<p style=""color:#054d00;""><b>Correct!</b></p>","","null","","","","","","","","","","","","","","","","","","","","","","","","","","","","","","","",""
"audio-keyboard-response","63","224690","0.0-4.0-1.0-0.14","3","0","cug30k3oy2t694b","","null","","sounds/induction/left_rev/pu_SWS.wav","","null","","","","","","","","","","","","","","","","","","","","","","","","","","","","","","","",""
"html-button-response","64","225385","0.0-4.0-1.0-1.14","3","0","cug30k3oy2t694b","","693.1999999284744","","Was the sound coming from the left or the right?","0","","","1","INDUCTION-JUDGMENT","left","0","","","","","","","","","","","","","","","","","","","","","","","","","","",""
"html-keyboard-response","65","226388","0.0-4.0-1.0-2.14","3","0","cug30k3oy2t694b","","null","","<p style=""color:#054d00;""><b>Correct!</b></p>","","null","","","","","","","","","","","","","","","","","","","","","","","","","","","","","","","",""
"audio-keyboard-response","66","227193","0.0-4.0-1.0-0.15","3","0","cug30k3oy2t694b","","null","","sounds/induction/left_rev/su_SWS.wav","","null","","","","","","","","","","","","","","","","","","","","","","","","","","","","","","","",""
"html-button-response","67","227793","0.0-4.0-1.0-1.15","3","0","cug30k3oy2t694b","","599.1000000238419","","Was the sound coming from the left or the right?","0","","","1","INDUCTION-JUDGMENT","left","0","","","","","","","","","","","","","","","","","","","","","","","","","","",""
"html-keyboard-response","68","228797","0.0-4.0-1.0-2.15","3","0","cug30k3oy2t694b","","null","","<p style=""color:#054d00;""><b>Correct!</b></p>","","null","","","","","","","","","","","","","","","","","","","","","","","","","","","","","","","",""
"audio-keyboard-response","69","229602","0.0-4.0-1.0-0.16","3","0","cug30k3oy2t694b","","null","","sounds/induction/left_rev/ti_SWS.wav","","null","","","","","","","","","","","","","","","","","","","","","","","","","","","","","","","",""
"html-button-response","70","230203","0.0-4.0-1.0-1.16","3","0","cug30k3oy2t694b","","598.6000000238419","","Was the sound coming from the left or the right?","0","","","1","INDUCTION-JUDGMENT","left","0","","","","","","","","","","","","","","","","","","","","","","","","","","",""
"html-keyboard-response","71","231207","0.0-4.0-1.0-2.16","3","0","cug30k3oy2t694b","","null","","<p style=""color:#054d00;""><b>Correct!</b></p>","","null","","","","","","","","","","","","","","","","","","","","","","","","","","","","","","","",""
"audio-keyboard-response","72","232011","0.0-4.0-1.0-0.17","3","0","cug30k3oy2t694b","","null","","sounds/induction/right_rev/ta_SWS.wav","","null","","","","","","","","","","","","","","","","","","","","","","","","","","","","","","","",""
"html-button-response","73","232700","0.0-4.0-1.0-1.17","3","0","cug30k3oy2t694b","","687.6000000238419","","Was the sound coming from the left or the right?","1","","","1","INDUCTION-JUDGMENT","right","1","","","","","","","","","","","","","","","","","","","","","","","","","","",""
"html-keyboard-response","74","233702","0.0-4.0-1.0-2.17","3","0","cug30k3oy2t694b","","null","","<p style=""color:#054d00;""><b>Correct!</b></p>","","null","","","","","","","","","","","","","","","","","","","","","","","","","","","","","","","",""
"audio-keyboard-response","75","234507","0.0-4.0-1.0-0.18","3","0","cug30k3oy2t694b","","null","","sounds/induction/right_rev/me_SWS.wav","","null","","","","","","","","","","","","","","","","","","","","","","","","","","","","","","","",""
"html-button-response","76","235157","0.0-4.0-1.0-1.18","3","0","cug30k3oy2t694b","","648.6999999284744","","Was the sound coming from the left or the right?","1","","","1","INDUCTION-JUDGMENT","right","1","","","","","","","","","","","","","","","","","","","","","","","","","","",""
"html-keyboard-response","77","236162","0.0-4.0-1.0-2.18","3","0","cug30k3oy2t694b","","null","","<p style=""color:#054d00;""><b>Correct!</b></p>","","null","","","","","","","","","","","","","","","","","","","","","","","","","","","","","","","",""
"audio-keyboard-response","78","236963","0.0-4.0-1.0-0.19","3","0","cug30k3oy2t694b","","null","","sounds/induction/right_rev/fe_SWS.wav","","null","","","","","","","","","","","","","","","","","","","","","","","","","","","","","","","",""
"html-button-response","79","237591","0.0-4.0-1.0-1.19","3","0","cug30k3oy2t694b","","626.1999999284744","","Was the sound coming from the left or the right?","1","","","1","INDUCTION-JUDGMENT","right","1","","","","","","","","","","","","","","","","","","","","","","","","","","",""
"html-keyboard-response","80","238597","0.0-4.0-1.0-2.19","3","0","cug30k3oy2t694b","","null","","<p style=""color:#054d00;""><b>Correct!</b></p>","","null","","","","","","","","","","","","","","","","","","","","","","","","","","","","","","","",""
"audio-keyboard-response","81","239407","0.0-4.0-1.0-0.20","3","0","cug30k3oy2t694b","","null","","sounds/induction/left_rev/ko_SWS.wav","","null","","","","","","","","","","","","","","","","","","","","","","","","","","","","","","","",""
"html-button-response","82","239983","0.0-4.0-1.0-1.20","3","0","cug30k3oy2t694b","","574.6000000238419","","Was the sound coming from the left or the right?","0","","","1","INDUCTION-JUDGMENT","left","0","","","","","","","","","","","","","","","","","","","","","","","","","","",""
"html-keyboard-response","83","240989","0.0-4.0-1.0-2.20","3","0","cug30k3oy2t694b","","null","","<p style=""color:#054d00;""><b>Correct!</b></p>","","null","","","","","","","","","","","","","","","","","","","","","","","","","","","","","","","",""
"audio-keyboard-response","84","241799","0.0-4.0-1.0-0.21","3","0","cug30k3oy2t694b","","null","","sounds/induction/left_rev/ge_SWS.wav","","null","","","","","","","","","","","","","","","","","","","","","","","","","","","","","","","",""
"html-button-response","85","242529","0.0-4.0-1.0-1.21","3","0","cug30k3oy2t694b","","728.2000000476837","","Was the sound coming from the left or the right?","0","","","1","INDUCTION-JUDGMENT","left","0","","","","","","","","","","","","","","","","","","","","","","","","","","",""
"html-keyboard-response","86","243533","0.0-4.0-1.0-2.21","3","0","cug30k3oy2t694b","","null","","<p style=""color:#054d00;""><b>Correct!</b></p>","","null","","","","","","","","","","","","","","","","","","","","","","","","","","","","","","","",""
"audio-keyboard-response","87","244342","0.0-4.0-1.0-0.22","3","0","cug30k3oy2t694b","","null","","sounds/induction/right_rev/ni_SWS.wav","","null","","","","","","","","","","","","","","","","","","","","","","","","","","","","","","","",""
"html-button-response","88","244913","0.0-4.0-1.0-1.22","3","0","cug30k3oy2t694b","","570.5","","Was the sound coming from the left or the right?","1","","","1","INDUCTION-JUDGMENT","right","1","","","","","","","","","","","","","","","","","","","","","","","","","","",""
"html-keyboard-response","89","245915","0.0-4.0-1.0-2.22","3","0","cug30k3oy2t694b","","null","","<p style=""color:#054d00;""><b>Correct!</b></p>","","null","","","","","","","","","","","","","","","","","","","","","","","","","","","","","","","",""
"audio-keyboard-response","90","246723","0.0-4.0-1.0-0.23","3","0","cug30k3oy2t694b","","null","","sounds/induction/right_rev/re_SWS.wav","","null","","","","","","","","","","","","","","","","","","","","","","","","","","","","","","","",""
"html-button-response","91","247259","0.0-4.0-1.0-1.23","3","0","cug30k3oy2t694b","","534.6000000238419","","Was the sound coming from the left or the right?","1","","","1","INDUCTION-JUDGMENT","right","1","","","","","","","","","","","","","","","","","","","","","","","","","","",""
"html-keyboard-response","92","248263","0.0-4.0-1.0-2.23","3","0","cug30k3oy2t694b","","null","","<p style=""color:#054d00;""><b>Correct!</b></p>","","null","","","","","","","","","","","","","","","","","","","","","","","","","","","","","","","",""
"audio-keyboard-response","93","249068","0.0-4.0-1.0-0.24","3","0","cug30k3oy2t694b","","null","","sounds/induction/right_rev/ge_SWS.wav","","null","","","","","","","","","","","","","","","","","","","","","","","","","","","","","","","",""
"html-button-response","94","249523","0.0-4.0-1.0-1.24","3","0","cug30k3oy2t694b","","454.2000000476837","","Was the sound coming from the left or the right?","1","","","1","INDUCTION-JUDGMENT","right","1","","","","","","","","","","","","","","","","","","","","","","","","","","",""
"html-keyboard-response","95","250528","0.0-4.0-1.0-2.24","3","0","cug30k3oy2t694b","","null","","<p style=""color:#054d00;""><b>Correct!</b></p>","","null","","","","","","","","","","","","","","","","","","","","","","","","","","","","","","","",""
"audio-keyboard-response","96","251332","0.0-4.0-1.0-0.25","3","0","cug30k3oy2t694b","","null","","sounds/induction/left_rev/ru_SWS.wav","","null","","","","","","","","","","","","","","","","","","","","","","","","","","","","","","","",""
"html-button-response","97","251933","0.0-4.0-1.0-1.25","3","0","cug30k3oy2t694b","","599.5","","Was the sound coming from the left or the right?","0","","","1","INDUCTION-JUDGMENT","left","0","","","","","","","","","","","","","","","","","","","","","","","","","","",""
"html-keyboard-response","98","252938","0.0-4.0-1.0-2.25","3","0","cug30k3oy2t694b","","null","","<p style=""color:#054d00;""><b>Correct!</b></p>","","null","","","","","","","","","","","","","","","","","","","","","","","","","","","","","","","",""
"audio-keyboard-response","99","253742","0.0-4.0-1.0-0.26","3","0","cug30k3oy2t694b","","null","","sounds/induction/left_rev/fu_SWS.wav","","null","","","","","","","","","","","","","","","","","","","","","","","","","","","","","","","",""
"html-button-response","100","254278","0.0-4.0-1.0-1.26","3","0","cug30k3oy2t694b","","535.6000000238419","","Was the sound coming from the left or the right?","0","","","1","INDUCTION-JUDGMENT","left","0","","","","","","","","","","","","","","","","","","","","","","","","","","",""
"html-keyboard-response","101","255283","0.0-4.0-1.0-2.26","3","0","cug30k3oy2t694b","","null","","<p style=""color:#054d00;""><b>Correct!</b></p>","","null","","","","","","","","","","","","","","","","","","","","","","","","","","","","","","","",""
"audio-keyboard-response","102","256087","0.0-4.0-1.0-0.27","3","0","cug30k3oy2t694b","","null","","sounds/induction/left_rev/re_SWS.wav","","null","","","","","","","","","","","","","","","","","","","","","","","","","","","","","","","",""
"html-button-response","103","256817","0.0-4.0-1.0-1.27","3","0","cug30k3oy2t694b","","728.3999999761581","","Was the sound coming from the left or the right?","0","","","1","INDUCTION-JUDGMENT","left","0","","","","","","","","","","","","","","","","","","","","","","","","","","",""
"html-keyboard-response","104","257820","0.0-4.0-1.0-2.27","3","0","cug30k3oy2t694b","","null","","<p style=""color:#054d00;""><b>Correct!</b></p>","","null","","","","","","","","","","","","","","","","","","","","","","","","","","","","","","","",""
"audio-keyboard-response","105","258624","0.0-4.0-1.0-0.28","3","0","cug30k3oy2t694b","","null","","sounds/induction/left_rev/me_SWS.wav","","null","","","","","","","","","","","","","","","","","","","","","","","","","","","","","","","",""
"html-button-response","106","259160","0.0-4.0-1.0-1.28","3","0","cug30k3oy2t694b","","534.7000000476837","","Was the sound coming from the left or the right?","0","","","1","INDUCTION-JUDGMENT","left","0","","","","","","","","","","","","","","","","","","","","","","","","","","",""
"html-keyboard-response","107","260165","0.0-4.0-1.0-2.28","3","0","cug30k3oy2t694b","","null","","<p style=""color:#054d00;""><b>Correct!</b></p>","","null","","","","","","","","","","","","","","","","","","","","","","","","","","","","","","","",""
"audio-keyboard-response","108","260964","0.0-4.0-1.0-0.29","3","0","cug30k3oy2t694b","","null","","sounds/induction/left_rev/ti_SWS.wav","","null","","","","","","","","","","","","","","","","","","","","","","","","","","","","","","","",""
"html-button-response","109","261402","0.0-4.0-1.0-1.29","3","0","cug30k3oy2t694b","","436","","Was the sound coming from the left or the right?","0","","","1","INDUCTION-JUDGMENT","left","0","","","","","","","","","","","","","","","","","","","","","","","","","","",""
"html-keyboard-response","110","262403","0.0-4.0-1.0-2.29","3","0","cug30k3oy2t694b","","null","","<p style=""color:#054d00;""><b>Correct!</b></p>","","null","","","","","","","","","","","","","","","","","","","","","","","","","","","","","","","",""
"audio-keyboard-response","111","263205","0.0-4.0-1.0-0.30","3","0","cug30k3oy2t694b","","null","","sounds/induction/left_rev/fe_SWS.wav","","null","","","","","","","","","","","","","","","","","","","","","","","","","","","","","","","",""
"html-button-response","112","263723","0.0-4.0-1.0-1.30","3","0","cug30k3oy2t694b","","516.2999999523163","","Was the sound coming from the left or the right?","0","","","1","INDUCTION-JUDGMENT","left","0","","","","","","","","","","","","","","","","","","","","","","","","","","",""
"html-keyboard-response","113","264726","0.0-4.0-1.0-2.30","3","0","cug30k3oy2t694b","","null","","<p style=""color:#054d00;""><b>Correct!</b></p>","","null","","","","","","","","","","","","","","","","","","","","","","","","","","","","","","","",""
"audio-keyboard-response","114","265528","0.0-4.0-1.0-0.31","3","0","cug30k3oy2t694b","","null","","sounds/induction/right_rev/pu_SWS.wav","","null","","","","","","","","","","","","","","","","","","","","","","","","","","","","","","","",""
"html-button-response","115","266084","0.0-4.0-1.0-1.31","3","0","cug30k3oy2t694b","","554.6000000238419","","Was the sound coming from the left or the right?","1","","","1","INDUCTION-JUDGMENT","right","1","","","","","","","","","","","","","","","","","","","","","","","","","","",""
"html-keyboard-response","116","267088","0.0-4.0-1.0-2.31","3","0","cug30k3oy2t694b","","null","","<p style=""color:#054d00;""><b>Correct!</b></p>","","null","","","","","","","","","","","","","","","","","","","","","","","","","","","","","","","",""
"audio-keyboard-response","117","267891","0.0-4.0-1.0-0.32","3","0","cug30k3oy2t694b","","null","","sounds/induction/right_rev/fe_SWS.wav","","null","","","","","","","","","","","","","","","","","","","","","","","","","","","","","","","",""
"html-button-response","118","268324","0.0-4.0-1.0-1.32","3","0","cug30k3oy2t694b","","432.39999997615814","","Was the sound coming from the left or the right?","1","","","1","INDUCTION-JUDGMENT","right","1","","","","","","","","","","","","","","","","","","","","","","","","","","",""
"html-keyboard-response","119","269326","0.0-4.0-1.0-2.32","3","0","cug30k3oy2t694b","","null","","<p style=""color:#054d00;""><b>Correct!</b></p>","","null","","","","","","","","","","","","","","","","","","","","","","","","","","","","","","","",""
"audio-keyboard-response","120","270132","0.0-4.0-1.0-0.33","3","0","cug30k3oy2t694b","","null","","sounds/induction/right_rev/pu_SWS.wav","","null","","","","","","","","","","","","","","","","","","","","","","","","","","","","","","","",""
"html-button-response","121","270781","0.0-4.0-1.0-1.33","3","0","cug30k3oy2t694b","","648.2999999523163","","Was the sound coming from the left or the right?","1","","","1","INDUCTION-JUDGMENT","right","1","","","","","","","","","","","","","","","","","","","","","","","","","","",""
"html-keyboard-response","122","271783","0.0-4.0-1.0-2.33","3","0","cug30k3oy2t694b","","null","","<p style=""color:#054d00;""><b>Correct!</b></p>","","null","","","","","","","","","","","","","","","","","","","","","","","","","","","","","","","",""
"audio-keyboard-response","123","272582","0.0-4.0-1.0-0.34","3","0","cug30k3oy2t694b","","null","","sounds/induction/right_rev/ti_SWS.wav","","null","","","","","","","","","","","","","","","","","","","","","","","","","","","","","","","",""
"html-button-response","124","272966","0.0-4.0-1.0-1.34","3","0","cug30k3oy2t694b","","383.7999999523163","","Was the sound coming from the left or the right?","1","","","1","INDUCTION-JUDGMENT","right","1","","","","","","","","","","","","","","","","","","","","","","","","","","",""
"html-keyboard-response","125","273969","0.0-4.0-1.0-2.34","3","0","cug30k3oy2t694b","","null","","<p style=""color:#054d00;""><b>Correct!</b></p>","","null","","","","","","","","","","","","","","","","","","","","","","","","","","","","","","","",""
"audio-keyboard-response","126","274772","0.0-4.0-1.0-0.35","3","0","cug30k3oy2t694b","","null","","sounds/induction/right_rev/ru_SWS.wav","","null","","","","","","","","","","","","","","","","","","","","","","","","","","","","","","","",""
"html-button-response","127","275160","0.0-4.0-1.0-1.35","3","0","cug30k3oy2t694b","","387.40000009536743","","Was the sound coming from the left or the right?","1","","","1","INDUCTION-JUDGMENT","right","1","","","","","","","","","","","","","","","","","","","","","","","","","","",""
"html-keyboard-response","128","276165","0.0-4.0-1.0-2.35","3","0","cug30k3oy2t694b","","null","","<p style=""color:#054d00;""><b>Correct!</b></p>","","null","","","","","","","","","","","","","","","","","","","","","","","","","","","","","","","",""
"audio-keyboard-response","129","276967","0.0-4.0-1.0-0.36","3","0","cug30k3oy2t694b","","null","","sounds/induction/right_rev/ti_SWS.wav","","null","","","","","","","","","","","","","","","","","","","","","","","","","","","","","","","",""
"html-button-response","130","277329","0.0-4.0-1.0-1.36","3","0","cug30k3oy2t694b","","362","","Was the sound coming from the left or the right?","1","","","1","INDUCTION-JUDGMENT","right","1","","","","","","","","","","","","","","","","","","","","","","","","","","",""
"html-keyboard-response","131","278334","0.0-4.0-1.0-2.36","3","0","cug30k3oy2t694b","","null","","<p style=""color:#054d00;""><b>Correct!</b></p>","","null","","","","","","","","","","","","","","","","","","","","","","","","","","","","","","","",""
"audio-keyboard-response","132","279139","0.0-4.0-1.0-0.37","3","0","cug30k3oy2t694b","","null","","sounds/induction/left_rev/ni_SWS.wav","","null","","","","","","","","","","","","","","","","","","","","","","","","","","","","","","","",""
"html-button-response","133","279707","0.0-4.0-1.0-1.37","3","0","cug30k3oy2t694b","","567.9000000953674","","Was the sound coming from the left or the right?","0","","","1","INDUCTION-JUDGMENT","left","0","","","","","","","","","","","","","","","","","","","","","","","","","","",""
"html-keyboard-response","134","280712","0.0-4.0-1.0-2.37","3","0","cug30k3oy2t694b","","null","","<p style=""color:#054d00;""><b>Correct!</b></p>","","null","","","","","","","","","","","","","","","","","","","","","","","","","","","","","","","",""
"audio-keyboard-response","135","281513","0.0-4.0-1.0-0.38","3","0","cug30k3oy2t694b","","null","","sounds/induction/right_rev/su_SWS.wav","","null","","","","","","","","","","","","","","","","","","","","","","","","","","","","","","","",""
"html-button-response","136","282115","0.0-4.0-1.0-1.38","3","0","cug30k3oy2t694b","","601.3999999761581","","Was the sound coming from the left or the right?","1","","","1","INDUCTION-JUDGMENT","right","1","","","","","","","","","","","","","","","","","","","","","","","","","","",""
"html-keyboard-response","137","283118","0.0-4.0-1.0-2.38","3","0","cug30k3oy2t694b","","null","","<p style=""color:#054d00;""><b>Correct!</b></p>","","null","","","","","","","","","","","","","","","","","","","","","","","","","","","","","","","",""
"audio-keyboard-response","138","283922","0.0-4.0-1.0-0.39","3","0","cug30k3oy2t694b","","null","","sounds/induction/left_rev/su_SWS.wav","","null","","","","","","","","","","","","","","","","","","","","","","","","","","","","","","","",""
"html-button-response","139","284509","0.0-4.0-1.0-1.39","3","0","cug30k3oy2t694b","","585.6000000238419","","Was the sound coming from the left or the right?","0","","","1","INDUCTION-JUDGMENT","left","0","","","","","","","","","","","","","","","","","","","","","","","","","","",""
"html-keyboard-response","140","285509","0.0-4.0-1.0-2.39","3","0","cug30k3oy2t694b","","null","","<p style=""color:#054d00;""><b>Correct!</b></p>","","null","","","","","","","","","","","","","","","","","","","","","","","","","","","","","","","",""
"audio-keyboard-response","141","286314","0.0-4.0-1.0-0.40","3","0","cug30k3oy2t694b","","null","","sounds/induction/right_rev/ko_SWS.wav","","null","","","","","","","","","","","","","","","","","","","","","","","","","","","","","","","",""
"html-button-response","142","286982","0.0-4.0-1.0-1.40","3","0","cug30k3oy2t694b","","666.6000000238419","","Was the sound coming from the left or the right?","1","","","1","INDUCTION-JUDGMENT","right","1","","","","","","","","","","","","","","","","","","","","","","","","","","",""
"html-keyboard-response","143","287986","0.0-4.0-1.0-2.40","3","0","cug30k3oy2t694b","","null","","<p style=""color:#054d00;""><b>Correct!</b></p>","","null","","","","","","","","","","","","","","","","","","","","","","","","","","","","","","","",""
"audio-keyboard-response","144","288793","0.0-4.0-1.0-0.41","3","0","cug30k3oy2t694b","","null","","sounds/induction/left_rev/ta_SWS.wav","","null","","","","","","","","","","","","","","","","","","","","","","","","","","","","","","","",""
"html-button-response","145","289463","0.0-4.0-1.0-1.41","3","0","cug30k3oy2t694b","","669","","Was the sound coming from the left or the right?","0","","","1","INDUCTION-JUDGMENT","left","0","","","","","","","","","","","","","","","","","","","","","","","","","","",""
"html-keyboard-response","146","290467","0.0-4.0-1.0-2.41","3","0","cug30k3oy2t694b","","null","","<p style=""color:#054d00;""><b>Correct!</b></p>","","null","","","","","","","","","","","","","","","","","","","","","","","","","","","","","","","",""
"audio-keyboard-response","147","291272","0.0-4.0-1.0-0.42","3","0","cug30k3oy2t694b","","null","","sounds/induction/right_rev/fu_SWS.wav","","null","","","","","","","","","","","","","","","","","","","","","","","","","","","","","","","",""
"html-button-response","148","291768","0.0-4.0-1.0-1.42","3","0","cug30k3oy2t694b","","495.2999999523163","","Was the sound coming from the left or the right?","1","","","1","INDUCTION-JUDGMENT","right","1","","","","","","","","","","","","","","","","","","","","","","","","","","",""
"html-keyboard-response","149","292769","0.0-4.0-1.0-2.42","3","0","cug30k3oy2t694b","","null","","<p style=""color:#054d00;""><b>Correct!</b></p>","","null","","","","","","","","","","","","","","","","","","","","","","","","","","","","","","","",""
"audio-keyboard-response","150","293571","0.0-4.0-1.0-0.43","3","0","cug30k3oy2t694b","","null","","sounds/induction/right_rev/fu_SWS.wav","","null","","","","","","","","","","","","","","","","","","","","","","","","","","","","","","","",""
"html-button-response","151","294193","0.0-4.0-1.0-1.43","3","0","cug30k3oy2t694b","","621.5","","Was the sound coming from the left or the right?","1","","","1","INDUCTION-JUDGMENT","right","1","","","","","","","","","","","","","","","","","","","","","","","","","","",""
"html-keyboard-response","152","295199","0.0-4.0-1.0-2.43","3","0","cug30k3oy2t694b","","null","","<p style=""color:#054d00;""><b>Correct!</b></p>","","null","","","","","","","","","","","","","","","","","","","","","","","","","","","","","","","",""
"audio-keyboard-response","153","296004","0.0-4.0-1.0-0.44","3","0","cug30k3oy2t694b","","null","","sounds/induction/left_rev/ge_SWS.wav","","null","","","","","","","","","","","","","","","","","","","","","","","","","","","","","","","",""
"html-button-response","154","296522","0.0-4.0-1.0-1.44","3","0","cug30k3oy2t694b","","517.2000000476837","","Was the sound coming from the left or the right?","0","","","1","INDUCTION-JUDGMENT","left","0","","","","","","","","","","","","","","","","","","","","","","","","","","",""
"html-keyboard-response","155","297527","0.0-4.0-1.0-2.44","3","0","cug30k3oy2t694b","","null","","<p style=""color:#054d00;""><b>Correct!</b></p>","","null","","","","","","","","","","","","","","","","","","","","","","","","","","","","","","","",""
"audio-keyboard-response","156","298326","0.0-4.0-1.0-0.45","3","0","cug30k3oy2t694b","","null","","sounds/induction/left_rev/re_SWS.wav","","null","","","","","","","","","","","","","","","","","","","","","","","","","","","","","","","",""
"html-button-response","157","298811","0.0-4.0-1.0-1.45","3","0","cug30k3oy2t694b","","484.3000000715256","","Was the sound coming from the left or the right?","0","","","1","INDUCTION-JUDGMENT","left","0","","","","","","","","","","","","","","","","","","","","","","","","","","",""
"html-keyboard-response","158","299815","0.0-4.0-1.0-2.45","3","0","cug30k3oy2t694b","","null","","<p style=""color:#054d00;""><b>Correct!</b></p>","","null","","","","","","","","","","","","","","","","","","","","","","","","","","","","","","","",""
"audio-keyboard-response","159","300614","0.0-4.0-1.0-0.46","3","0","cug30k3oy2t694b","","null","","sounds/induction/left_rev/pu_SWS.wav","","null","","","","","","","","","","","","","","","","","","","","","","","","","","","","","","","",""
"html-button-response","160","301116","0.0-4.0-1.0-1.46","3","0","cug30k3oy2t694b","","501.60000002384186","","Was the sound coming from the left or the right?","0","","","1","INDUCTION-JUDGMENT","left","0","","","","","","","","","","","","","","","","","","","","","","","","","","",""
"html-keyboard-response","161","302118","0.0-4.0-1.0-2.46","3","0","cug30k3oy2t694b","","null","","<p style=""color:#054d00;""><b>Correct!</b></p>","","null","","","","","","","","","","","","","","","","","","","","","","","","","","","","","","","",""
"audio-keyboard-response","162","302919","0.0-4.0-1.0-0.47","3","0","cug30k3oy2t694b","","null","","sounds/induction/left_rev/ni_SWS.wav","","null","","","","","","","","","","","","","","","","","","","","","","","","","","","","","","","",""
"html-button-response","163","303334","0.0-4.0-1.0-1.47","3","0","cug30k3oy2t694b","","413.89999997615814","","Was the sound coming from the left or the right?","0","","","1","INDUCTION-JUDGMENT","left","0","","","","","","","","","","","","","","","","","","","","","","","","","","",""
"html-keyboard-response","164","304338","0.0-4.0-1.0-2.47","3","0","cug30k3oy2t694b","","null","","<p style=""color:#054d00;""><b>Correct!</b></p>","","null","","","","","","","","","","","","","","","","","","","","","","","","","","","","","","","",""
"html-button-response","165","313627","0.0-5.0-0.0","3","0","cug30k3oy2t694b","","8782.299999952316","","<p>Thank you for your answers.</p><p>You will now listen to similar sounds. The main difference is that the sounds will be longer.</p><p>Just as before, you will be asked to judge whether the sound was coming from the left or the right.</p><p>There are 10 of these longer sounds in total.","0","","","","","","","","","","","","","","","","","","","","","","","","","","","","","","","","",""
"audio-keyboard-response","166","316617","0.0-5.0-1.0-0.0","3","0","cug30k3oy2t694b","","null","","sounds/sentences/left_rev/14_05_cfSWS.wav","","null","","","","","","","","","","","","","","","","","","","","","","","","","","","","","","","",""
"html-button-response","167","317733","0.0-5.0-1.0-1.0","3","0","cug30k3oy2t694b","","1115.3000000715256","","Was the sound coming from the left or the right?","0","","","1","INDUCTION-JUDGMENT","left","0","","","","","","","","","","","","","","","","","","","","","","","","","","",""
"html-keyboard-response","168","318737","0.0-5.0-1.0-2.0","3","0","cug30k3oy2t694b","","null","","<p style=""color:#054d00;""><b>Correct!</b></p>","","null","","","","","","","","","","","","","","","","","","","","","","","","","","","","","","","",""
"html-button-response","169","321190","0.0-5.0-1.0-3.0","3","0","cug30k3oy2t694b","","1949.2000000476837","","<p>Press the button below when you are ready to continue.</p>","0","","","","","","","","","","","","","","","","","","","","","","","","","","","","","","","","",""
"audio-keyboard-response","170","324209","0.0-5.0-1.0-0.1","3","0","cug30k3oy2t694b","","null","","sounds/sentences/right_rev/14_10_cfSWS.wav","","null","","","","","","","","","","","","","","","","","","","","","","","","","","","","","","","",""
"html-button-response","171","324848","0.0-5.0-1.0-1.1","3","0","cug30k3oy2t694b","","637.1999999284744","","Was the sound coming from the left or the right?","1","","","1","INDUCTION-JUDGMENT","right","1","","","","","","","","","","","","","","","","","","","","","","","","","","",""
"html-keyboard-response","172","325852","0.0-5.0-1.0-2.1","3","0","cug30k3oy2t694b","","null","","<p style=""color:#054d00;""><b>Correct!</b></p>","","null","","","","","","","","","","","","","","","","","","","","","","","","","","","","","","","",""
"html-button-response","173","326760","0.0-5.0-1.0-3.1","3","0","cug30k3oy2t694b","","407.6999999284744","","<p>Press the button below when you are ready to continue.</p>","0","","","","","","","","","","","","","","","","","","","","","","","","","","","","","","","","",""
"audio-keyboard-response","174","329654","0.0-5.0-1.0-0.2","3","0","cug30k3oy2t694b","","null","","sounds/sentences/right_rev/14_07_cfSWS.wav","","null","","","","","","","","","","","","","","","","","","","","","","","","","","","","","","","",""
"html-button-response","175","330115","0.0-5.0-1.0-1.2","3","0","cug30k3oy2t694b","","459.89999997615814","","Was the sound coming from the left or the right?","1","","","1","INDUCTION-JUDGMENT","right","1","","","","","","","","","","","","","","","","","","","","","","","","","","",""
"html-keyboard-response","176","331118","0.0-5.0-1.0-2.2","3","0","cug30k3oy2t694b","","null","","<p style=""color:#054d00;""><b>Correct!</b></p>","","null","","","","","","","","","","","","","","","","","","","","","","","","","","","","","","","",""
"html-button-response","177","332012","0.0-5.0-1.0-3.2","3","0","cug30k3oy2t694b","","388.1999999284744","","<p>Press the button below when you are ready to continue.</p>","0","","","","","","","","","","","","","","","","","","","","","","","","","","","","","","","","",""
"audio-keyboard-response","178","334826","0.0-5.0-1.0-0.3","3","0","cug30k3oy2t694b","","null","","sounds/sentences/left_rev/14_02_cfSWS.wav","","null","","","","","","","","","","","","","","","","","","","","","","","","","","","","","","","",""
"html-button-response","179","335494","0.0-5.0-1.0-1.3","3","0","cug30k3oy2t694b","","666.2000000476837","","Was the sound coming from the left or the right?","0","","","1","INDUCTION-JUDGMENT","left","0","","","","","","","","","","","","","","","","","","","","","","","","","","",""
"html-keyboard-response","180","336495","0.0-5.0-1.0-2.3","3","0","cug30k3oy2t694b","","null","","<p style=""color:#054d00;""><b>Correct!</b></p>","","null","","","","","","","","","","","","","","","","","","","","","","","","","","","","","","","",""
"html-button-response","181","337382","0.0-5.0-1.0-3.3","3","0","cug30k3oy2t694b","","381.2999999523163","","<p>Press the button below when you are ready to continue.</p>","0","","","","","","","","","","","","","","","","","","","","","","","","","","","","","","","","",""
"audio-keyboard-response","182","340144","0.0-5.0-1.0-0.4","3","0","cug30k3oy2t694b","","null","","sounds/sentences/right_rev/14_08_cfSWS.wav","","null","","","","","","","","","","","","","","","","","","","","","","","","","","","","","","","",""
"html-button-response","183","340552","0.0-5.0-1.0-1.4","3","0","cug30k3oy2t694b","","407.2000000476837","","Was the sound coming from the left or the right?","1","","","1","INDUCTION-JUDGMENT","right","1","","","","","","","","","","","","","","","","","","","","","","","","","","",""
"html-keyboard-response","184","341556","0.0-5.0-1.0-2.4","3","0","cug30k3oy2t694b","","null","","<p style=""color:#054d00;""><b>Correct!</b></p>","","null","","","","","","","","","","","","","","","","","","","","","","","","","","","","","","","",""
"html-button-response","185","342402","0.0-5.0-1.0-3.4","3","0","cug30k3oy2t694b","","341.09999990463257","","<p>Press the button below when you are ready to continue.</p>","0","","","","","","","","","","","","","","","","","","","","","","","","","","","","","","","","",""
"audio-keyboard-response","186","345154","0.0-5.0-1.0-0.5","3","0","cug30k3oy2t694b","","null","","sounds/sentences/right_rev/14_06_cfSWS.wav","","null","","","","","","","","","","","","","","","","","","","","","","","","","","","","","","","",""
"html-button-response","187","345554","0.0-5.0-1.0-1.5","3","0","cug30k3oy2t694b","","398.89999997615814","","Was the sound coming from the left or the right?","1","","","1","INDUCTION-JUDGMENT","right","1","","","","","","","","","","","","","","","","","","","","","","","","","","",""
"html-keyboard-response","188","346559","0.0-5.0-1.0-2.5","3","0","cug30k3oy2t694b","","null","","<p style=""color:#054d00;""><b>Correct!</b></p>","","null","","","","","","","","","","","","","","","","","","","","","","","","","","","","","","","",""
"html-button-response","189","347443","0.0-5.0-1.0-3.5","3","0","cug30k3oy2t694b","","380.60000002384186","","<p>Press the button below when you are ready to continue.</p>","0","","","","","","","","","","","","","","","","","","","","","","","","","","","","","","","","",""
"audio-keyboard-response","190","350168","0.0-5.0-1.0-0.6","3","0","cug30k3oy2t694b","","null","","sounds/sentences/right_rev/14_09_cfSWS.wav","","null","","","","","","","","","","","","","","","","","","","","","","","","","","","","","","","",""
"html-button-response","191","350541","0.0-5.0-1.0-1.6","3","0","cug30k3oy2t694b","","371","","Was the sound coming from the left or the right?","1","","","1","INDUCTION-JUDGMENT","right","1","","","","","","","","","","","","","","","","","","","","","","","","","","",""
"html-keyboard-response","192","351542","0.0-5.0-1.0-2.6","3","0","cug30k3oy2t694b","","null","","<p style=""color:#054d00;""><b>Correct!</b></p>","","null","","","","","","","","","","","","","","","","","","","","","","","","","","","","","","","",""
"html-button-response","193","352398","0.0-5.0-1.0-3.6","3","0","cug30k3oy2t694b","","351.5","","<p>Press the button below when you are ready to continue.</p>","0","","","","","","","","","","","","","","","","","","","","","","","","","","","","","","","","",""
"audio-keyboard-response","194","355514","0.0-5.0-1.0-0.7","3","0","cug30k3oy2t694b","","null","","sounds/sentences/left_rev/14_01_cfSWS.wav","","null","","","","","","","","","","","","","","","","","","","","","","","","","","","","","","","",""
"html-button-response","195","356055","0.0-5.0-1.0-1.7","3","0","cug30k3oy2t694b","","540.6999999284744","","Was the sound coming from the left or the right?","0","","","1","INDUCTION-JUDGMENT","left","0","","","","","","","","","","","","","","","","","","","","","","","","","","",""
"html-keyboard-response","196","357060","0.0-5.0-1.0-2.7","3","0","cug30k3oy2t694b","","null","","<p style=""color:#054d00;""><b>Correct!</b></p>","","null","","","","","","","","","","","","","","","","","","","","","","","","","","","","","","","",""
"html-button-response","197","358289","0.0-5.0-1.0-3.7","3","0","cug30k3oy2t694b","","724.2999999523163","","<p>Press the button below when you are ready to continue.</p>","0","","","","","","","","","","","","","","","","","","","","","","","","","","","","","","","","",""
"audio-keyboard-response","198","360842","0.0-5.0-1.0-0.8","3","0","cug30k3oy2t694b","","null","","sounds/sentences/left_rev/14_04_cfSWS.wav","","null","","","","","","","","","","","","","","","","","","","","","","","","","","","","","","","",""
"html-button-response","199","361426","0.0-5.0-1.0-1.8","3","0","cug30k3oy2t694b","","583.0999999046326","","Was the sound coming from the left or the right?","0","","","1","INDUCTION-JUDGMENT","left","0","","","","","","","","","","","","","","","","","","","","","","","","","","",""
"html-keyboard-response","200","362429","0.0-5.0-1.0-2.8","3","0","cug30k3oy2t694b","","null","","<p style=""color:#054d00;""><b>Correct!</b></p>","","null","","","","","","","","","","","","","","","","","","","","","","","","","","","","","","","",""
"html-button-response","201","363603","0.0-5.0-1.0-3.8","3","0","cug30k3oy2t694b","","669.4000000953674","","<p>Press the button below when you are ready to continue.</p>","0","","","","","","","","","","","","","","","","","","","","","","","","","","","","","","","","",""
"audio-keyboard-response","202","366188","0.0-5.0-1.0-0.9","3","0","cug30k3oy2t694b","","null","","sounds/sentences/left_rev/14_03_cfSWS.wav","","null","","","","","","","","","","","","","","","","","","","","","","","","","","","","","","","",""
"html-button-response","203","366781","0.0-5.0-1.0-1.9","3","0","cug30k3oy2t694b","","591.5","","Was the sound coming from the left or the right?","0","","","1","INDUCTION-JUDGMENT","left","0","","","","","","","","","","","","","","","","","","","","","","","","","","",""
"html-keyboard-response","204","367782","0.0-5.0-1.0-2.9","3","0","cug30k3oy2t694b","","null","","<p style=""color:#054d00;""><b>Correct!</b></p>","","null","","","","","","","","","","","","","","","","","","","","","","","","","","","","","","","",""
"html-button-response","205","368719","0.0-5.0-1.0-3.9","3","0","cug30k3oy2t694b","","435.5","","<p>Press the button below when you are ready to continue.</p>","0","","","","","","","","","","","","","","","","","","","","","","","","","","","","","","","","",""
"html-keyboard-response","206","394118","0.0-6.0-0.0","3","0","cug30k3oy2t694b","","24897.599999904633","","<p>In this part of the study, you will hear sounds similar to those you just heard.</p><p>Please focus on these sounds, as you may be asked questions about them later.</p><p>Occasionally, the sounds will pause for up to two seconds. When this happens, please press SPACEBAR as quickly as you can.</br>This helps ensure that you are paying attention to the sounds.</p><p>This part of the study will take about 12 minutes to complete, and you will be given the opportunity to take a couple of short breaks every few minutes.</p><p><strong>Press SPACEBAR to begin</strong></p>","","32","","","","","","","","","","","","","","","","","","","","","","","","","","","","","","","",""
"html-keyboard-response","207","395124","0.0-6.0-1.0-0.0","3","0","cug30k3oy2t694b","","null","","<p style=""font-size: 40px;"">+</p>","","null","","","","","","","","","","","","","","","","","","","","","","","","","","","","","","","",""
"html-keyboard-response","208","580134","0.0-6.0-1.0-1.0","3","0","cug30k3oy2t694b","","null","","","","null","","","SL-TRAIN","","","1","1966.5","null","sounds/C/TRAIN/SEQ__02.mp3","19","","","","","","","","","","","","","","","","","","","","","",""
"html-button-response","209","584613","0.0-6.0-1.0-2.0","3","0","cug30k3oy2t694b","","4477.099999904633","","<p>You may take a short break if you wish.</p>","0","","","","","","","","","","","","","","","","","","","","","","","","","","","","","","","","",""
"html-keyboard-response","210","585619","0.0-6.0-1.0-3.0","3","0","cug30k3oy2t694b","","null","","<p style=""font-size: 40px;"">+</p>","","null","","","","","","","","","","","","","","","","","","","","","","","","","","","","","","","",""
"html-keyboard-response","211","770627","0.0-6.0-1.0-4.0","3","0","cug30k3oy2t694b","","null","","","","null","","","SL-TRAIN","","","0","1943.5","1953.0999999046326","sounds/C/TRAIN/SEQ__05.mp3","58","","","","","","","","","","","","","","","","","","","","","",""
"html-button-response","212","774160","0.0-6.0-1.0-5.0","3","0","cug30k3oy2t694b","","3532","","<p>You may take a short break if you wish.</p>","0","","","","","","","","","","","","","","","","","","","","","","","","","","","","","","","","",""
"html-keyboard-response","213","775166","0.0-6.0-1.0-6.0","3","0","cug30k3oy2t694b","","null","","<p style=""font-size: 40px;"">+</p>","","null","","","","","","","","","","","","","","","","","","","","","","","","","","","","","","","",""
"html-keyboard-response","214","960174","0.0-6.0-1.0-7.0","3","0","cug30k3oy2t694b","","null","","","","null","","","SL-TRAIN","","","1","null","1963.4000000953674","sounds/C/TRAIN/SEQ__07.mp3","57","","","","","","","","","","","","","","","","","","","","","",""
"html-button-response","215","984584","0.0-6.0-1.0-8.0","3","0","cug30k3oy2t694b","","24408.799999952316","","<p>You may take a short break if you wish.</p>","0","","","","","","","","","","","","","","","","","","","","","","","","","","","","","","","","",""
"html-keyboard-response","216","985587","0.0-6.0-1.0-9.0","3","0","cug30k3oy2t694b","","null","","<p style=""font-size: 40px;"">+</p>","","null","","","","","","","","","","","","","","","","","","","","","","","","","","","","","","","",""
"html-keyboard-response","217","1170594","0.0-6.0-1.0-10.0","3","0","cug30k3oy2t694b","","null","","","","null","","","SL-TRAIN","","","0","1970.5","1910.5","sounds/C/TRAIN/SEQ__03.mp3","84","","","","","","","","","","","","","","","","","","","","","",""
"html-button-response","218","1173909","0.0-6.0-1.0-11.0","3","0","cug30k3oy2t694b","","3314","","<p>You may take a short break if you wish.</p>","0","","","","","","","","","","","","","","","","","","","","","","","","","","","","","","","","",""
"html-button-response","219","1184953","0.0-7.0-0.0","3","0","cug30k3oy2t694b","","11042.199999928474","","<p>Welcome to the second part of the study. This is a <u>familiarity task</u>.</p><p>You will now hear short sounds and will be asked to rate how familiar they sound to you <b>based on what you heard in the previous part of the study</b>.</p><p>You will rate 12 sounds in total.</p>","0","","","","","","","","","","","","","","","","","","","","","","","","","","","","","","","","",""
"html-keyboard-response","220","1185954","0.0-7.0-1.0-0.0","3","0","cug30k3oy2t694b","","null","","","","null","","","","","","","","","","","","","","","","","","","","","","","","","","","","","","","",""
"audio-keyboard-response","221","1187213","0.0-7.0-1.0-1.0","3","0","cug30k3oy2t694b","","null","","sounds/C/FAM/W002.mp3","","null","","","","","","","","","","","","","","","","","","","","","","","","","","","","","","","",""
"html-keyboard-response","222","1191711","0.0-7.0-1.0-2.0","3","0","cug30k3oy2t694b","","3993.3000000715256","","<p>How familiar did this sound to you?</p><p>1&nbsp;&nbsp;&nbsp;&nbsp;&nbsp;&nbsp;&nbsp;&nbsp;&nbsp;&nbsp;&nbsp;&nbsp;&nbsp;&nbsp;&nbsp;&nbsp;&nbsp;&nbsp;&nbsp;2&nbsp;&nbsp;&nbsp;&nbsp;&nbsp;&nbsp;&nbsp;&nbsp;&nbsp;&nbsp;&nbsp;&nbsp;&nbsp;&nbsp;&nbsp;&nbsp;&nbsp;&nbsp;&nbsp;3&nbsp;&nbsp;&nbsp;&nbsp;&nbsp;&nbsp;&nbsp;&nbsp;&nbsp;&nbsp;&nbsp;&nbsp;&nbsp;&nbsp;&nbsp;&nbsp;&nbsp;&nbsp;&nbsp;4</p><p style=""font-size:14px"">Not at all familiar&nbsp;&nbsp;&nbsp;&nbsp;A little familiar&nbsp;&nbsp;&nbsp;Moderately familiar&nbsp;&nbsp;&nbsp;Extremely familiar</p><p>(press the corresponding number on your keyboard)</p>","","52","","","FAM-RESPONSE","","","","","","","","sounds/C/FAM/W002.mp3","word","","","","","","","","","","","","","","","","","","","",""
"html-keyboard-response","223","1193717","0.0-7.0-1.0-0.1","3","0","cug30k3oy2t694b","","null","","","","null","","","","","","","","","","","","","","","","","","","","","","","","","","","","","","","",""
"audio-keyboard-response","224","1194661","0.0-7.0-1.0-1.1","3","0","cug30k3oy2t694b","","null","","sounds/C/FAM/N001.mp3","","null","","","","","","","","","","","","","","","","","","","","","","","","","","","","","","","",""
"html-keyboard-response","225","1195651","0.0-7.0-1.0-2.1","3","0","cug30k3oy2t694b","","485.7000000476837","","<p>How familiar did this sound to you?</p><p>1&nbsp;&nbsp;&nbsp;&nbsp;&nbsp;&nbsp;&nbsp;&nbsp;&nbsp;&nbsp;&nbsp;&nbsp;&nbsp;&nbsp;&nbsp;&nbsp;&nbsp;&nbsp;&nbsp;2&nbsp;&nbsp;&nbsp;&nbsp;&nbsp;&nbsp;&nbsp;&nbsp;&nbsp;&nbsp;&nbsp;&nbsp;&nbsp;&nbsp;&nbsp;&nbsp;&nbsp;&nbsp;&nbsp;3&nbsp;&nbsp;&nbsp;&nbsp;&nbsp;&nbsp;&nbsp;&nbsp;&nbsp;&nbsp;&nbsp;&nbsp;&nbsp;&nbsp;&nbsp;&nbsp;&nbsp;&nbsp;&nbsp;4</p><p style=""font-size:14px"">Not at all familiar&nbsp;&nbsp;&nbsp;&nbsp;A little familiar&nbsp;&nbsp;&nbsp;Moderately familiar&nbsp;&nbsp;&nbsp;Extremely familiar</p><p>(press the corresponding number on your keyboard)</p>","","51","","","FAM-RESPONSE","","","","","","","","sounds/C/FAM/N001.mp3","nonword","","","","","","","","","","","","","","","","","","","",""
"html-keyboard-response","226","1197656","0.0-7.0-1.0-0.2","3","0","cug30k3oy2t694b","","null","","","","null","","","","","","","","","","","","","","","","","","","","","","","","","","","","","","","",""
"audio-keyboard-response","227","1198594","0.0-7.0-1.0-1.2","3","0","cug30k3oy2t694b","","null","","sounds/C/FAM/N004.mp3","","null","","","","","","","","","","","","","","","","","","","","","","","","","","","","","","","",""
"html-keyboard-response","228","1199838","0.0-7.0-1.0-2.2","3","0","cug30k3oy2t694b","","743.0999999046326","","<p>How familiar did this sound to you?</p><p>1&nbsp;&nbsp;&nbsp;&nbsp;&nbsp;&nbsp;&nbsp;&nbsp;&nbsp;&nbsp;&nbsp;&nbsp;&nbsp;&nbsp;&nbsp;&nbsp;&nbsp;&nbsp;&nbsp;2&nbsp;&nbsp;&nbsp;&nbsp;&nbsp;&nbsp;&nbsp;&nbsp;&nbsp;&nbsp;&nbsp;&nbsp;&nbsp;&nbsp;&nbsp;&nbsp;&nbsp;&nbsp;&nbsp;3&nbsp;&nbsp;&nbsp;&nbsp;&nbsp;&nbsp;&nbsp;&nbsp;&nbsp;&nbsp;&nbsp;&nbsp;&nbsp;&nbsp;&nbsp;&nbsp;&nbsp;&nbsp;&nbsp;4</p><p style=""font-size:14px"">Not at all familiar&nbsp;&nbsp;&nbsp;&nbsp;A little familiar&nbsp;&nbsp;&nbsp;Moderately familiar&nbsp;&nbsp;&nbsp;Extremely familiar</p><p>(press the corresponding number on your keyboard)</p>","","51","","","FAM-RESPONSE","","","","","","","","sounds/C/FAM/N004.mp3","nonword","","","","","","","","","","","","","","","","","","","",""
"html-keyboard-response","229","1201844","0.0-7.0-1.0-0.3","3","0","cug30k3oy2t694b","","null","","","","null","","","","","","","","","","","","","","","","","","","","","","","","","","","","","","","",""
"audio-keyboard-response","230","1202781","0.0-7.0-1.0-1.3","3","0","cug30k3oy2t694b","","null","","sounds/C/FAM/P002.mp3","","null","","","","","","","","","","","","","","","","","","","","","","","","","","","","","","","",""
"html-keyboard-response","231","1203582","0.0-7.0-1.0-2.3","3","0","cug30k3oy2t694b","","296.3000000715256","","<p>How familiar did this sound to you?</p><p>1&nbsp;&nbsp;&nbsp;&nbsp;&nbsp;&nbsp;&nbsp;&nbsp;&nbsp;&nbsp;&nbsp;&nbsp;&nbsp;&nbsp;&nbsp;&nbsp;&nbsp;&nbsp;&nbsp;2&nbsp;&nbsp;&nbsp;&nbsp;&nbsp;&nbsp;&nbsp;&nbsp;&nbsp;&nbsp;&nbsp;&nbsp;&nbsp;&nbsp;&nbsp;&nbsp;&nbsp;&nbsp;&nbsp;3&nbsp;&nbsp;&nbsp;&nbsp;&nbsp;&nbsp;&nbsp;&nbsp;&nbsp;&nbsp;&nbsp;&nbsp;&nbsp;&nbsp;&nbsp;&nbsp;&nbsp;&nbsp;&nbsp;4</p><p style=""font-size:14px"">Not at all familiar&nbsp;&nbsp;&nbsp;&nbsp;A little familiar&nbsp;&nbsp;&nbsp;Moderately familiar&nbsp;&nbsp;&nbsp;Extremely familiar</p><p>(press the corresponding number on your keyboard)</p>","","52","","","FAM-RESPONSE","","","","","","","","sounds/C/FAM/P002.mp3","partword","","","","","","","","","","","","","","","","","","","",""
"html-keyboard-response","232","1205586","0.0-7.0-1.0-0.4","3","0","cug30k3oy2t694b","","null","","","","null","","","","","","","","","","","","","","","","","","","","","","","","","","","","","","","",""
"audio-keyboard-response","233","1206523","0.0-7.0-1.0-1.4","3","0","cug30k3oy2t694b","","null","","sounds/C/FAM/P001.mp3","","null","","","","","","","","","","","","","","","","","","","","","","","","","","","","","","","",""
"html-keyboard-response","234","1207413","0.0-7.0-1.0-2.4","3","0","cug30k3oy2t694b","","386.59999990463257","","<p>How familiar did this sound to you?</p><p>1&nbsp;&nbsp;&nbsp;&nbsp;&nbsp;&nbsp;&nbsp;&nbsp;&nbsp;&nbsp;&nbsp;&nbsp;&nbsp;&nbsp;&nbsp;&nbsp;&nbsp;&nbsp;&nbsp;2&nbsp;&nbsp;&nbsp;&nbsp;&nbsp;&nbsp;&nbsp;&nbsp;&nbsp;&nbsp;&nbsp;&nbsp;&nbsp;&nbsp;&nbsp;&nbsp;&nbsp;&nbsp;&nbsp;3&nbsp;&nbsp;&nbsp;&nbsp;&nbsp;&nbsp;&nbsp;&nbsp;&nbsp;&nbsp;&nbsp;&nbsp;&nbsp;&nbsp;&nbsp;&nbsp;&nbsp;&nbsp;&nbsp;4</p><p style=""font-size:14px"">Not at all familiar&nbsp;&nbsp;&nbsp;&nbsp;A little familiar&nbsp;&nbsp;&nbsp;Moderately familiar&nbsp;&nbsp;&nbsp;Extremely familiar</p><p>(press the corresponding number on your keyboard)</p>","","52","","","FAM-RESPONSE","","","","","","","","sounds/C/FAM/P001.mp3","partword","","","","","","","","","","","","","","","","","","","",""
"html-keyboard-response","235","1209421","0.0-7.0-1.0-0.5","3","0","cug30k3oy2t694b","","null","","","","null","","","","","","","","","","","","","","","","","","","","","","","","","","","","","","","",""
"audio-keyboard-response","236","1210357","0.0-7.0-1.0-1.5","3","0","cug30k3oy2t694b","","null","","sounds/C/FAM/P003.mp3","","null","","","","","","","","","","","","","","","","","","","","","","","","","","","","","","","",""
"html-keyboard-response","237","1212826","0.0-7.0-1.0-2.5","3","0","cug30k3oy2t694b","","1965.4000000953674","","<p>How familiar did this sound to you?</p><p>1&nbsp;&nbsp;&nbsp;&nbsp;&nbsp;&nbsp;&nbsp;&nbsp;&nbsp;&nbsp;&nbsp;&nbsp;&nbsp;&nbsp;&nbsp;&nbsp;&nbsp;&nbsp;&nbsp;2&nbsp;&nbsp;&nbsp;&nbsp;&nbsp;&nbsp;&nbsp;&nbsp;&nbsp;&nbsp;&nbsp;&nbsp;&nbsp;&nbsp;&nbsp;&nbsp;&nbsp;&nbsp;&nbsp;3&nbsp;&nbsp;&nbsp;&nbsp;&nbsp;&nbsp;&nbsp;&nbsp;&nbsp;&nbsp;&nbsp;&nbsp;&nbsp;&nbsp;&nbsp;&nbsp;&nbsp;&nbsp;&nbsp;4</p><p style=""font-size:14px"">Not at all familiar&nbsp;&nbsp;&nbsp;&nbsp;A little familiar&nbsp;&nbsp;&nbsp;Moderately familiar&nbsp;&nbsp;&nbsp;Extremely familiar</p><p>(press the corresponding number on your keyboard)</p>","","51","","","FAM-RESPONSE","","","","","","","","sounds/C/FAM/P003.mp3","partword","","","","","","","","","","","","","","","","","","","",""
"html-keyboard-response","238","1214834","0.0-7.0-1.0-0.6","3","0","cug30k3oy2t694b","","null","","","","null","","","","","","","","","","","","","","","","","","","","","","","","","","","","","","","",""
"audio-keyboard-response","239","1215772","0.0-7.0-1.0-1.6","3","0","cug30k3oy2t694b","","null","","sounds/C/FAM/N002.mp3","","null","","","","","","","","","","","","","","","","","","","","","","","","","","","","","","","",""
"html-keyboard-response","240","1217096","0.0-7.0-1.0-2.6","3","0","cug30k3oy2t694b","","822.5999999046326","","<p>How familiar did this sound to you?</p><p>1&nbsp;&nbsp;&nbsp;&nbsp;&nbsp;&nbsp;&nbsp;&nbsp;&nbsp;&nbsp;&nbsp;&nbsp;&nbsp;&nbsp;&nbsp;&nbsp;&nbsp;&nbsp;&nbsp;2&nbsp;&nbsp;&nbsp;&nbsp;&nbsp;&nbsp;&nbsp;&nbsp;&nbsp;&nbsp;&nbsp;&nbsp;&nbsp;&nbsp;&nbsp;&nbsp;&nbsp;&nbsp;&nbsp;3&nbsp;&nbsp;&nbsp;&nbsp;&nbsp;&nbsp;&nbsp;&nbsp;&nbsp;&nbsp;&nbsp;&nbsp;&nbsp;&nbsp;&nbsp;&nbsp;&nbsp;&nbsp;&nbsp;4</p><p style=""font-size:14px"">Not at all familiar&nbsp;&nbsp;&nbsp;&nbsp;A little familiar&nbsp;&nbsp;&nbsp;Moderately familiar&nbsp;&nbsp;&nbsp;Extremely familiar</p><p>(press the corresponding number on your keyboard)</p>","","50","","","FAM-RESPONSE","","","","","","","","sounds/C/FAM/N002.mp3","nonword","","","","","","","","","","","","","","","","","","","",""
"html-keyboard-response","241","1219102","0.0-7.0-1.0-0.7","3","0","cug30k3oy2t694b","","null","","","","null","","","","","","","","","","","","","","","","","","","","","","","","","","","","","","","",""
"audio-keyboard-response","242","1220046","0.0-7.0-1.0-1.7","3","0","cug30k3oy2t694b","","null","","sounds/C/FAM/W001.mp3","","null","","","","","","","","","","","","","","","","","","","","","","","","","","","","","","","",""
"html-keyboard-response","243","1220856","0.0-7.0-1.0-2.7","3","0","cug30k3oy2t694b","","305.1999999284744","","<p>How familiar did this sound to you?</p><p>1&nbsp;&nbsp;&nbsp;&nbsp;&nbsp;&nbsp;&nbsp;&nbsp;&nbsp;&nbsp;&nbsp;&nbsp;&nbsp;&nbsp;&nbsp;&nbsp;&nbsp;&nbsp;&nbsp;2&nbsp;&nbsp;&nbsp;&nbsp;&nbsp;&nbsp;&nbsp;&nbsp;&nbsp;&nbsp;&nbsp;&nbsp;&nbsp;&nbsp;&nbsp;&nbsp;&nbsp;&nbsp;&nbsp;3&nbsp;&nbsp;&nbsp;&nbsp;&nbsp;&nbsp;&nbsp;&nbsp;&nbsp;&nbsp;&nbsp;&nbsp;&nbsp;&nbsp;&nbsp;&nbsp;&nbsp;&nbsp;&nbsp;4</p><p style=""font-size:14px"">Not at all familiar&nbsp;&nbsp;&nbsp;&nbsp;A little familiar&nbsp;&nbsp;&nbsp;Moderately familiar&nbsp;&nbsp;&nbsp;Extremely familiar</p><p>(press the corresponding number on your keyboard)</p>","","52","","","FAM-RESPONSE","","","","","","","","sounds/C/FAM/W001.mp3","word","","","","","","","","","","","","","","","","","","","",""
"html-keyboard-response","244","1222861","0.0-7.0-1.0-0.8","3","0","cug30k3oy2t694b","","null","","","","null","","","","","","","","","","","","","","","","","","","","","","","","","","","","","","","",""
"audio-keyboard-response","245","1223799","0.0-7.0-1.0-1.8","3","0","cug30k3oy2t694b","","null","","sounds/C/FAM/N003.mp3","","null","","","","","","","","","","","","","","","","","","","","","","","","","","","","","","","",""
"html-keyboard-response","246","1224752","0.0-7.0-1.0-2.8","3","0","cug30k3oy2t694b","","448.89999997615814","","<p>How familiar did this sound to you?</p><p>1&nbsp;&nbsp;&nbsp;&nbsp;&nbsp;&nbsp;&nbsp;&nbsp;&nbsp;&nbsp;&nbsp;&nbsp;&nbsp;&nbsp;&nbsp;&nbsp;&nbsp;&nbsp;&nbsp;2&nbsp;&nbsp;&nbsp;&nbsp;&nbsp;&nbsp;&nbsp;&nbsp;&nbsp;&nbsp;&nbsp;&nbsp;&nbsp;&nbsp;&nbsp;&nbsp;&nbsp;&nbsp;&nbsp;3&nbsp;&nbsp;&nbsp;&nbsp;&nbsp;&nbsp;&nbsp;&nbsp;&nbsp;&nbsp;&nbsp;&nbsp;&nbsp;&nbsp;&nbsp;&nbsp;&nbsp;&nbsp;&nbsp;4</p><p style=""font-size:14px"">Not at all familiar&nbsp;&nbsp;&nbsp;&nbsp;A little familiar&nbsp;&nbsp;&nbsp;Moderately familiar&nbsp;&nbsp;&nbsp;Extremely familiar</p><p>(press the corresponding number on your keyboard)</p>","","52","","","FAM-RESPONSE","","","","","","","","sounds/C/FAM/N003.mp3","nonword","","","","","","","","","","","","","","","","","","","",""
"html-keyboard-response","247","1226759","0.0-7.0-1.0-0.9","3","0","cug30k3oy2t694b","","null","","","","null","","","","","","","","","","","","","","","","","","","","","","","","","","","","","","","",""
"audio-keyboard-response","248","1227703","0.0-7.0-1.0-1.9","3","0","cug30k3oy2t694b","","null","","sounds/C/FAM/P004.mp3","","null","","","","","","","","","","","","","","","","","","","","","","","","","","","","","","","",""
"html-keyboard-response","249","1228513","0.0-7.0-1.0-2.9","3","0","cug30k3oy2t694b","","306.2000000476837","","<p>How familiar did this sound to you?</p><p>1&nbsp;&nbsp;&nbsp;&nbsp;&nbsp;&nbsp;&nbsp;&nbsp;&nbsp;&nbsp;&nbsp;&nbsp;&nbsp;&nbsp;&nbsp;&nbsp;&nbsp;&nbsp;&nbsp;2&nbsp;&nbsp;&nbsp;&nbsp;&nbsp;&nbsp;&nbsp;&nbsp;&nbsp;&nbsp;&nbsp;&nbsp;&nbsp;&nbsp;&nbsp;&nbsp;&nbsp;&nbsp;&nbsp;3&nbsp;&nbsp;&nbsp;&nbsp;&nbsp;&nbsp;&nbsp;&nbsp;&nbsp;&nbsp;&nbsp;&nbsp;&nbsp;&nbsp;&nbsp;&nbsp;&nbsp;&nbsp;&nbsp;4</p><p style=""font-size:14px"">Not at all familiar&nbsp;&nbsp;&nbsp;&nbsp;A little familiar&nbsp;&nbsp;&nbsp;Moderately familiar&nbsp;&nbsp;&nbsp;Extremely familiar</p><p>(press the corresponding number on your keyboard)</p>","","51","","","FAM-RESPONSE","","","","","","","","sounds/C/FAM/P004.mp3","partword","","","","","","","","","","","","","","","","","","","",""
"html-keyboard-response","250","1230517","0.0-7.0-1.0-0.10","3","0","cug30k3oy2t694b","","null","","","","null","","","","","","","","","","","","","","","","","","","","","","","","","","","","","","","",""
"audio-keyboard-response","251","1231456","0.0-7.0-1.0-1.10","3","0","cug30k3oy2t694b","","null","","sounds/C/FAM/W004.mp3","","null","","","","","","","","","","","","","","","","","","","","","","","","","","","","","","","",""
"html-keyboard-response","252","1232261","0.0-7.0-1.0-2.10","3","0","cug30k3oy2t694b","","301","","<p>How familiar did this sound to you?</p><p>1&nbsp;&nbsp;&nbsp;&nbsp;&nbsp;&nbsp;&nbsp;&nbsp;&nbsp;&nbsp;&nbsp;&nbsp;&nbsp;&nbsp;&nbsp;&nbsp;&nbsp;&nbsp;&nbsp;2&nbsp;&nbsp;&nbsp;&nbsp;&nbsp;&nbsp;&nbsp;&nbsp;&nbsp;&nbsp;&nbsp;&nbsp;&nbsp;&nbsp;&nbsp;&nbsp;&nbsp;&nbsp;&nbsp;3&nbsp;&nbsp;&nbsp;&nbsp;&nbsp;&nbsp;&nbsp;&nbsp;&nbsp;&nbsp;&nbsp;&nbsp;&nbsp;&nbsp;&nbsp;&nbsp;&nbsp;&nbsp;&nbsp;4</p><p style=""font-size:14px"">Not at all familiar&nbsp;&nbsp;&nbsp;&nbsp;A little familiar&nbsp;&nbsp;&nbsp;Moderately familiar&nbsp;&nbsp;&nbsp;Extremely familiar</p><p>(press the corresponding number on your keyboard)</p>","","50","","","FAM-RESPONSE","","","","","","","","sounds/C/FAM/W004.mp3","word","","","","","","","","","","","","","","","","","","","",""
"html-keyboard-response","253","1234265","0.0-7.0-1.0-0.11","3","0","cug30k3oy2t694b","","null","","","","null","","","","","","","","","","","","","","","","","","","","","","","","","","","","","","","",""
"audio-keyboard-response","254","1235209","0.0-7.0-1.0-1.11","3","0","cug30k3oy2t694b","","null","","sounds/C/FAM/W003.mp3","","null","","","","","","","","","","","","","","","","","","","","","","","","","","","","","","","",""
"html-keyboard-response","255","1237328","0.0-7.0-1.0-2.11","3","0","cug30k3oy2t694b","","1614.1000000238419","","<p>How familiar did this sound to you?</p><p>1&nbsp;&nbsp;&nbsp;&nbsp;&nbsp;&nbsp;&nbsp;&nbsp;&nbsp;&nbsp;&nbsp;&nbsp;&nbsp;&nbsp;&nbsp;&nbsp;&nbsp;&nbsp;&nbsp;2&nbsp;&nbsp;&nbsp;&nbsp;&nbsp;&nbsp;&nbsp;&nbsp;&nbsp;&nbsp;&nbsp;&nbsp;&nbsp;&nbsp;&nbsp;&nbsp;&nbsp;&nbsp;&nbsp;3&nbsp;&nbsp;&nbsp;&nbsp;&nbsp;&nbsp;&nbsp;&nbsp;&nbsp;&nbsp;&nbsp;&nbsp;&nbsp;&nbsp;&nbsp;&nbsp;&nbsp;&nbsp;&nbsp;4</p><p style=""font-size:14px"">Not at all familiar&nbsp;&nbsp;&nbsp;&nbsp;A little familiar&nbsp;&nbsp;&nbsp;Moderately familiar&nbsp;&nbsp;&nbsp;Extremely familiar</p><p>(press the corresponding number on your keyboard)</p>","","51","","","FAM-RESPONSE","","","","","","","","sounds/C/FAM/W003.mp3","word","","","","","","","","","","","","","","","","","","","",""
"html-button-response","256","1252167","0.0-8.0-0.0","3","0","cug30k3oy2t694b","","13834.100000023842","","<p>You will now listen to longer sound sequences.</p><p>Each sound sequence will last about 16 seconds.</p><p>On each trial, you will be given a <u>TARGET SOUND</u>. Your task is to listen very carefully for this sound.</p><p>Every time you hear the <u>TARGET SOUND</u>, you will press the <b>SPACEBAR</b> as quickly and accurately as you can.</p>","0","","","","","","","","","","","","","","","","","","","","","","","","","","","","","","","","",""
"html-button-response","257","1264264","0.0-8.0-1.0","3","0","cug30k3oy2t694b","","11842.199999928474","","<p>It is very important that you make your responses as quickly and accurately as possible.</p><p>To help you make your responses, you will be able to listen to the <u>TARGET SOUND</u> at the beginning of each trial.</p><p>There will be 36 total trials.</p><p><b>Note: This is meant to be a difficult task. We simply want you to try your best.</p>","0","","","","","","","","","","","","","","","","","","","","","","","","","","","","","","","","",""
"html-button-response","258","1268932","0.0-8.0-2.0-0.0","3","0","cug30k3oy2t694b","","4415.099999904633","","<p>Trial 1 of 36</p>","0","","","","","","","","","","","","","","NI","sounds/syllables/ni_SWS.wav","900,2700,9900,11700","1","","","","","","","","","","","","","","","",""
"html-keyboard-response","259","1272316","0.0-8.0-2.0-1.0","3","0","cug30k3oy2t694b","","3382.399999976158","","","","80","","","","","","","","","","","","","NI","","900,2700,9900,11700","1","","","","","","","","","","","","","","","",""
"audio-keyboard-response","260","1273032","0.0-8.0-2.0-2.0-0.0","3","0","cug30k3oy2t694b","","null","","sounds/syllables/ni_SWS.wav","","null","","","","","","","","","","","","","","","","","","","","","","","","","","","","","","","",""
"html-keyboard-response","261","1275326","0.0-8.0-2.0-2.0-1.0","3","0","cug30k3oy2t694b","","2293.2000000476837","","<p>To replay the <u>TARGET SOUND</u>, press P.</p> When you are ready to begin, press SPACEBAR.","","80","","","","","","","","","","","","","","","","","","","","","","","","","","","","","","","",""
"audio-keyboard-response","262","1276131","0.0-8.0-2.0-2.1-0.1","3","0","cug30k3oy2t694b","","null","","sounds/syllables/ni_SWS.wav","","null","","","","","","","","","","","","","","","","","","","","","","","","","","","","","","","",""
"html-keyboard-response","263","1277879","0.0-8.0-2.0-2.1-1.1","3","0","cug30k3oy2t694b","","1748","","<p>To replay the <u>TARGET SOUND</u>, press P.</p> When you are ready to begin, press SPACEBAR.","","32","","","","","","","","","","","","","","","","","","","","","","","","","","","","","","","",""
"audio-keyboard-response","264","1292823","0.0-8.0-2.0-3.0","3","0","cug30k3oy2t694b","","1834","","sounds/C/TD/NI_04_TD.mp3","","32","","","TD_SUMMARY","","","","","","","","","","NI","","900,2700,9900,11700","1","900","2700","9900","11700","926.8999999761581","940.6000000238419","1077.8999999761581","746.8000000715256","1826.8999999761581_3640.600000023842_4179.700000047684_9177.5_10977.899999976158_12446.800000071526_13265.100000023842","2","","","","","",""
"html-button-response","265","1294143","0.0-8.0-2.0-0.1","3","0","cug30k3oy2t694b","","1317.7000000476837","","<p>Trial 2 of 36</p>","0","","","","","","","","","","","","","","FE","sounds/syllables/fe_SWS.wav","2100,3900,5700,11100","2","","","","","","","","","","","","","","","",""
"html-keyboard-response","266","1296052","0.0-8.0-2.0-1.1","3","0","cug30k3oy2t694b","","1908.6000000238419","","","","80","","","","","","","","","","","","","FE","","2100,3900,5700,11100","2","","","","","","","","","","","","","","","",""
"audio-keyboard-response","267","1296350","0.0-8.0-2.0-2.2-0.2","3","0","cug30k3oy2t694b","","null","","sounds/syllables/fe_SWS.wav","","null","","","","","","","","","","","","","","","","","","","","","","","","","","","","","","","",""
"html-keyboard-response","268","1298314","0.0-8.0-2.0-2.2-1.2","3","0","cug30k3oy2t694b","","1963.2000000476837","","<p>To replay the <u>TARGET SOUND</u>, press P.</p> When you are ready to begin, press SPACEBAR.","","32","","","","","","","","","","","","","","","","","","","","","","","","","","","","","","","",""
"audio-keyboard-response","269","1313262","0.0-8.0-2.0-3.1","3","0","cug30k3oy2t694b","","1533","","sounds/C/TD/FE_06_TD.mp3","","32","","","TD_SUMMARY","","","","","","","","","","FE","","2100,3900,5700,11100","2","2100","3900","5700","11100","326.59999990463257","null","528.2999999523163","259.39999997615814","_______1528.8999999761581_2426.5999999046326_3372.899999976158_6228.299999952316_7758.699999928474_11359.399999976158_13842.599999904633","1","","","","","",""
"html-button-response","270","1314440","0.0-8.0-2.0-0.2","3","0","cug30k3oy2t694b","","1176.6000000238419","","<p>Trial 3 of 36</p>","0","","","","","","","","","","","","","","GE","sounds/syllables/ge_SWS.wav","1500,8700,10500,12300","3","","","","","","","","","","","","","","","",""
"html-keyboard-response","271","1315247","0.0-8.0-2.0-1.2","3","0","cug30k3oy2t694b","","805.6000000238419","","","","80","","","","","","","","","","","","","GE","","1500,8700,10500,12300","3","","","","","","","","","","","","","","","",""
"audio-keyboard-response","272","1315544","0.0-8.0-2.0-2.3-0.3","3","0","cug30k3oy2t694b","","null","","sounds/syllables/ge_SWS.wav","","null","","","","","","","","","","","","","","","","","","","","","","","","","","","","","","","",""
"html-keyboard-response","273","1317430","0.0-8.0-2.0-2.3-1.3","3","0","cug30k3oy2t694b","","1885.1999999284744","","<p>To replay the <u>TARGET SOUND</u>, press P.</p> When you are ready to begin, press SPACEBAR.","","32","","","","","","","","","","","","","","","","","","","","","","","","","","","","","","","",""
"audio-keyboard-response","274","1332380","0.0-8.0-2.0-3.2","3","0","cug30k3oy2t694b","","476","","sounds/C/TD/GE_03_TD.mp3","","32","","","TD_SUMMARY","","","","","","","","","","GE","","1500,8700,10500,12300","3","1500","8700","10500","12300","797.3000000715256","824.9000000953674","724.6000000238419","578.3000000715256","______________478.3000000715256_1590.6000000238419_2086.7000000476837_2297.3000000715256_4132_5221.800000071526_6894_8732_9176.600000023842_9524.900000095367_10702.100000023842_11065.200000047684_11224.600000023842_12357.800000071526_12527.100000023842_12878.300000071526_14049.700000047684","1","","","","","",""
"html-button-response","275","1334167","0.0-8.0-2.0-0.3","3","0","cug30k3oy2t694b","","1784.6000000238419","","<p>Trial 4 of 36</p>","0","","","","","","","","","","","","","","NI","sounds/syllables/ni_SWS.wav","2700,4500,9000,10800","1","","","","","","","","","","","","","","","",""
"html-keyboard-response","276","1334756","0.0-8.0-2.0-1.3","3","0","cug30k3oy2t694b","","588.2999999523163","","","","80","","","","","","","","","","","","","NI","","2700,4500,9000,10800","1","","","","","","","","","","","","","","","",""
"audio-keyboard-response","277","1335056","0.0-8.0-2.0-2.4-0.4","3","0","cug30k3oy2t694b","","null","","sounds/syllables/ni_SWS.wav","","null","","","","","","","","","","","","","","","","","","","","","","","","","","","","","","","",""
"html-keyboard-response","278","1335819","0.0-8.0-2.0-2.4-1.4","3","0","cug30k3oy2t694b","","762.2000000476837","","<p>To replay the <u>TARGET SOUND</u>, press P.</p> When you are ready to begin, press SPACEBAR.","","80","","","","","","","","","","","","","","","","","","","","","","","","","","","","","","","",""
"audio-keyboard-response","279","1336619","0.0-8.0-2.0-2.5-0.5","3","0","cug30k3oy2t694b","","null","","sounds/syllables/ni_SWS.wav","","null","","","","","","","","","","","","","","","","","","","","","","","","","","","","","","","",""
"html-keyboard-response","280","1336896","0.0-8.0-2.0-2.5-1.5","3","0","cug30k3oy2t694b","","276.39999997615814","","<p>To replay the <u>TARGET SOUND</u>, press P.</p> When you are ready to begin, press SPACEBAR.","","80","","","","","","","","","","","","","","","","","","","","","","","","","","","","","","","",""
"audio-keyboard-response","281","1337697","0.0-8.0-2.0-2.6-0.6","3","0","cug30k3oy2t694b","","null","","sounds/syllables/ni_SWS.wav","","null","","","","","","","","","","","","","","","","","","","","","","","","","","","","","","","",""
"html-keyboard-response","282","1337979","0.0-8.0-2.0-2.6-1.6","3","0","cug30k3oy2t694b","","282.10000002384186","","<p>To replay the <u>TARGET SOUND</u>, press P.</p> When you are ready to begin, press SPACEBAR.","","32","","","","","","","","","","","","","","","","","","","","","","","","","","","","","","","",""
"audio-keyboard-response","283","1352935","0.0-8.0-2.0-3.3","3","0","cug30k3oy2t694b","","1950","","sounds/C/TD/NI_01_TD.mp3","","32","","","TD_SUMMARY","","","","","","","","","","NI","","2700,4500,9000,10800","1","2700","4500","9000","10800","null","943.6999999284744","null","818.3999999761581","_______________________________1951.0999999046326_5443.699999928474_6365.899999976158_10776.699999928474_11618.399999976158_13415.399999976158","3","","","","","",""
"html-button-response","284","1354473","0.0-8.0-2.0-0.4","3","0","cug30k3oy2t694b","","1536.7999999523163","","<p>Trial 5 of 36</p>","0","","","","","","","","","","","","","","KO","sounds/syllables/ko_SWS.wav","900,2700,8100,10800","1","","","","","","","","","","","","","","","",""
"html-keyboard-response","285","1355058","0.0-8.0-2.0-1.4","3","0","cug30k3oy2t694b","","583.9000000953674","","","","80","","","","","","","","","","","","","KO","","900,2700,8100,10800","1","","","","","","","","","","","","","","","",""
"audio-keyboard-response","286","1355356","0.0-8.0-2.0-2.7-0.7","3","0","cug30k3oy2t694b","","null","","sounds/syllables/ko_SWS.wav","","null","","","","","","","","","","","","","","","","","","","","","","","","","","","","","","","",""
"html-keyboard-response","287","1355768","0.0-8.0-2.0-2.7-1.7","3","0","cug30k3oy2t694b","","411.2000000476837","","<p>To replay the <u>TARGET SOUND</u>, press P.</p> When you are ready to begin, press SPACEBAR.","","80","","","","","","","","","","","","","","","","","","","","","","","","","","","","","","","",""
"audio-keyboard-response","288","1356572","0.0-8.0-2.0-2.8-0.8","3","0","cug30k3oy2t694b","","null","","sounds/syllables/ko_SWS.wav","","null","","","","","","","","","","","","","","","","","","","","","","","","","","","","","","","",""
"html-keyboard-response","289","1356961","0.0-8.0-2.0-2.8-1.8","3","0","cug30k3oy2t694b","","387.90000009536743","","<p>To replay the <u>TARGET SOUND</u>, press P.</p> When you are ready to begin, press SPACEBAR.","","32","","","","","","","","","","","","","","","","","","","","","","","","","","","","","","","",""
"audio-keyboard-response","290","1371909","0.0-8.0-2.0-3.4","3","0","cug30k3oy2t694b","","911","","sounds/C/TD/KO_04_TD.mp3","","32","","","TD_SUMMARY","","","","","","","","","","KO","","900,2700,8100,10800","1","900","2700","8100","10800","939","null","781.3000000715256","520","_____________________________________905.8999999761581_1839_5938.399999976158_8079_8881.300000071526_11320_12618.700000047684_14094.300000071526","2","","","","","",""
"html-button-response","291","1373516","0.0-8.0-2.0-0.5","3","0","cug30k3oy2t694b","","1605.2999999523163","","<p>Trial 6 of 36</p>","0","","","","","","","","","","","","","","KO","sounds/syllables/ko_SWS.wav","1800,3600,5400,9900","1","","","","","","","","","","","","","","","",""
"html-keyboard-response","292","1374158","0.0-8.0-2.0-1.5","3","0","cug30k3oy2t694b","","640.8999999761581","","","","80","","","","","","","","","","","","","KO","","1800,3600,5400,9900","1","","","","","","","","","","","","","","","",""
"audio-keyboard-response","293","1374457","0.0-8.0-2.0-2.9-0.9","3","0","cug30k3oy2t694b","","null","","sounds/syllables/ko_SWS.wav","","null","","","","","","","","","","","","","","","","","","","","","","","","","","","","","","","",""
"html-keyboard-response","294","1374910","0.0-8.0-2.0-2.9-1.9","3","0","cug30k3oy2t694b","","453.10000002384186","","<p>To replay the <u>TARGET SOUND</u>, press P.</p> When you are ready to begin, press SPACEBAR.","","80","","","","","","","","","","","","","","","","","","","","","","","","","","","","","","","",""
"audio-keyboard-response","295","1375713","0.0-8.0-2.0-2.10-0.10","3","0","cug30k3oy2t694b","","null","","sounds/syllables/ko_SWS.wav","","null","","","","","","","","","","","","","","","","","","","","","","","","","","","","","","","",""
"html-keyboard-response","296","1376063","0.0-8.0-2.0-2.10-1.10","3","0","cug30k3oy2t694b","","349","","<p>To replay the <u>TARGET SOUND</u>, press P.</p> When you are ready to begin, press SPACEBAR.","","32","","","","","","","","","","","","","","","","","","","","","","","","","","","","","","","",""
"audio-keyboard-response","297","1391004","0.0-8.0-2.0-3.5","3","0","cug30k3oy2t694b","","2339","","sounds/C/TD/KO_05_TD.mp3","","32","","","TD_SUMMARY","","","","","","","","","","KO","","1800,3600,5400,9900","1","1800","3600","5400","9900","1089.7000000476837","565.1000000238419","null","1076.2000000476837","_____________________________________________2334.100000023842_2674.9000000953674_2889.7000000476837_4165.100000023842_6704.600000023842_6906.800000071526_10976.200000047684_11219.900000095367_12099.100000023842","2","","","","","",""
"html-button-response","298","1392160","0.0-8.0-2.0-0.6","3","0","cug30k3oy2t694b","","1154.3999999761581","","<p>Trial 7 of 36</p>","0","","","","","","","","","","","","","","RE","sounds/syllables/re_SWS.wav","1200,5700,11100,12900","2","","","","","","","","","","","","","","","",""
"html-keyboard-response","299","1392628","0.0-8.0-2.0-1.6","3","0","cug30k3oy2t694b","","466.7999999523163","","","","80","","","","","","","","","","","","","RE","","1200,5700,11100,12900","2","","","","","","","","","","","","","","","",""
"audio-keyboard-response","300","1392927","0.0-8.0-2.0-2.11-0.11","3","0","cug30k3oy2t694b","","null","","sounds/syllables/re_SWS.wav","","null","","","","","","","","","","","","","","","","","","","","","","","","","","","","","","","",""
"html-keyboard-response","301","1393646","0.0-8.0-2.0-2.11-1.11","3","0","cug30k3oy2t694b","","718.7000000476837","","<p>To replay the <u>TARGET SOUND</u>, press P.</p> When you are ready to begin, press SPACEBAR.","","32","","","","","","","","","","","","","","","","","","","","","","","","","","","","","","","",""
"audio-keyboard-response","302","1408593","0.0-8.0-2.0-3.6","3","0","cug30k3oy2t694b","","1039","","sounds/C/TD/RE_04_TD.mp3","","32","","","TD_SUMMARY","","","","","","","","","","RE","","1200,5700,11100,12900","2","1200","5700","11100","12900","1029.8999999761581","null","null","null","______________________________________________________1037.7000000476837_1255_1825.5_2035.6000000238419_2229.899999976158_3373.399999976158_3869.8000000715256_4787.600000023842_5592.300000071526_9925.700000047684_10131.5","1","","","","","",""
"html-button-response","303","1423922","0.0-8.0-2.0-0.7","3","0","cug30k3oy2t694b","","15326.699999928474","","<p>Trial 8 of 36</p>","0","","","","","","","","","","","","","","PU","sounds/syllables/pu_SWS.wav","3300,6900,10500,13200","3","","","","","","","","","","","","","","","",""
"html-keyboard-response","304","1424754","0.0-8.0-2.0-1.7","3","0","cug30k3oy2t694b","","830.8999999761581","","","","80","","","","","","","","","","","","","PU","","3300,6900,10500,13200","3","","","","","","","","","","","","","","","",""
"audio-keyboard-response","305","1425053","0.0-8.0-2.0-2.12-0.12","3","0","cug30k3oy2t694b","","null","","sounds/syllables/pu_SWS.wav","","null","","","","","","","","","","","","","","","","","","","","","","","","","","","","","","","",""
"html-keyboard-response","306","1426207","0.0-8.0-2.0-2.12-1.12","3","0","cug30k3oy2t694b","","1152.7000000476837","","<p>To replay the <u>TARGET SOUND</u>, press P.</p> When you are ready to begin, press SPACEBAR.","","80","","","","","","","","","","","","","","","","","","","","","","","","","","","","","","","",""
"audio-keyboard-response","307","1427017","0.0-8.0-2.0-2.13-0.13","3","0","cug30k3oy2t694b","","null","","sounds/syllables/pu_SWS.wav","","null","","","","","","","","","","","","","","","","","","","","","","","","","","","","","","","",""
"html-keyboard-response","308","1427672","0.0-8.0-2.0-2.13-1.13","3","0","cug30k3oy2t694b","","654.5","","<p>To replay the <u>TARGET SOUND</u>, press P.</p> When you are ready to begin, press SPACEBAR.","","32","","","","","","","","","","","","","","","","","","","","","","","","","","","","","","","",""
"audio-keyboard-response","309","1442626","0.0-8.0-2.0-3.7","3","0","cug30k3oy2t694b","","1544","","sounds/C/TD/PU_03_TD.mp3","","32","","","TD_SUMMARY","","","","","","","","","","PU","","3300,6900,10500,13200","3","3300","6900","10500","13200","1118.7999999523163","993.7999999523163","579.5","336.7999999523163","_________________________________________________________________1550.2000000476837_2424.899999976158_2631_3752.2999999523163_3945.2999999523163_4127_4418.799999952316_5522.5_6172.299999952316_6378.200000047684_6875.600000023842_7168.5_7893.799999952316_8481.399999976158_9156.5_11079.5_13313.899999976158_13536.799999952316","2","","","","","",""
"html-button-response","310","1444033","0.0-8.0-2.0-0.8","3","0","cug30k3oy2t694b","","1405.2000000476837","","<p>Trial 9 of 36</p>","0","","","","","","","","","","","","","","FU","sounds/syllables/fu_SWS.wav","3300,6000,8700,12300","3","","","","","","","","","","","","","","","",""
"html-keyboard-response","311","1444630","0.0-8.0-2.0-1.8","3","0","cug30k3oy2t694b","","596.3999999761581","","","","80","","","","","","","","","","","","","FU","","3300,6000,8700,12300","3","","","","","","","","","","","","","","","",""
"audio-keyboard-response","312","1444931","0.0-8.0-2.0-2.14-0.14","3","0","cug30k3oy2t694b","","null","","sounds/syllables/fu_SWS.wav","","null","","","","","","","","","","","","","","","","","","","","","","","","","","","","","","","",""
"html-keyboard-response","313","1446127","0.0-8.0-2.0-2.14-1.14","3","0","cug30k3oy2t694b","","1196.2000000476837","","<p>To replay the <u>TARGET SOUND</u>, press P.</p> When you are ready to begin, press SPACEBAR.","","32","","","","","","","","","","","","","","","","","","","","","","","","","","","","","","","",""
"audio-keyboard-response","314","1461078","0.0-8.0-2.0-3.8","3","0","cug30k3oy2t694b","","877","","sounds/C/TD/FU_03_TD.mp3","","32","","","TD_SUMMARY","","","","","","","","","","FU","","3300,6000,8700,12300","3","3300","6000","8700","12300","null","null","null","null","___________________________________________________________________________________877.6999999284744_5502.399999976158_5728.5_8487.099999904633_10622.799999952316_11898.199999928474_14009.5","1","","","","","",""
"html-button-response","315","1463821","0.0-8.0-2.0-0.9","3","0","cug30k3oy2t694b","","2741.5","","<p>Trial 10 of 36</p>","0","","","","","","","","","","","","","","SU","sounds/syllables/su_SWS.wav","3600,5400,8100,12600","1","","","","","","","","","","","","","","","",""
"html-keyboard-response","316","1464353","0.0-8.0-2.0-1.9","3","0","cug30k3oy2t694b","","530.7000000476837","","","","80","","","","","","","","","","","","","SU","","3600,5400,8100,12600","1","","","","","","","","","","","","","","","",""
"audio-keyboard-response","317","1464651","0.0-8.0-2.0-2.15-0.15","3","0","cug30k3oy2t694b","","null","","sounds/syllables/su_SWS.wav","","null","","","","","","","","","","","","","","","","","","","","","","","","","","","","","","","",""
"html-keyboard-response","318","1465226","0.0-8.0-2.0-2.15-1.15","3","0","cug30k3oy2t694b","","574.5","","<p>To replay the <u>TARGET SOUND</u>, press P.</p> When you are ready to begin, press SPACEBAR.","","80","","","","","","","","","","","","","","","","","","","","","","","","","","","","","","","",""
"audio-keyboard-response","319","1466030","0.0-8.0-2.0-2.16-0.16","3","0","cug30k3oy2t694b","","null","","sounds/syllables/su_SWS.wav","","null","","","","","","","","","","","","","","","","","","","","","","","","","","","","","","","",""
"html-keyboard-response","320","1466611","0.0-8.0-2.0-2.16-1.16","3","0","cug30k3oy2t694b","","580.8999999761581","","<p>To replay the <u>TARGET SOUND</u>, press P.</p> When you are ready to begin, press SPACEBAR.","","32","","","","","","","","","","","","","","","","","","","","","","","","","","","","","","","",""
"audio-keyboard-response","321","1481564","0.0-8.0-2.0-3.9","3","0","cug30k3oy2t694b","","3338","","sounds/C/TD/SU_04_TD.mp3","","32","","","TD_SUMMARY","","","","","","","","","","SU","","3600,5400,8100,12600","1","3600","5400","8100","12600","1123.1000000238419","null","880.2999999523163","758.7000000476837","__________________________________________________________________________________________3344.600000023842_3546.899999976158_3807.100000023842_4723.100000023842_6677.5_8980.299999952316_10595.399999976158_13358.700000047684","2","","","","","",""
"html-button-response","322","1484076","0.0-8.0-2.0-0.10","3","0","cug30k3oy2t694b","","2510.2999999523163","","<p>Trial 11 of 36</p>","0","","","","","","","","","","","","","","RU","sounds/syllables/ru_SWS.wav","3900,6600,8400,12900","2","","","","","","","","","","","","","","","",""
"html-keyboard-response","323","1488462","0.0-8.0-2.0-1.10","3","0","cug30k3oy2t694b","","4385.299999952316","","","","80","","","","","","","","","","","","","RU","","3900,6600,8400,12900","2","","","","","","","","","","","","","","","",""
"audio-keyboard-response","324","1488762","0.0-8.0-2.0-2.17-0.17","3","0","cug30k3oy2t694b","","null","","sounds/syllables/ru_SWS.wav","","null","","","","","","","","","","","","","","","","","","","","","","","","","","","","","","","",""
"html-keyboard-response","325","1489571","0.0-8.0-2.0-2.17-1.17","3","0","cug30k3oy2t694b","","808.5","","<p>To replay the <u>TARGET SOUND</u>, press P.</p> When you are ready to begin, press SPACEBAR.","","32","","","","","","","","","","","","","","","","","","","","","","","","","","","","","","","",""
"audio-keyboard-response","326","1504516","0.0-8.0-2.0-3.10","3","0","cug30k3oy2t694b","","1207","","sounds/C/TD/RU_09_TD.mp3","","32","","","TD_SUMMARY","","","","","","","","","","RU","","3900,6600,8400,12900","2","3900","6600","8400","12900","null","1031.7999999523163","867.5","1019.6999999284744","__________________________________________________________________________________________________1208.3999999761581_1440.2999999523163_3718.2999999523163_5331.799999952316_5517.899999976158_5702.199999928474_7419.5_7631.799999952316_9267.5_12391_13919.699999928474_14261.799999952316","1","","","","","",""
"html-button-response","327","1505667","0.0-8.0-2.0-0.11","3","0","cug30k3oy2t694b","","1149","","<p>Trial 12 of 36</p>","0","","","","","","","","","","","","","","GE","sounds/syllables/ge_SWS.wav","3300,5100,6900,10500","3","","","","","","","","","","","","","","","",""
"html-keyboard-response","328","1508024","0.0-8.0-2.0-1.11","3","0","cug30k3oy2t694b","","2356.2999999523163","","","","80","","","","","","","","","","","","","GE","","3300,5100,6900,10500","3","","","","","","","","","","","","","","","",""
"audio-keyboard-response","329","1508321","0.0-8.0-2.0-2.18-0.18","3","0","cug30k3oy2t694b","","null","","sounds/syllables/ge_SWS.wav","","null","","","","","","","","","","","","","","","","","","","","","","","","","","","","","","","",""
"html-keyboard-response","330","1509238","0.0-8.0-2.0-2.18-1.18","3","0","cug30k3oy2t694b","","916.8999999761581","","<p>To replay the <u>TARGET SOUND</u>, press P.</p> When you are ready to begin, press SPACEBAR.","","32","","","","","","","","","","","","","","","","","","","","","","","","","","","","","","","",""
"audio-keyboard-response","331","1524190","0.0-8.0-2.0-3.11","3","0","cug30k3oy2t694b","","1254","","sounds/C/TD/GE_08_TD.mp3","","32","","","TD_SUMMARY","","","","","","","","","","GE","","3300,5100,6900,10500","3","3300","5100","6900","10500","null","333.7000000476837","null","650.1000000238419","______________________________________________________________________________________________________________1260.8000000715256_1686.3000000715256_2019.5_5127.300000071526_5433.700000047684_6392.700000047684_8775_10842.900000095367_11150.100000023842_12759.100000023842","1","","","","","",""
"html-button-response","332","1532205","0.0-8.0-2.0-0.12","3","0","cug30k3oy2t694b","","8013.299999952316","","<p>Trial 13 of 36</p>","0","","","","","","","","","","","","","","RU","sounds/syllables/ru_SWS.wav","1200,4800,9300,11100","2","","","","","","","","","","","","","","","",""
"html-keyboard-response","333","1532469","0.0-8.0-2.0-1.12","3","0","cug30k3oy2t694b","","262.1999999284744","","","","80","","","","","","","","","","","","","RU","","1200,4800,9300,11100","2","","","","","","","","","","","","","","","",""
