"trial_type","trial_index","time_elapsed","internal_node_id","counterbalance","lang_instruct","ParticipantID","view_history","rt","url","stimulus","button_pressed","key_press","correctRESP","correct","designation","location","correctanswer","responses","sentence","keywords","typed_resp","keyword1_acc","keyword2_acc","keyword3_acc","keyword4_acc","keyword5_acc","total_acc","prop_acc","timeouts","pause_rt01","pause_rt02","train_file","numKeyPress","sound","fam_type","SYLLABLE","EXEMPLAR","TD_LOCS","TD_TYPE","TDLOC_01","TDLOC_02","TDLOC_03","TDLOC_04","TD_RT_01","TD_RT_02","TD_RT_03","TD_RT_04","TD_SUBJ_RTs","number_of_plays","slider_start","response","question_order","syllable","syllable_type"
"pavlovia","0","1","0.0-0.0","1","1","b7ed8wdnoab00qs","","","","","","","","","","","","","","","","","","","","","","","","","","","","","","","","","","","","","","","","","","","","","","","",""
"instructions","1","11875","0.0-1.0","1","1","b7ed8wdnoab00qs","[{""page_index"":0,""viewing_time"":8415},{""page_index"":1,""viewing_time"":3457}]","11874.000000000004","","","","","","","","","","","","","","","","","","","","","","","","","","","","","","","","","","","","","","","","","","","","","",""
"external-html","2","14599","0.0-2.0","1","1","b7ed8wdnoab00qs","","2721","consent/consent.html","","","","","","","","","","","","","","","","","","","","","","","","","","","","","","","","","","","","","","","","","","","","",""
"html-button-response","3","29552","0.0-3.0-0.0-0.0","1","1","b7ed8wdnoab00qs","","14952","","<p>Welcome to the study. You will first complete a short volume calibration and headphone check.</p><p>Please make sure you are in a quiet listening environment, that you are wearing headphones, and that your computer's volume is turned on.<p></p>","0","","","","","","","","","","","","","","","","","","","","","","","","","","","","","","","","","","","","","","","","","","",""
"html-button-response","4","35546","0.0-3.0-0.0-1.0","1","1","b7ed8wdnoab00qs","","5740","","<p>The volume calibration will be first.</p><p>You will hear a thirty-second noise. Please adjust your computer's volume so that this noise is being presented at a comfortable level.<p></p>","0","","","","","","","","","","","","","","","","","","","","","","","","","","","","","","","","","","","","","","","","","","",""
"audio-button-response","5","41184","0.0-3.0-0.0-2.0","1","1","b7ed8wdnoab00qs","","4832","","audCalib/volumetest.mp3","0","","","","","","","","","","","","","","","","","","","","","","","","","","","","","","","","","","","","","","","","","","",""
"html-button-response","6","44270","0.0-3.0-1.0-0.0","1","1","b7ed8wdnoab00qs","","3085","","<p>You will now complete a short headphone check.</p><p>On each trial, you will hear three tones. One of these tones will be quieter than the others. Your task is to identify whether the quiet tone occured first, second, or third.</p><p>There are six trials in total.<p></p>","0","","","","","","","","","","","","","","","","","","","","","","","","","","","","","","","","","","","","","","","","","","",""
"html-keyboard-response","7","45024","0.0-3.0-1.0-1.0-0.0","1","1","b7ed8wdnoab00qs","","null","","<div style=""font-size:60px;"">+</div>","","null","","","","","","","","","","","","","","","","","","","","","","","","","","","","","","","","","","","","","","","","","",""
"audio-button-response","8","49297","0.0-3.0-1.0-1.0-1.0","1","1","b7ed8wdnoab00qs","","4267","","audCalib/t3_1.mp3","2","","2","1","headphone-test","","","","","","","","","","","","","","","","","","","","","","","","","","","","","","","","","","","","","","",""
"html-keyboard-response","9","50051","0.0-3.0-1.0-1.0-0.1","1","1","b7ed8wdnoab00qs","","null","","<div style=""font-size:60px;"">+</div>","","null","","","","","","","","","","","","","","","","","","","","","","","","","","","","","","","","","","","","","","","","","",""
"audio-button-response","10","53935","0.0-3.0-1.0-1.0-1.1","1","1","b7ed8wdnoab00qs","","3883","","audCalib/t2_1.mp3","1","","1","1","headphone-test","","","","","","","","","","","","","","","","","","","","","","","","","","","","","","","","","","","","","","",""
"html-keyboard-response","11","54689","0.0-3.0-1.0-1.0-0.2","1","1","b7ed8wdnoab00qs","","null","","<div style=""font-size:60px;"">+</div>","","null","","","","","","","","","","","","","","","","","","","","","","","","","","","","","","","","","","","","","","","","","",""
"audio-button-response","12","58552","0.0-3.0-1.0-1.0-1.2","1","1","b7ed8wdnoab00qs","","3861","","audCalib/t1_1.mp3","0","","0","1","headphone-test","","","","","","","","","","","","","","","","","","","","","","","","","","","","","","","","","","","","","","",""
"html-keyboard-response","13","59306","0.0-3.0-1.0-1.0-0.3","1","1","b7ed8wdnoab00qs","","null","","<div style=""font-size:60px;"">+</div>","","null","","","","","","","","","","","","","","","","","","","","","","","","","","","","","","","","","","","","","","","","","",""
"audio-button-response","14","63369","0.0-3.0-1.0-1.0-1.3","1","1","b7ed8wdnoab00qs","","4064","","audCalib/t1_2.mp3","0","","0","1","headphone-test","","","","","","","","","","","","","","","","","","","","","","","","","","","","","","","","","","","","","","",""
"html-keyboard-response","15","64123","0.0-3.0-1.0-1.0-0.4","1","1","b7ed8wdnoab00qs","","null","","<div style=""font-size:60px;"">+</div>","","null","","","","","","","","","","","","","","","","","","","","","","","","","","","","","","","","","","","","","","","","","",""
"audio-button-response","16","68041","0.0-3.0-1.0-1.0-1.4","1","1","b7ed8wdnoab00qs","","3925","","audCalib/t2_2.mp3","1","","1","1","headphone-test","","","","","","","","","","","","","","","","","","","","","","","","","","","","","","","","","","","","","","",""
"html-keyboard-response","17","68795","0.0-3.0-1.0-1.0-0.5","1","1","b7ed8wdnoab00qs","","null","","<div style=""font-size:60px;"">+</div>","","null","","","","","","","","","","","","","","","","","","","","","","","","","","","","","","","","","","","","","","","","","",""
"audio-button-response","18","73968","0.0-3.0-1.0-1.0-1.5","1","1","b7ed8wdnoab00qs","","5163","","audCalib/t3_2.mp3","2","","2","1","headphone-test","","","","","","","","","","","","","","","","","","","","","","","","","","","","","","","","","","","","","","",""
"html-button-response","19","76219","0.0-3.0-2.0","1","1","b7ed8wdnoab00qs","","1999","","<p>The volume calibration and headphone check are now complete.</p>","0","","","","","","","","","","","","","","","","","","","","","","","","","","","","","","","","","","","","","","","","","","",""
"instructions","20","93881","0.0-4.0-0.0","1","1","b7ed8wdnoab00qs","[{""page_index"":0,""viewing_time"":1881.9999999999854},{""page_index"":1,""viewing_time"":13822},{""page_index"":2,""viewing_time"":1957}]","17660.999999999985","","","","","","","","","","","","","","","","","","","","","","","","","","","","","","","","","","","","","","","","","","","","","",""
"audio-keyboard-response","21","94184","0.0-4.0-1.0-0.0","1","1","b7ed8wdnoab00qs","","null","","sounds/induction/left/pu_SWS.wav","","null","","","","","","","","","","","","","","","","","","","","","","","","","","","","","","","","","","","","","","","","","",""
"html-button-response","22","95240","0.0-4.0-1.0-1.0","1","1","b7ed8wdnoab00qs","","1054","","What sound did you hear?","0","","","1","INDUCTION-JUDGMENT","left","0","","","","","","","","","","","","","","","","","","","","","","","","","","","","","","","","","","","","",""
"html-keyboard-response","23","96243","0.0-4.0-1.0-2.0","1","1","b7ed8wdnoab00qs","","null","","<p style=""color:green;""><b>Correct!</b></p>","","null","","","","","","","","","","","","","","","","","","","","","","","","","","","","","","","","","","","","","","","","","",""
"audio-keyboard-response","24","97053","0.0-4.0-1.0-0.1","1","1","b7ed8wdnoab00qs","","null","","sounds/induction/left/su_SWS.wav","","null","","","","","","","","","","","","","","","","","","","","","","","","","","","","","","","","","","","","","","","","","",""
"html-button-response","25","97966","0.0-4.0-1.0-1.1","1","1","b7ed8wdnoab00qs","","911","","What sound did you hear?","0","","","1","INDUCTION-JUDGMENT","left","0","","","","","","","","","","","","","","","","","","","","","","","","","","","","","","","","","","","","",""
"html-keyboard-response","26","98969","0.0-4.0-1.0-2.1","1","1","b7ed8wdnoab00qs","","null","","<p style=""color:green;""><b>Correct!</b></p>","","null","","","","","","","","","","","","","","","","","","","","","","","","","","","","","","","","","","","","","","","","","",""
"audio-keyboard-response","27","99773","0.0-4.0-1.0-0.2","1","1","b7ed8wdnoab00qs","","null","","sounds/induction/left/me_SWS.wav","","null","","","","","","","","","","","","","","","","","","","","","","","","","","","","","","","","","","","","","","","","","",""
"html-button-response","28","100677","0.0-4.0-1.0-1.2","1","1","b7ed8wdnoab00qs","","902","","What sound did you hear?","1","","","1","INDUCTION-JUDGMENT","left","1","","","","","","","","","","","","","","","","","","","","","","","","","","","","","","","","","","","","",""
"html-keyboard-response","29","101680","0.0-4.0-1.0-2.2","1","1","b7ed8wdnoab00qs","","null","","<p style=""color:green;""><b>Correct!</b></p>","","null","","","","","","","","","","","","","","","","","","","","","","","","","","","","","","","","","","","","","","","","","",""
"audio-keyboard-response","30","102482","0.0-4.0-1.0-0.3","1","1","b7ed8wdnoab00qs","","null","","sounds/induction/left/ni_SWS.wav","","null","","","","","","","","","","","","","","","","","","","","","","","","","","","","","","","","","","","","","","","","","",""
"html-button-response","31","104516","0.0-4.0-1.0-1.3","1","1","b7ed8wdnoab00qs","","2032","","What sound did you hear?","0","","","0","INDUCTION-JUDGMENT","left","1","","","","","","","","","","","","","","","","","","","","","","","","","","","","","","","","","","","","",""
"html-keyboard-response","32","105518","0.0-4.0-1.0-2.3","1","1","b7ed8wdnoab00qs","","null","","<p style=""color:red;""><b>Incorrect!</b></p>","","null","","","","","","","","","","","","","","","","","","","","","","","","","","","","","","","","","","","","","","","","","",""
"audio-keyboard-response","33","106322","0.0-4.0-1.0-0.4","1","1","b7ed8wdnoab00qs","","null","","sounds/induction/right/ta_SWS.wav","","null","","","","","","","","","","","","","","","","","","","","","","","","","","","","","","","","","","","","","","","","","",""
"html-button-response","34","107340","0.0-4.0-1.0-1.4","1","1","b7ed8wdnoab00qs","","1017.0000000000146","","What sound did you hear?","1","","","1","INDUCTION-JUDGMENT","right","1","","","","","","","","","","","","","","","","","","","","","","","","","","","","","","","","","","","","",""
"html-keyboard-response","35","108342","0.0-4.0-1.0-2.4","1","1","b7ed8wdnoab00qs","","null","","<p style=""color:green;""><b>Correct!</b></p>","","null","","","","","","","","","","","","","","","","","","","","","","","","","","","","","","","","","","","","","","","","","",""
"audio-keyboard-response","36","109148","0.0-4.0-1.0-0.5","1","1","b7ed8wdnoab00qs","","null","","sounds/induction/left/fu_SWS.wav","","null","","","","","","","","","","","","","","","","","","","","","","","","","","","","","","","","","","","","","","","","","",""
"html-button-response","37","110091","0.0-4.0-1.0-1.5","1","1","b7ed8wdnoab00qs","","942","","What sound did you hear?","1","","","1","INDUCTION-JUDGMENT","left","1","","","","","","","","","","","","","","","","","","","","","","","","","","","","","","","","","","","","",""
"html-keyboard-response","38","111094","0.0-4.0-1.0-2.5","1","1","b7ed8wdnoab00qs","","null","","<p style=""color:green;""><b>Correct!</b></p>","","null","","","","","","","","","","","","","","","","","","","","","","","","","","","","","","","","","","","","","","","","","",""
"audio-keyboard-response","39","111900","0.0-4.0-1.0-0.6","1","1","b7ed8wdnoab00qs","","null","","sounds/induction/right/ni_SWS.wav","","null","","","","","","","","","","","","","","","","","","","","","","","","","","","","","","","","","","","","","","","","","",""
"html-button-response","40","113081","0.0-4.0-1.0-1.6","1","1","b7ed8wdnoab00qs","","1179.0000000000146","","What sound did you hear?","0","","","1","INDUCTION-JUDGMENT","right","0","","","","","","","","","","","","","","","","","","","","","","","","","","","","","","","","","","","","",""
"html-keyboard-response","41","114083","0.0-4.0-1.0-2.6","1","1","b7ed8wdnoab00qs","","null","","<p style=""color:green;""><b>Correct!</b></p>","","null","","","","","","","","","","","","","","","","","","","","","","","","","","","","","","","","","","","","","","","","","",""
"audio-keyboard-response","42","114887","0.0-4.0-1.0-0.7","1","1","b7ed8wdnoab00qs","","null","","sounds/induction/left/ge_SWS.wav","","null","","","","","","","","","","","","","","","","","","","","","","","","","","","","","","","","","","","","","","","","","",""
"html-button-response","43","116240","0.0-4.0-1.0-1.7","1","1","b7ed8wdnoab00qs","","1352.9999999999854","","What sound did you hear?","0","","","0","INDUCTION-JUDGMENT","left","1","","","","","","","","","","","","","","","","","","","","","","","","","","","","","","","","","","","","",""
"html-keyboard-response","44","117243","0.0-4.0-1.0-2.7","1","1","b7ed8wdnoab00qs","","null","","<p style=""color:red;""><b>Incorrect!</b></p>","","null","","","","","","","","","","","","","","","","","","","","","","","","","","","","","","","","","","","","","","","","","",""
"audio-keyboard-response","45","118044","0.0-4.0-1.0-0.8","1","1","b7ed8wdnoab00qs","","null","","sounds/induction/left/ta_SWS.wav","","null","","","","","","","","","","","","","","","","","","","","","","","","","","","","","","","","","","","","","","","","","",""
"html-button-response","46","119294","0.0-4.0-1.0-1.8","1","1","b7ed8wdnoab00qs","","1248.9999999999854","","What sound did you hear?","1","","","0","INDUCTION-JUDGMENT","left","0","","","","","","","","","","","","","","","","","","","","","","","","","","","","","","","","","","","","",""
"html-keyboard-response","47","120296","0.0-4.0-1.0-2.8","1","1","b7ed8wdnoab00qs","","null","","<p style=""color:red;""><b>Incorrect!</b></p>","","null","","","","","","","","","","","","","","","","","","","","","","","","","","","","","","","","","","","","","","","","","",""
"audio-keyboard-response","48","121105","0.0-4.0-1.0-0.9","1","1","b7ed8wdnoab00qs","","null","","sounds/induction/left/ni_SWS.wav","","null","","","","","","","","","","","","","","","","","","","","","","","","","","","","","","","","","","","","","","","","","",""
"html-button-response","49","122094","0.0-4.0-1.0-1.9","1","1","b7ed8wdnoab00qs","","987","","What sound did you hear?","0","","","0","INDUCTION-JUDGMENT","left","1","","","","","","","","","","","","","","","","","","","","","","","","","","","","","","","","","","","","",""
"html-keyboard-response","50","123097","0.0-4.0-1.0-2.9","1","1","b7ed8wdnoab00qs","","null","","<p style=""color:red;""><b>Incorrect!</b></p>","","null","","","","","","","","","","","","","","","","","","","","","","","","","","","","","","","","","","","","","","","","","",""
"audio-keyboard-response","51","123900","0.0-4.0-1.0-0.10","1","1","b7ed8wdnoab00qs","","null","","sounds/induction/right/ko_SWS.wav","","null","","","","","","","","","","","","","","","","","","","","","","","","","","","","","","","","","","","","","","","","","",""
"html-button-response","52","124853","0.0-4.0-1.0-1.10","1","1","b7ed8wdnoab00qs","","952","","What sound did you hear?","1","","","0","INDUCTION-JUDGMENT","right","0","","","","","","","","","","","","","","","","","","","","","","","","","","","","","","","","","","","","",""
"html-keyboard-response","53","125855","0.0-4.0-1.0-2.10","1","1","b7ed8wdnoab00qs","","null","","<p style=""color:red;""><b>Incorrect!</b></p>","","null","","","","","","","","","","","","","","","","","","","","","","","","","","","","","","","","","","","","","","","","","",""
"audio-keyboard-response","54","126663","0.0-4.0-1.0-0.11","1","1","b7ed8wdnoab00qs","","null","","sounds/induction/right/su_SWS.wav","","null","","","","","","","","","","","","","","","","","","","","","","","","","","","","","","","","","","","","","","","","","",""
"html-button-response","55","127604","0.0-4.0-1.0-1.11","1","1","b7ed8wdnoab00qs","","940","","What sound did you hear?","1","","","1","INDUCTION-JUDGMENT","right","1","","","","","","","","","","","","","","","","","","","","","","","","","","","","","","","","","","","","",""
"html-keyboard-response","56","128607","0.0-4.0-1.0-2.11","1","1","b7ed8wdnoab00qs","","null","","<p style=""color:green;""><b>Correct!</b></p>","","null","","","","","","","","","","","","","","","","","","","","","","","","","","","","","","","","","","","","","","","","","",""
"audio-keyboard-response","57","129415","0.0-4.0-1.0-0.12","1","1","b7ed8wdnoab00qs","","null","","sounds/induction/right/ge_SWS.wav","","null","","","","","","","","","","","","","","","","","","","","","","","","","","","","","","","","","","","","","","","","","",""
"html-button-response","58","130249","0.0-4.0-1.0-1.12","1","1","b7ed8wdnoab00qs","","833","","What sound did you hear?","1","","","0","INDUCTION-JUDGMENT","right","0","","","","","","","","","","","","","","","","","","","","","","","","","","","","","","","","","","","","",""
"html-keyboard-response","59","131251","0.0-4.0-1.0-2.12","1","1","b7ed8wdnoab00qs","","null","","<p style=""color:red;""><b>Incorrect!</b></p>","","null","","","","","","","","","","","","","","","","","","","","","","","","","","","","","","","","","","","","","","","","","",""
"audio-keyboard-response","60","132060","0.0-4.0-1.0-0.13","1","1","b7ed8wdnoab00qs","","null","","sounds/induction/left/fe_SWS.wav","","null","","","","","","","","","","","","","","","","","","","","","","","","","","","","","","","","","","","","","","","","","",""
"html-button-response","61","133408","0.0-4.0-1.0-1.13","1","1","b7ed8wdnoab00qs","","1346.999999999971","","What sound did you hear?","1","","","1","INDUCTION-JUDGMENT","left","1","","","","","","","","","","","","","","","","","","","","","","","","","","","","","","","","","","","","",""
"html-keyboard-response","62","134410","0.0-4.0-1.0-2.13","1","1","b7ed8wdnoab00qs","","null","","<p style=""color:green;""><b>Correct!</b></p>","","null","","","","","","","","","","","","","","","","","","","","","","","","","","","","","","","","","","","","","","","","","",""
"audio-keyboard-response","63","135217","0.0-4.0-1.0-0.14","1","1","b7ed8wdnoab00qs","","null","","sounds/induction/left/fu_SWS.wav","","null","","","","","","","","","","","","","","","","","","","","","","","","","","","","","","","","","","","","","","","","","",""
"html-button-response","64","136021","0.0-4.0-1.0-1.14","1","1","b7ed8wdnoab00qs","","801","","What sound did you hear?","1","","","1","INDUCTION-JUDGMENT","left","1","","","","","","","","","","","","","","","","","","","","","","","","","","","","","","","","","","","","",""
"html-keyboard-response","65","137023","0.0-4.0-1.0-2.14","1","1","b7ed8wdnoab00qs","","null","","<p style=""color:green;""><b>Correct!</b></p>","","null","","","","","","","","","","","","","","","","","","","","","","","","","","","","","","","","","","","","","","","","","",""
"audio-keyboard-response","66","137830","0.0-4.0-1.0-0.15","1","1","b7ed8wdnoab00qs","","null","","sounds/induction/right/me_SWS.wav","","null","","","","","","","","","","","","","","","","","","","","","","","","","","","","","","","","","","","","","","","","","",""
"html-button-response","67","138789","0.0-4.0-1.0-1.15","1","1","b7ed8wdnoab00qs","","958","","What sound did you hear?","0","","","1","INDUCTION-JUDGMENT","right","0","","","","","","","","","","","","","","","","","","","","","","","","","","","","","","","","","","","","",""
"html-keyboard-response","68","139792","0.0-4.0-1.0-2.15","1","1","b7ed8wdnoab00qs","","null","","<p style=""color:green;""><b>Correct!</b></p>","","null","","","","","","","","","","","","","","","","","","","","","","","","","","","","","","","","","","","","","","","","","",""
"audio-keyboard-response","69","140593","0.0-4.0-1.0-0.16","1","1","b7ed8wdnoab00qs","","null","","sounds/induction/right/pu_SWS.wav","","null","","","","","","","","","","","","","","","","","","","","","","","","","","","","","","","","","","","","","","","","","",""
"html-button-response","70","141450","0.0-4.0-1.0-1.16","1","1","b7ed8wdnoab00qs","","855","","What sound did you hear?","1","","","1","INDUCTION-JUDGMENT","right","1","","","","","","","","","","","","","","","","","","","","","","","","","","","","","","","","","","","","",""
"html-keyboard-response","71","142453","0.0-4.0-1.0-2.16","1","1","b7ed8wdnoab00qs","","null","","<p style=""color:green;""><b>Correct!</b></p>","","null","","","","","","","","","","","","","","","","","","","","","","","","","","","","","","","","","","","","","","","","","",""
"audio-keyboard-response","72","143260","0.0-4.0-1.0-0.17","1","1","b7ed8wdnoab00qs","","null","","sounds/induction/right/ti_SWS.wav","","null","","","","","","","","","","","","","","","","","","","","","","","","","","","","","","","","","","","","","","","","","",""
"html-button-response","73","144339","0.0-4.0-1.0-1.17","1","1","b7ed8wdnoab00qs","","1078","","What sound did you hear?","0","","","0","INDUCTION-JUDGMENT","right","1","","","","","","","","","","","","","","","","","","","","","","","","","","","","","","","","","","","","",""
"html-keyboard-response","74","145341","0.0-4.0-1.0-2.17","1","1","b7ed8wdnoab00qs","","null","","<p style=""color:red;""><b>Incorrect!</b></p>","","null","","","","","","","","","","","","","","","","","","","","","","","","","","","","","","","","","","","","","","","","","",""
"audio-keyboard-response","75","146150","0.0-4.0-1.0-0.18","1","1","b7ed8wdnoab00qs","","null","","sounds/induction/right/ge_SWS.wav","","null","","","","","","","","","","","","","","","","","","","","","","","","","","","","","","","","","","","","","","","","","",""
"html-button-response","76","147721","0.0-4.0-1.0-1.18","1","1","b7ed8wdnoab00qs","","1570","","What sound did you hear?","1","","","0","INDUCTION-JUDGMENT","right","0","","","","","","","","","","","","","","","","","","","","","","","","","","","","","","","","","","","","",""
"html-keyboard-response","77","148723","0.0-4.0-1.0-2.18","1","1","b7ed8wdnoab00qs","","null","","<p style=""color:red;""><b>Incorrect!</b></p>","","null","","","","","","","","","","","","","","","","","","","","","","","","","","","","","","","","","","","","","","","","","",""
"audio-keyboard-response","78","149532","0.0-4.0-1.0-0.19","1","1","b7ed8wdnoab00qs","","null","","sounds/induction/right/ru_SWS.wav","","null","","","","","","","","","","","","","","","","","","","","","","","","","","","","","","","","","","","","","","","","","",""
"html-button-response","79","150988","0.0-4.0-1.0-1.19","1","1","b7ed8wdnoab00qs","","1454","","What sound did you hear?","0","","","0","INDUCTION-JUDGMENT","right","1","","","","","","","","","","","","","","","","","","","","","","","","","","","","","","","","","","","","",""
"html-keyboard-response","80","151991","0.0-4.0-1.0-2.19","1","1","b7ed8wdnoab00qs","","null","","<p style=""color:red;""><b>Incorrect!</b></p>","","null","","","","","","","","","","","","","","","","","","","","","","","","","","","","","","","","","","","","","","","","","",""
"audio-keyboard-response","81","152795","0.0-4.0-1.0-0.20","1","1","b7ed8wdnoab00qs","","null","","sounds/induction/left/ta_SWS.wav","","null","","","","","","","","","","","","","","","","","","","","","","","","","","","","","","","","","","","","","","","","","",""
"html-button-response","82","154254","0.0-4.0-1.0-1.20","1","1","b7ed8wdnoab00qs","","1459","","What sound did you hear?","0","","","1","INDUCTION-JUDGMENT","left","0","","","","","","","","","","","","","","","","","","","","","","","","","","","","","","","","","","","","",""
"html-keyboard-response","83","155256","0.0-4.0-1.0-2.20","1","1","b7ed8wdnoab00qs","","null","","<p style=""color:green;""><b>Correct!</b></p>","","null","","","","","","","","","","","","","","","","","","","","","","","","","","","","","","","","","","","","","","","","","",""
"audio-keyboard-response","84","156059","0.0-4.0-1.0-0.21","1","1","b7ed8wdnoab00qs","","null","","sounds/induction/right/su_SWS.wav","","null","","","","","","","","","","","","","","","","","","","","","","","","","","","","","","","","","","","","","","","","","",""
"html-button-response","85","156873","0.0-4.0-1.0-1.21","1","1","b7ed8wdnoab00qs","","812.9999999999709","","What sound did you hear?","1","","","1","INDUCTION-JUDGMENT","right","1","","","","","","","","","","","","","","","","","","","","","","","","","","","","","","","","","","","","",""
"html-keyboard-response","86","157875","0.0-4.0-1.0-2.21","1","1","b7ed8wdnoab00qs","","null","","<p style=""color:green;""><b>Correct!</b></p>","","null","","","","","","","","","","","","","","","","","","","","","","","","","","","","","","","","","","","","","","","","","",""
"audio-keyboard-response","87","158683","0.0-4.0-1.0-0.22","1","1","b7ed8wdnoab00qs","","null","","sounds/induction/right/fu_SWS.wav","","null","","","","","","","","","","","","","","","","","","","","","","","","","","","","","","","","","","","","","","","","","",""
"html-button-response","88","159650","0.0-4.0-1.0-1.22","1","1","b7ed8wdnoab00qs","","966","","What sound did you hear?","0","","","1","INDUCTION-JUDGMENT","right","0","","","","","","","","","","","","","","","","","","","","","","","","","","","","","","","","","","","","",""
"html-keyboard-response","89","160653","0.0-4.0-1.0-2.22","1","1","b7ed8wdnoab00qs","","null","","<p style=""color:green;""><b>Correct!</b></p>","","null","","","","","","","","","","","","","","","","","","","","","","","","","","","","","","","","","","","","","","","","","",""
"audio-keyboard-response","90","161456","0.0-4.0-1.0-0.23","1","1","b7ed8wdnoab00qs","","null","","sounds/induction/left/ru_SWS.wav","","null","","","","","","","","","","","","","","","","","","","","","","","","","","","","","","","","","","","","","","","","","",""
"html-button-response","91","162326","0.0-4.0-1.0-1.23","1","1","b7ed8wdnoab00qs","","869","","What sound did you hear?","0","","","1","INDUCTION-JUDGMENT","left","0","","","","","","","","","","","","","","","","","","","","","","","","","","","","","","","","","","","","",""
"html-keyboard-response","92","163328","0.0-4.0-1.0-2.23","1","1","b7ed8wdnoab00qs","","null","","<p style=""color:green;""><b>Correct!</b></p>","","null","","","","","","","","","","","","","","","","","","","","","","","","","","","","","","","","","","","","","","","","","",""
"audio-keyboard-response","93","164134","0.0-4.0-1.0-0.24","1","1","b7ed8wdnoab00qs","","null","","sounds/induction/right/ta_SWS.wav","","null","","","","","","","","","","","","","","","","","","","","","","","","","","","","","","","","","","","","","","","","","",""
"html-button-response","94","165055","0.0-4.0-1.0-1.24","1","1","b7ed8wdnoab00qs","","920","","What sound did you hear?","0","","","0","INDUCTION-JUDGMENT","right","1","","","","","","","","","","","","","","","","","","","","","","","","","","","","","","","","","","","","",""
"html-keyboard-response","95","166058","0.0-4.0-1.0-2.24","1","1","b7ed8wdnoab00qs","","null","","<p style=""color:red;""><b>Incorrect!</b></p>","","null","","","","","","","","","","","","","","","","","","","","","","","","","","","","","","","","","","","","","","","","","",""
"audio-keyboard-response","96","166864","0.0-4.0-1.0-0.25","1","1","b7ed8wdnoab00qs","","null","","sounds/induction/right/pu_SWS.wav","","null","","","","","","","","","","","","","","","","","","","","","","","","","","","","","","","","","","","","","","","","","",""
"html-button-response","97","167772","0.0-4.0-1.0-1.25","1","1","b7ed8wdnoab00qs","","906","","What sound did you hear?","0","","","0","INDUCTION-JUDGMENT","right","1","","","","","","","","","","","","","","","","","","","","","","","","","","","","","","","","","","","","",""
"html-keyboard-response","98","168775","0.0-4.0-1.0-2.25","1","1","b7ed8wdnoab00qs","","null","","<p style=""color:red;""><b>Incorrect!</b></p>","","null","","","","","","","","","","","","","","","","","","","","","","","","","","","","","","","","","","","","","","","","","",""
"audio-keyboard-response","99","169584","0.0-4.0-1.0-0.26","1","1","b7ed8wdnoab00qs","","null","","sounds/induction/right/ko_SWS.wav","","null","","","","","","","","","","","","","","","","","","","","","","","","","","","","","","","","","","","","","","","","","",""
"html-button-response","100","170785","0.0-4.0-1.0-1.26","1","1","b7ed8wdnoab00qs","","1200","","What sound did you hear?","0","","","1","INDUCTION-JUDGMENT","right","0","","","","","","","","","","","","","","","","","","","","","","","","","","","","","","","","","","","","",""
"html-keyboard-response","101","171788","0.0-4.0-1.0-2.26","1","1","b7ed8wdnoab00qs","","null","","<p style=""color:green;""><b>Correct!</b></p>","","null","","","","","","","","","","","","","","","","","","","","","","","","","","","","","","","","","","","","","","","","","",""
"audio-keyboard-response","102","172592","0.0-4.0-1.0-0.27","1","1","b7ed8wdnoab00qs","","null","","sounds/induction/left/ge_SWS.wav","","null","","","","","","","","","","","","","","","","","","","","","","","","","","","","","","","","","","","","","","","","","",""
"html-button-response","103","173767","0.0-4.0-1.0-1.27","1","1","b7ed8wdnoab00qs","","1173","","What sound did you hear?","1","","","1","INDUCTION-JUDGMENT","left","1","","","","","","","","","","","","","","","","","","","","","","","","","","","","","","","","","","","","",""
"html-keyboard-response","104","174769","0.0-4.0-1.0-2.27","1","1","b7ed8wdnoab00qs","","null","","<p style=""color:green;""><b>Correct!</b></p>","","null","","","","","","","","","","","","","","","","","","","","","","","","","","","","","","","","","","","","","","","","","",""
"audio-keyboard-response","105","175579","0.0-4.0-1.0-0.28","1","1","b7ed8wdnoab00qs","","null","","sounds/induction/left/pu_SWS.wav","","null","","","","","","","","","","","","","","","","","","","","","","","","","","","","","","","","","","","","","","","","","",""
"html-button-response","106","176664","0.0-4.0-1.0-1.28","1","1","b7ed8wdnoab00qs","","1084","","What sound did you hear?","0","","","1","INDUCTION-JUDGMENT","left","0","","","","","","","","","","","","","","","","","","","","","","","","","","","","","","","","","","","","",""
"html-keyboard-response","107","177666","0.0-4.0-1.0-2.28","1","1","b7ed8wdnoab00qs","","null","","<p style=""color:green;""><b>Correct!</b></p>","","null","","","","","","","","","","","","","","","","","","","","","","","","","","","","","","","","","","","","","","","","","",""
"audio-keyboard-response","108","178469","0.0-4.0-1.0-0.29","1","1","b7ed8wdnoab00qs","","null","","sounds/induction/right/ni_SWS.wav","","null","","","","","","","","","","","","","","","","","","","","","","","","","","","","","","","","","","","","","","","","","",""
"html-button-response","109","179687","0.0-4.0-1.0-1.29","1","1","b7ed8wdnoab00qs","","1215.999999999971","","What sound did you hear?","1","","","0","INDUCTION-JUDGMENT","right","0","","","","","","","","","","","","","","","","","","","","","","","","","","","","","","","","","","","","",""
"html-keyboard-response","110","180689","0.0-4.0-1.0-2.29","1","1","b7ed8wdnoab00qs","","null","","<p style=""color:red;""><b>Incorrect!</b></p>","","null","","","","","","","","","","","","","","","","","","","","","","","","","","","","","","","","","","","","","","","","","",""
"audio-keyboard-response","111","181499","0.0-4.0-1.0-0.30","1","1","b7ed8wdnoab00qs","","null","","sounds/induction/left/su_SWS.wav","","null","","","","","","","","","","","","","","","","","","","","","","","","","","","","","","","","","","","","","","","","","",""
"html-button-response","112","182847","0.0-4.0-1.0-1.30","1","1","b7ed8wdnoab00qs","","1348","","What sound did you hear?","0","","","1","INDUCTION-JUDGMENT","left","0","","","","","","","","","","","","","","","","","","","","","","","","","","","","","","","","","","","","",""
"html-keyboard-response","113","183850","0.0-4.0-1.0-2.30","1","1","b7ed8wdnoab00qs","","null","","<p style=""color:green;""><b>Correct!</b></p>","","null","","","","","","","","","","","","","","","","","","","","","","","","","","","","","","","","","","","","","","","","","",""
"audio-keyboard-response","114","184656","0.0-4.0-1.0-0.31","1","1","b7ed8wdnoab00qs","","null","","sounds/induction/right/re_SWS.wav","","null","","","","","","","","","","","","","","","","","","","","","","","","","","","","","","","","","","","","","","","","","",""
"html-button-response","115","185624","0.0-4.0-1.0-1.31","1","1","b7ed8wdnoab00qs","","966","","What sound did you hear?","1","","","1","INDUCTION-JUDGMENT","right","1","","","","","","","","","","","","","","","","","","","","","","","","","","","","","","","","","","","","",""
"html-keyboard-response","116","186626","0.0-4.0-1.0-2.31","1","1","b7ed8wdnoab00qs","","null","","<p style=""color:green;""><b>Correct!</b></p>","","null","","","","","","","","","","","","","","","","","","","","","","","","","","","","","","","","","","","","","","","","","",""
"audio-keyboard-response","117","187429","0.0-4.0-1.0-0.32","1","1","b7ed8wdnoab00qs","","null","","sounds/induction/left/ti_SWS.wav","","null","","","","","","","","","","","","","","","","","","","","","","","","","","","","","","","","","","","","","","","","","",""
"html-button-response","118","188390","0.0-4.0-1.0-1.32","1","1","b7ed8wdnoab00qs","","960","","What sound did you hear?","1","","","0","INDUCTION-JUDGMENT","left","0","","","","","","","","","","","","","","","","","","","","","","","","","","","","","","","","","","","","",""
"html-keyboard-response","119","189392","0.0-4.0-1.0-2.32","1","1","b7ed8wdnoab00qs","","null","","<p style=""color:red;""><b>Incorrect!</b></p>","","null","","","","","","","","","","","","","","","","","","","","","","","","","","","","","","","","","","","","","","","","","",""
"audio-keyboard-response","120","190202","0.0-4.0-1.0-0.33","1","1","b7ed8wdnoab00qs","","null","","sounds/induction/left/ko_SWS.wav","","null","","","","","","","","","","","","","","","","","","","","","","","","","","","","","","","","","","","","","","","","","",""
"html-button-response","121","191199","0.0-4.0-1.0-1.33","1","1","b7ed8wdnoab00qs","","996","","What sound did you hear?","1","","","1","INDUCTION-JUDGMENT","left","1","","","","","","","","","","","","","","","","","","","","","","","","","","","","","","","","","","","","",""
"html-keyboard-response","122","192202","0.0-4.0-1.0-2.33","1","1","b7ed8wdnoab00qs","","null","","<p style=""color:green;""><b>Correct!</b></p>","","null","","","","","","","","","","","","","","","","","","","","","","","","","","","","","","","","","","","","","","","","","",""
"audio-keyboard-response","123","193008","0.0-4.0-1.0-0.34","1","1","b7ed8wdnoab00qs","","null","","sounds/induction/left/ru_SWS.wav","","null","","","","","","","","","","","","","","","","","","","","","","","","","","","","","","","","","","","","","","","","","",""
"html-button-response","124","193957","0.0-4.0-1.0-1.34","1","1","b7ed8wdnoab00qs","","948","","What sound did you hear?","0","","","1","INDUCTION-JUDGMENT","left","0","","","","","","","","","","","","","","","","","","","","","","","","","","","","","","","","","","","","",""
"html-keyboard-response","125","194960","0.0-4.0-1.0-2.34","1","1","b7ed8wdnoab00qs","","null","","<p style=""color:green;""><b>Correct!</b></p>","","null","","","","","","","","","","","","","","","","","","","","","","","","","","","","","","","","","","","","","","","","","",""
"audio-keyboard-response","126","195770","0.0-4.0-1.0-0.35","1","1","b7ed8wdnoab00qs","","null","","sounds/induction/left/fe_SWS.wav","","null","","","","","","","","","","","","","","","","","","","","","","","","","","","","","","","","","","","","","","","","","",""
"html-button-response","127","196652","0.0-4.0-1.0-1.35","1","1","b7ed8wdnoab00qs","","880","","What sound did you hear?","1","","","1","INDUCTION-JUDGMENT","left","1","","","","","","","","","","","","","","","","","","","","","","","","","","","","","","","","","","","","",""
"html-keyboard-response","128","197654","0.0-4.0-1.0-2.35","1","1","b7ed8wdnoab00qs","","null","","<p style=""color:green;""><b>Correct!</b></p>","","null","","","","","","","","","","","","","","","","","","","","","","","","","","","","","","","","","","","","","","","","","",""
"audio-keyboard-response","129","198458","0.0-4.0-1.0-0.36","1","1","b7ed8wdnoab00qs","","null","","sounds/induction/right/fu_SWS.wav","","null","","","","","","","","","","","","","","","","","","","","","","","","","","","","","","","","","","","","","","","","","",""
"html-button-response","130","199354","0.0-4.0-1.0-1.36","1","1","b7ed8wdnoab00qs","","895","","What sound did you hear?","0","","","1","INDUCTION-JUDGMENT","right","0","","","","","","","","","","","","","","","","","","","","","","","","","","","","","","","","","","","","",""
"html-keyboard-response","131","200357","0.0-4.0-1.0-2.36","1","1","b7ed8wdnoab00qs","","null","","<p style=""color:green;""><b>Correct!</b></p>","","null","","","","","","","","","","","","","","","","","","","","","","","","","","","","","","","","","","","","","","","","","",""
"audio-keyboard-response","132","201167","0.0-4.0-1.0-0.37","1","1","b7ed8wdnoab00qs","","null","","sounds/induction/right/fe_SWS.wav","","null","","","","","","","","","","","","","","","","","","","","","","","","","","","","","","","","","","","","","","","","","",""
"html-button-response","133","201892","0.0-4.0-1.0-1.37","1","1","b7ed8wdnoab00qs","","723","","What sound did you hear?","0","","","1","INDUCTION-JUDGMENT","right","0","","","","","","","","","","","","","","","","","","","","","","","","","","","","","","","","","","","","",""
"html-keyboard-response","134","202895","0.0-4.0-1.0-2.37","1","1","b7ed8wdnoab00qs","","null","","<p style=""color:green;""><b>Correct!</b></p>","","null","","","","","","","","","","","","","","","","","","","","","","","","","","","","","","","","","","","","","","","","","",""
"audio-keyboard-response","135","203706","0.0-4.0-1.0-0.38","1","1","b7ed8wdnoab00qs","","null","","sounds/induction/left/re_SWS.wav","","null","","","","","","","","","","","","","","","","","","","","","","","","","","","","","","","","","","","","","","","","","",""
"html-button-response","136","204954","0.0-4.0-1.0-1.38","1","1","b7ed8wdnoab00qs","","1247","","What sound did you hear?","0","","","1","INDUCTION-JUDGMENT","left","0","","","","","","","","","","","","","","","","","","","","","","","","","","","","","","","","","","","","",""
"html-keyboard-response","137","205957","0.0-4.0-1.0-2.38","1","1","b7ed8wdnoab00qs","","null","","<p style=""color:green;""><b>Correct!</b></p>","","null","","","","","","","","","","","","","","","","","","","","","","","","","","","","","","","","","","","","","","","","","",""
"audio-keyboard-response","138","206767","0.0-4.0-1.0-0.39","1","1","b7ed8wdnoab00qs","","null","","sounds/induction/right/fe_SWS.wav","","null","","","","","","","","","","","","","","","","","","","","","","","","","","","","","","","","","","","","","","","","","",""
"html-button-response","139","207722","0.0-4.0-1.0-1.39","1","1","b7ed8wdnoab00qs","","953","","What sound did you hear?","0","","","1","INDUCTION-JUDGMENT","right","0","","","","","","","","","","","","","","","","","","","","","","","","","","","","","","","","","","","","",""
"html-keyboard-response","140","208724","0.0-4.0-1.0-2.39","1","1","b7ed8wdnoab00qs","","null","","<p style=""color:green;""><b>Correct!</b></p>","","null","","","","","","","","","","","","","","","","","","","","","","","","","","","","","","","","","","","","","","","","","",""
"audio-keyboard-response","141","209530","0.0-4.0-1.0-0.40","1","1","b7ed8wdnoab00qs","","null","","sounds/induction/right/ru_SWS.wav","","null","","","","","","","","","","","","","","","","","","","","","","","","","","","","","","","","","","","","","","","","","",""
"html-button-response","142","210555","0.0-4.0-1.0-1.40","1","1","b7ed8wdnoab00qs","","1024","","What sound did you hear?","1","","","1","INDUCTION-JUDGMENT","right","1","","","","","","","","","","","","","","","","","","","","","","","","","","","","","","","","","","","","",""
"html-keyboard-response","143","211558","0.0-4.0-1.0-2.40","1","1","b7ed8wdnoab00qs","","null","","<p style=""color:green;""><b>Correct!</b></p>","","null","","","","","","","","","","","","","","","","","","","","","","","","","","","","","","","","","","","","","","","","","",""
"audio-keyboard-response","144","212367","0.0-4.0-1.0-0.41","1","1","b7ed8wdnoab00qs","","null","","sounds/induction/left/ti_SWS.wav","","null","","","","","","","","","","","","","","","","","","","","","","","","","","","","","","","","","","","","","","","","","",""
"html-button-response","145","213741","0.0-4.0-1.0-1.41","1","1","b7ed8wdnoab00qs","","1371.999999999971","","What sound did you hear?","1","","","0","INDUCTION-JUDGMENT","left","0","","","","","","","","","","","","","","","","","","","","","","","","","","","","","","","","","","","","",""
"html-keyboard-response","146","214743","0.0-4.0-1.0-2.41","1","1","b7ed8wdnoab00qs","","null","","<p style=""color:red;""><b>Incorrect!</b></p>","","null","","","","","","","","","","","","","","","","","","","","","","","","","","","","","","","","","","","","","","","","","",""
"audio-keyboard-response","147","215546","0.0-4.0-1.0-0.42","1","1","b7ed8wdnoab00qs","","null","","sounds/induction/right/re_SWS.wav","","null","","","","","","","","","","","","","","","","","","","","","","","","","","","","","","","","","","","","","","","","","",""
"html-button-response","148","216584","0.0-4.0-1.0-1.42","1","1","b7ed8wdnoab00qs","","1036.999999999971","","What sound did you hear?","1","","","1","INDUCTION-JUDGMENT","right","1","","","","","","","","","","","","","","","","","","","","","","","","","","","","","","","","","","","","",""
"html-keyboard-response","149","217586","0.0-4.0-1.0-2.42","1","1","b7ed8wdnoab00qs","","null","","<p style=""color:green;""><b>Correct!</b></p>","","null","","","","","","","","","","","","","","","","","","","","","","","","","","","","","","","","","","","","","","","","","",""
"audio-keyboard-response","150","218394","0.0-4.0-1.0-0.43","1","1","b7ed8wdnoab00qs","","null","","sounds/induction/right/ti_SWS.wav","","null","","","","","","","","","","","","","","","","","","","","","","","","","","","","","","","","","","","","","","","","","",""
"html-button-response","151","219252","0.0-4.0-1.0-1.43","1","1","b7ed8wdnoab00qs","","857","","What sound did you hear?","0","","","0","INDUCTION-JUDGMENT","right","1","","","","","","","","","","","","","","","","","","","","","","","","","","","","","","","","","","","","",""
"html-keyboard-response","152","220254","0.0-4.0-1.0-2.43","1","1","b7ed8wdnoab00qs","","null","","<p style=""color:red;""><b>Incorrect!</b></p>","","null","","","","","","","","","","","","","","","","","","","","","","","","","","","","","","","","","","","","","","","","","",""
"audio-keyboard-response","153","221060","0.0-4.0-1.0-0.44","1","1","b7ed8wdnoab00qs","","null","","sounds/induction/right/me_SWS.wav","","null","","","","","","","","","","","","","","","","","","","","","","","","","","","","","","","","","","","","","","","","","",""
"html-button-response","154","222077","0.0-4.0-1.0-1.44","1","1","b7ed8wdnoab00qs","","1015.0000000000291","","What sound did you hear?","1","","","0","INDUCTION-JUDGMENT","right","0","","","","","","","","","","","","","","","","","","","","","","","","","","","","","","","","","","","","",""
"html-keyboard-response","155","223079","0.0-4.0-1.0-2.44","1","1","b7ed8wdnoab00qs","","null","","<p style=""color:red;""><b>Incorrect!</b></p>","","null","","","","","","","","","","","","","","","","","","","","","","","","","","","","","","","","","","","","","","","","","",""
"audio-keyboard-response","156","223887","0.0-4.0-1.0-0.45","1","1","b7ed8wdnoab00qs","","null","","sounds/induction/left/ko_SWS.wav","","null","","","","","","","","","","","","","","","","","","","","","","","","","","","","","","","","","","","","","","","","","",""
"html-button-response","157","224688","0.0-4.0-1.0-1.45","1","1","b7ed8wdnoab00qs","","801","","What sound did you hear?","1","","","1","INDUCTION-JUDGMENT","left","1","","","","","","","","","","","","","","","","","","","","","","","","","","","","","","","","","","","","",""
"html-keyboard-response","158","225690","0.0-4.0-1.0-2.45","1","1","b7ed8wdnoab00qs","","null","","<p style=""color:green;""><b>Correct!</b></p>","","null","","","","","","","","","","","","","","","","","","","","","","","","","","","","","","","","","","","","","","","","","",""
"audio-keyboard-response","159","226500","0.0-4.0-1.0-0.46","1","1","b7ed8wdnoab00qs","","null","","sounds/induction/left/me_SWS.wav","","null","","","","","","","","","","","","","","","","","","","","","","","","","","","","","","","","","","","","","","","","","",""
"html-button-response","160","227792","0.0-4.0-1.0-1.46","1","1","b7ed8wdnoab00qs","","1290","","What sound did you hear?","1","","","1","INDUCTION-JUDGMENT","left","1","","","","","","","","","","","","","","","","","","","","","","","","","","","","","","","","","","","","",""
"html-keyboard-response","161","228794","0.0-4.0-1.0-2.46","1","1","b7ed8wdnoab00qs","","null","","<p style=""color:green;""><b>Correct!</b></p>","","null","","","","","","","","","","","","","","","","","","","","","","","","","","","","","","","","","","","","","","","","","",""
"audio-keyboard-response","162","229604","0.0-4.0-1.0-0.47","1","1","b7ed8wdnoab00qs","","null","","sounds/induction/left/re_SWS.wav","","null","","","","","","","","","","","","","","","","","","","","","","","","","","","","","","","","","","","","","","","","","",""
"html-button-response","163","230518","0.0-4.0-1.0-1.47","1","1","b7ed8wdnoab00qs","","912","","What sound did you hear?","1","","","0","INDUCTION-JUDGMENT","left","0","","","","","","","","","","","","","","","","","","","","","","","","","","","","","","","","","","","","",""
"html-keyboard-response","164","231520","0.0-4.0-1.0-2.47","1","1","b7ed8wdnoab00qs","","null","","<p style=""color:red;""><b>Incorrect!</b></p>","","null","","","","","","","","","","","","","","","","","","","","","","","","","","","","","","","","","","","","","","","","","",""
"html-button-response","165","243586","0.0-5.0-0.0","1","1","b7ed8wdnoab00qs","","11562.99999999997","","<p>Thank you for your answers.</p><p>You will now listen to similar sounds. The main difference is that the sounds will be longer and will make up complete sentences.</p><p>Please listen carefully to each sentence. After each sentence, you will be asked to type back what you heard to the best of your ability. After you provide your response, you will be given feedback about the correct answer.</p><p>There are 10 sentences in total.","0","","","","","","","","","","","","","","","","","","","","","","","","","","","","","","","","","","","","","","","","","","",""
"audio-keyboard-response","166","246340","0.0-5.0-1.0-0.0","1","1","b7ed8wdnoab00qs","","null","","sounds/sentences/right/14_08_cfSWS.wav","","null","","","","","","","","","","","","","","","","","","","","","","","","","","","","","","","","","","","","","","","","","",""
"sentence-resp","167","260058","0.0-5.0-1.0-1.0","1","1","b7ed8wdnoab00qs","","13716","","","","","","","SWS-SENT-RESPONSE","","","{""Q0"":""me and my friend do math""}","Clothes and lodging are free to new men.","clothes,lodging,free,new,men","ME AND MY FRIEND DO MATH","0","0","0","0","0","0","0","","","","","","","","","","","","","","","","","","","","","","","","","",""
"html-keyboard-response","168","261312","0.0-5.0-1.0-2.0","1","1","b7ed8wdnoab00qs","","null","","","","null","","","","","","","","","","","","","","","","","","","","","","","","","","","","","","","","","","","","","","","","","",""
"audio-keyboard-response","169","263566","0.0-5.0-1.0-3.0","1","1","b7ed8wdnoab00qs","","null","","sounds/sentences/right/14_08_cfSWS.wav","","null","","","","","","","","","","","","","","","","","","","","","","","","","","","","","","","","","","","","","","","","","",""
"html-keyboard-response","170","264569","0.0-5.0-1.0-4.0","1","1","b7ed8wdnoab00qs","","null","","","","null","","","","","","","","","","","","","","","","","","","","","","","","","","","","","","","","","","","","","","","","","",""
"html-button-response","171","269421","0.0-5.0-1.0-5.0","1","1","b7ed8wdnoab00qs","","4350","","<p>Press the button below when you are ready to continue.</p>","0","","","","","","","","","","","","","","","","","","","","","","","","","","","","","","","","","","","","","","","","","","",""
"audio-keyboard-response","172","272152","0.0-5.0-1.0-0.1","1","1","b7ed8wdnoab00qs","","null","","sounds/sentences/right/14_09_cfSWS.wav","","null","","","","","","","","","","","","","","","","","","","","","","","","","","","","","","","","","","","","","","","","","",""
"sentence-resp","173","281244","0.0-5.0-1.0-1.1","1","1","b7ed8wdnoab00qs","","9089","","","","","","","SWS-SENT-RESPONSE","","","{""Q0"":""we see you have to go to the bathroom""}","We frown when events take a bad turn.","frown,events,take,bad,turn","WE SEE YOU HAVE TO GO TO THE BATHROOM","0","0","0","0","0","0","0","","","","","","","","","","","","","","","","","","","","","","","","","",""
"html-keyboard-response","174","282497","0.0-5.0-1.0-2.1","1","1","b7ed8wdnoab00qs","","null","","","","null","","","","","","","","","","","","","","","","","","","","","","","","","","","","","","","","","","","","","","","","","",""
"audio-keyboard-response","175","284728","0.0-5.0-1.0-3.1","1","1","b7ed8wdnoab00qs","","null","","sounds/sentences/right/14_09_cfSWS.wav","","null","","","","","","","","","","","","","","","","","","","","","","","","","","","","","","","","","","","","","","","","","",""
"html-keyboard-response","176","285731","0.0-5.0-1.0-4.1","1","1","b7ed8wdnoab00qs","","null","","","","null","","","","","","","","","","","","","","","","","","","","","","","","","","","","","","","","","","","","","","","","","",""
"html-button-response","177","317660","0.0-5.0-1.0-5.1","1","1","b7ed8wdnoab00qs","","31428","","<p>Press the button below when you are ready to continue.</p>","0","","","","","","","","","","","","","","","","","","","","","","","","","","","","","","","","","","","","","","","","","","",""
"audio-keyboard-response","178","320674","0.0-5.0-1.0-0.2","1","1","b7ed8wdnoab00qs","","null","","sounds/sentences/right/14_10_cfSWS.wav","","null","","","","","","","","","","","","","","","","","","","","","","","","","","","","","","","","","","","","","","","","","",""
"sentence-resp","179","332697","0.0-5.0-1.0-1.2","1","1","b7ed8wdnoab00qs","","12022","","","","","","","SWS-SENT-RESPONSE","","","{""Q0"":""me and my friend are having smoking meat""}","Port is a strong wine with a smoky taste.","port,strong,wine,smoky,taste","ME AND MY FRIEND ARE HAVING SMOKING MEAT","0","0","0","0","0","0","0","","","","","","","","","","","","","","","","","","","","","","","","","",""
"html-keyboard-response","180","333950","0.0-5.0-1.0-2.2","1","1","b7ed8wdnoab00qs","","null","","","","null","","","","","","","","","","","","","","","","","","","","","","","","","","","","","","","","","","","","","","","","","",""
"audio-keyboard-response","181","336460","0.0-5.0-1.0-3.2","1","1","b7ed8wdnoab00qs","","null","","sounds/sentences/right/14_10_cfSWS.wav","","null","","","","","","","","","","","","","","","","","","","","","","","","","","","","","","","","","","","","","","","","","",""
"html-keyboard-response","182","337462","0.0-5.0-1.0-4.2","1","1","b7ed8wdnoab00qs","","null","","","","null","","","","","","","","","","","","","","","","","","","","","","","","","","","","","","","","","","","","","","","","","",""
"html-button-response","183","340853","0.0-5.0-1.0-5.2","1","1","b7ed8wdnoab00qs","","2888","","<p>Press the button below when you are ready to continue.</p>","0","","","","","","","","","","","","","","","","","","","","","","","","","","","","","","","","","","","","","","","","","","",""
"audio-keyboard-response","184","343841","0.0-5.0-1.0-0.3","1","1","b7ed8wdnoab00qs","","null","","sounds/sentences/left/14_05_cfSWS.wav","","null","","","","","","","","","","","","","","","","","","","","","","","","","","","","","","","","","","","","","","","","","",""
"sentence-resp","185","357528","0.0-5.0-1.0-1.3","1","1","b7ed8wdnoab00qs","","13685","","","","","","","SWS-SENT-RESPONSE","","","{""Q0"":""I can see you looking at her""}","The glow deepened in the eyes of the sweet girl.","glow,deepened,eyes,sweet,girl","I CAN SEE YOU LOOKING AT HER","0","0","0","0","0","0","0","","","","","","","","","","","","","","","","","","","","","","","","","",""
"html-keyboard-response","186","358781","0.0-5.0-1.0-2.3","1","1","b7ed8wdnoab00qs","","null","","","","null","","","","","","","","","","","","","","","","","","","","","","","","","","","","","","","","","","","","","","","","","",""
"audio-keyboard-response","187","361270","0.0-5.0-1.0-3.3","1","1","b7ed8wdnoab00qs","","null","","sounds/sentences/left/14_05_cfSWS.wav","","null","","","","","","","","","","","","","","","","","","","","","","","","","","","","","","","","","","","","","","","","","",""
"html-keyboard-response","188","362272","0.0-5.0-1.0-4.3","1","1","b7ed8wdnoab00qs","","null","","","","null","","","","","","","","","","","","","","","","","","","","","","","","","","","","","","","","","","","","","","","","","",""
"html-button-response","189","364237","0.0-5.0-1.0-5.3","1","1","b7ed8wdnoab00qs","","1463","","<p>Press the button below when you are ready to continue.</p>","0","","","","","","","","","","","","","","","","","","","","","","","","","","","","","","","","","","","","","","","","","","",""
"audio-keyboard-response","190","367126","0.0-5.0-1.0-0.4","1","1","b7ed8wdnoab00qs","","null","","sounds/sentences/right/14_07_cfSWS.wav","","null","","","","","","","","","","","","","","","","","","","","","","","","","","","","","","","","","","","","","","","","","",""
"sentence-resp","191","387183","0.0-5.0-1.0-1.4","1","1","b7ed8wdnoab00qs","","20055","","","","","","","SWS-SENT-RESPONSE","","","{""Q0"":""right or wrong you have friends who cherish ""}","Write a fond note to the friend you cherish.","write,fond,note,friend,cherish","RIGHT OR WRONG YOU HAVE FRIENDS WHO CHERISH ","0","0","0","0","1","1","0.2","","","","","","","","","","","","","","","","","","","","","","","","","",""
"html-keyboard-response","192","388437","0.0-5.0-1.0-2.4","1","1","b7ed8wdnoab00qs","","null","","","","null","","","","","","","","","","","","","","","","","","","","","","","","","","","","","","","","","","","","","","","","","",""
"audio-keyboard-response","193","390827","0.0-5.0-1.0-3.4","1","1","b7ed8wdnoab00qs","","null","","sounds/sentences/right/14_07_cfSWS.wav","","null","","","","","","","","","","","","","","","","","","","","","","","","","","","","","","","","","","","","","","","","","",""
"html-keyboard-response","194","391830","0.0-5.0-1.0-4.4","1","1","b7ed8wdnoab00qs","","null","","","","null","","","","","","","","","","","","","","","","","","","","","","","","","","","","","","","","","","","","","","","","","",""
"html-button-response","195","423042","0.0-5.0-1.0-5.4","1","1","b7ed8wdnoab00qs","","30711","","<p>Press the button below when you are ready to continue.</p>","0","","","","","","","","","","","","","","","","","","","","","","","","","","","","","","","","","","","","","","","","","","",""
"audio-keyboard-response","196","425599","0.0-5.0-1.0-0.5","1","1","b7ed8wdnoab00qs","","null","","sounds/sentences/left/14_04_cfSWS.wav","","null","","","","","","","","","","","","","","","","","","","","","","","","","","","","","","","","","","","","","","","","","",""
"sentence-resp","197","444531","0.0-5.0-1.0-1.5","1","1","b7ed8wdnoab00qs","","18931","","","","","","","SWS-SENT-RESPONSE","","","{""Q0"":""I have you and I like cheese ""}","Two plus seven is less than ten.","two,plus,seven,less,ten","I HAVE YOU AND I LIKE CHEESE ","0","0","0","0","0","0","0","","","","","","","","","","","","","","","","","","","","","","","","","",""
"html-keyboard-response","198","445785","0.0-5.0-1.0-2.5","1","1","b7ed8wdnoab00qs","","null","","","","null","","","","","","","","","","","","","","","","","","","","","","","","","","","","","","","","","","","","","","","","","",""
"audio-keyboard-response","199","447839","0.0-5.0-1.0-3.5","1","1","b7ed8wdnoab00qs","","null","","sounds/sentences/left/14_04_cfSWS.wav","","null","","","","","","","","","","","","","","","","","","","","","","","","","","","","","","","","","","","","","","","","","",""
"html-keyboard-response","200","448842","0.0-5.0-1.0-4.5","1","1","b7ed8wdnoab00qs","","null","","","","null","","","","","","","","","","","","","","","","","","","","","","","","","","","","","","","","","","","","","","","","","",""
"html-button-response","201","509465","0.0-5.0-1.0-5.5","1","1","b7ed8wdnoab00qs","","60123.00000000006","","<p>Press the button below when you are ready to continue.</p>","0","","","","","","","","","","","","","","","","","","","","","","","","","","","","","","","","","","","","","","","","","","",""
"audio-keyboard-response","202","512210","0.0-5.0-1.0-0.6","1","1","b7ed8wdnoab00qs","","null","","sounds/sentences/right/14_06_cfSWS.wav","","null","","","","","","","","","","","","","","","","","","","","","","","","","","","","","","","","","","","","","","","","","",""
"sentence-resp","203","543571","0.0-5.0-1.0-1.6","1","1","b7ed8wdnoab00qs","","31358","","","","","","","SWS-SENT-RESPONSE","","","{""Q0"":""bring your problems to the right chief""}","Bring your problems to the wise chief.","bring,your,problems,wise,chief","BRING YOUR PROBLEMS TO THE RIGHT CHIEF","1","1","1","0","1","4","0.8","","","","","","","","","","","","","","","","","","","","","","","","","",""
"html-keyboard-response","204","544825","0.0-5.0-1.0-2.6","1","1","b7ed8wdnoab00qs","","null","","","","null","","","","","","","","","","","","","","","","","","","","","","","","","","","","","","","","","","","","","","","","","",""
"audio-keyboard-response","205","547068","0.0-5.0-1.0-3.6","1","1","b7ed8wdnoab00qs","","null","","sounds/sentences/right/14_06_cfSWS.wav","","null","","","","","","","","","","","","","","","","","","","","","","","","","","","","","","","","","","","","","","","","","",""
"html-keyboard-response","206","548071","0.0-5.0-1.0-4.6","1","1","b7ed8wdnoab00qs","","null","","","","null","","","","","","","","","","","","","","","","","","","","","","","","","","","","","","","","","","","","","","","","","",""
"html-button-response","207","550393","0.0-5.0-1.0-5.6","1","1","b7ed8wdnoab00qs","","1820","","<p>Press the button below when you are ready to continue.</p>","0","","","","","","","","","","","","","","","","","","","","","","","","","","","","","","","","","","","","","","","","","","",""
"audio-keyboard-response","208","553511","0.0-5.0-1.0-0.7","1","1","b7ed8wdnoab00qs","","null","","sounds/sentences/left/14_01_cfSWS.wav","","null","","","","","","","","","","","","","","","","","","","","","","","","","","","","","","","","","","","","","","","","","",""
"sentence-resp","209","572283","0.0-5.0-1.0-1.7","1","1","b7ed8wdnoab00qs","","18770","","","","","","","SWS-SENT-RESPONSE","","","{""Q0"":""she is small you have to teach her how to swim""}","A cramp is no small danger on a swim.","cramp,no,small,danger,swim","SHE IS SMALL YOU HAVE TO TEACH HER HOW TO SWIM","0","0","1","0","1","2","0.4","","","","","","","","","","","","","","","","","","","","","","","","","",""
"html-keyboard-response","210","573536","0.0-5.0-1.0-2.7","1","1","b7ed8wdnoab00qs","","null","","","","null","","","","","","","","","","","","","","","","","","","","","","","","","","","","","","","","","","","","","","","","","",""
"audio-keyboard-response","211","576156","0.0-5.0-1.0-3.7","1","1","b7ed8wdnoab00qs","","null","","sounds/sentences/left/14_01_cfSWS.wav","","null","","","","","","","","","","","","","","","","","","","","","","","","","","","","","","","","","","","","","","","","","",""
"html-keyboard-response","212","577158","0.0-5.0-1.0-4.7","1","1","b7ed8wdnoab00qs","","null","","","","null","","","","","","","","","","","","","","","","","","","","","","","","","","","","","","","","","","","","","","","","","",""
"html-button-response","213","579564","0.0-5.0-1.0-5.7","1","1","b7ed8wdnoab00qs","","1903","","<p>Press the button below when you are ready to continue.</p>","0","","","","","","","","","","","","","","","","","","","","","","","","","","","","","","","","","","","","","","","","","","",""
"audio-keyboard-response","214","582385","0.0-5.0-1.0-0.8","1","1","b7ed8wdnoab00qs","","null","","sounds/sentences/left/14_02_cfSWS.wav","","null","","","","","","","","","","","","","","","","","","","","","","","","","","","","","","","","","","","","","","","","","",""
"sentence-resp","215","594532","0.0-5.0-1.0-1.8","1","1","b7ed8wdnoab00qs","","12145","","","","","","","SWS-SENT-RESPONSE","","","{""Q0"":""she said the same things thirty times ""}","He said the same phrase thirty times.","said,same,phrase,thirty,times","SHE SAID THE SAME THINGS THIRTY TIMES ","1","1","0","1","1","4","0.8","","","","","","","","","","","","","","","","","","","","","","","","","",""
"html-keyboard-response","216","595785","0.0-5.0-1.0-2.8","1","1","b7ed8wdnoab00qs","","null","","","","null","","","","","","","","","","","","","","","","","","","","","","","","","","","","","","","","","","","","","","","","","",""
"audio-keyboard-response","217","598107","0.0-5.0-1.0-3.8","1","1","b7ed8wdnoab00qs","","null","","sounds/sentences/left/14_02_cfSWS.wav","","null","","","","","","","","","","","","","","","","","","","","","","","","","","","","","","","","","","","","","","","","","",""
"html-keyboard-response","218","599110","0.0-5.0-1.0-4.8","1","1","b7ed8wdnoab00qs","","null","","","","null","","","","","","","","","","","","","","","","","","","","","","","","","","","","","","","","","","","","","","","","","",""
"html-button-response","219","600677","0.0-5.0-1.0-5.8","1","1","b7ed8wdnoab00qs","","1065","","<p>Press the button below when you are ready to continue.</p>","0","","","","","","","","","","","","","","","","","","","","","","","","","","","","","","","","","","","","","","","","","","",""
"audio-keyboard-response","220","603269","0.0-5.0-1.0-0.9","1","1","b7ed8wdnoab00qs","","null","","sounds/sentences/left/14_03_cfSWS.wav","","null","","","","","","","","","","","","","","","","","","","","","","","","","","","","","","","","","","","","","","","","","",""
"sentence-resp","221","615252","0.0-5.0-1.0-1.9","1","1","b7ed8wdnoab00qs","","11981","","","","","","","SWS-SENT-RESPONSE","","","{""Q0"":""please don't leave without me ""}","Pluck the bright rose without leaves.","pluck,bright,rose,without,leaves","PLEASE DON'T LEAVE WITHOUT ME ","0","0","0","1","0","1","0.2","","","","","","","","","","","","","","","","","","","","","","","","","",""
"html-keyboard-response","222","616505","0.0-5.0-1.0-2.9","1","1","b7ed8wdnoab00qs","","null","","","","null","","","","","","","","","","","","","","","","","","","","","","","","","","","","","","","","","","","","","","","","","",""
"audio-keyboard-response","223","618597","0.0-5.0-1.0-3.9","1","1","b7ed8wdnoab00qs","","null","","sounds/sentences/left/14_03_cfSWS.wav","","null","","","","","","","","","","","","","","","","","","","","","","","","","","","","","","","","","","","","","","","","","",""
"html-keyboard-response","224","619600","0.0-5.0-1.0-4.9","1","1","b7ed8wdnoab00qs","","null","","","","null","","","","","","","","","","","","","","","","","","","","","","","","","","","","","","","","","","","","","","","","","",""
"html-button-response","225","622870","0.0-5.0-1.0-5.9","1","1","b7ed8wdnoab00qs","","2768","","<p>Press the button below when you are ready to continue.</p>","0","","","","","","","","","","","","","","","","","","","","","","","","","","","","","","","","","","","","","","","","","","",""
"html-keyboard-response","226","635209","0.0-6.0-0.0","1","1","b7ed8wdnoab00qs","","11837","","<p>In this part of the study, you will hear sounds similar to those you just heard.</p><p>Please focus on these sounds, as you may be asked questions about them later.</p><p>Occasionally, the sounds will pause for up to two seconds. When this happens, please press SPACEBAR as quickly as you can.</br>This helps ensure that you are paying attention to the sounds.</p><p>This part of the study will take about 12 minutes to complete, and you will be given the opportunity to take a couple of short breaks every few minutes.</p><p><strong>Press SPACEBAR to begin</strong></p>","","32","","","","","","","","","","","","","","","","","","","","","","","","","","","","","","","","","","","","","","","","","",""
"html-keyboard-response","227","636212","0.0-6.0-1.0-0.0","1","1","b7ed8wdnoab00qs","","null","","<p style=""font-size: 40px;"">+</p>","","null","","","","","","","","","","","","","","","","","","","","","","","","","","","","","","","","","","","","","","","","","",""
"html-keyboard-response","228","821211","0.0-6.0-1.0-1.0","1","1","b7ed8wdnoab00qs","","null","","","","null","","","SL-TRAIN","","","","","","","","","","","","","","2","null","null","sounds/A/TRAIN/SEQ__09.mp3","6","","","","","","","","","","","","","","","","","","","","",""
"html-button-response","229","1121056","0.0-6.0-1.0-2.0","1","1","b7ed8wdnoab00qs","","299850","","<p>You may take a short break if you wish.</p>","0","","","","","","","","","","","","","","","","","","","","","","","","","","","","","","","","","","","","","","","","","","",""
"html-keyboard-response","230","1122059","0.0-6.0-1.0-3.0","1","1","b7ed8wdnoab00qs","","null","","<p style=""font-size: 40px;"">+</p>","","null","","","","","","","","","","","","","","","","","","","","","","","","","","","","","","","","","","","","","","","","","",""
"html-keyboard-response","231","1307059","0.0-6.0-1.0-4.0","1","1","b7ed8wdnoab00qs","","null","","","","null","","","SL-TRAIN","","","","","","","","","","","","","","2","null","null","sounds/A/TRAIN/SEQ__06.mp3","2","","","","","","","","","","","","","","","","","","","","",""
"html-button-response","232","1362509","0.0-6.0-1.0-5.0","1","1","b7ed8wdnoab00qs","","31414","","<p>You may take a short break if you wish.</p>","0","","","","","","","","","","","","","","","","","","","","","","","","","","","","","","","","","","","","","","","","","","",""
"html-keyboard-response","233","1363514","0.0-6.0-1.0-6.0","1","1","b7ed8wdnoab00qs","","null","","<p style=""font-size: 40px;"">+</p>","","null","","","","","","","","","","","","","","","","","","","","","","","","","","","","","","","","","","","","","","","","","",""
"html-keyboard-response","234","1548545","0.0-6.0-1.0-7.0","1","1","b7ed8wdnoab00qs","","null","","","","null","","","SL-TRAIN","","","","","","","","","","","","","","2","null","null","sounds/A/TRAIN/SEQ__10.mp3","9","","","","","","","","","","","","","","","","","","","","",""
"html-button-response","235","1719850","0.0-6.0-1.0-8.0","1","1","b7ed8wdnoab00qs","","171307","","<p>You may take a short break if you wish.</p>","0","","","","","","","","","","","","","","","","","","","","","","","","","","","","","","","","","","","","","","","","","","",""
"html-keyboard-response","236","1720853","0.0-6.0-1.0-9.0","1","1","b7ed8wdnoab00qs","","null","","<p style=""font-size: 40px;"">+</p>","","null","","","","","","","","","","","","","","","","","","","","","","","","","","","","","","","","","","","","","","","","","",""
"html-keyboard-response","237","2046334","0.0-6.0-1.0-10.0","1","1","b7ed8wdnoab00qs","","null","","","","null","","","SL-TRAIN","","","","","","","","","","","","","","2","null","null","sounds/A/TRAIN/SEQ__01.mp3","48","","","","","","","","","","","","","","","","","","","","",""
"html-button-response","238","2166585","0.0-6.0-1.0-11.0","1","1","b7ed8wdnoab00qs","","107882","","<p>You may take a short break if you wish.</p>","0","","","","","","","","","","","","","","","","","","","","","","","","","","","","","","","","","","","","","","","","","","",""
"html-button-response","239","4107485","0.0-7.0-0.0","1","1","b7ed8wdnoab00qs","","179471","","<p>Welcome to the second part of the study. This is a <u>familiarity task</u>.</p><p>You will now hear short sounds and will be asked to rate how familiar they sound to you <b>based on what you heard in the previous part of the study</b>.</p><p>You will rate 12 sounds in total.</p>","0","","","","","","","","","","","","","","","","","","","","","","","","","","","","","","","","","","","","","","","","","","",""
"html-keyboard-response","240","4108487","0.0-7.0-1.0-0.0","1","1","b7ed8wdnoab00qs","","null","","","","null","","","","","","","","","","","","","","","","","","","","","","","","","","","","","","","","","","","","","","","","","",""
"audio-keyboard-response","241","4109432","0.0-7.0-1.0-1.0","1","1","b7ed8wdnoab00qs","","null","","sounds/A/FAM/N002.mp3","","null","","","","","","","","","","","","","","","","","","","","","","","","","","","","","","","","","","","","","","","","","",""
"html-keyboard-response","242","4113894","0.0-7.0-1.0-2.0","1","1","b7ed8wdnoab00qs","","3959","","<p>How familiar did this sound to you?</p><p>1&nbsp;&nbsp;&nbsp;&nbsp;&nbsp;&nbsp;&nbsp;&nbsp;&nbsp;&nbsp;&nbsp;&nbsp;&nbsp;&nbsp;&nbsp;&nbsp;&nbsp;&nbsp;&nbsp;2&nbsp;&nbsp;&nbsp;&nbsp;&nbsp;&nbsp;&nbsp;&nbsp;&nbsp;&nbsp;&nbsp;&nbsp;&nbsp;&nbsp;&nbsp;&nbsp;&nbsp;&nbsp;&nbsp;3&nbsp;&nbsp;&nbsp;&nbsp;&nbsp;&nbsp;&nbsp;&nbsp;&nbsp;&nbsp;&nbsp;&nbsp;&nbsp;&nbsp;&nbsp;&nbsp;&nbsp;&nbsp;&nbsp;4</p><p style=""font-size:14px"">Not at all familiar&nbsp;&nbsp;&nbsp;&nbsp;A little familiar&nbsp;&nbsp;&nbsp;Moderately familiar&nbsp;&nbsp;&nbsp;Extremely familiar</p><p>(press the corresponding number on your keyboard)</p>","","51","","","FAM-RESPONSE","","","","","","","","","","","","","","","","","","","sounds/A/FAM/N002.mp3","nonword","","","","","","","","","","","","","","","","","","",""
"html-keyboard-response","243","4115897","0.0-7.0-1.0-0.1","1","1","b7ed8wdnoab00qs","","null","","","","null","","","","","","","","","","","","","","","","","","","","","","","","","","","","","","","","","","","","","","","","","",""
"audio-keyboard-response","244","4116845","0.0-7.0-1.0-1.1","1","1","b7ed8wdnoab00qs","","null","","sounds/A/FAM/W004.mp3","","null","","","","","","","","","","","","","","","","","","","","","","","","","","","","","","","","","","","","","","","","","",""
"html-keyboard-response","245","4123170","0.0-7.0-1.0-2.1","1","1","b7ed8wdnoab00qs","","5823","","<p>How familiar did this sound to you?</p><p>1&nbsp;&nbsp;&nbsp;&nbsp;&nbsp;&nbsp;&nbsp;&nbsp;&nbsp;&nbsp;&nbsp;&nbsp;&nbsp;&nbsp;&nbsp;&nbsp;&nbsp;&nbsp;&nbsp;2&nbsp;&nbsp;&nbsp;&nbsp;&nbsp;&nbsp;&nbsp;&nbsp;&nbsp;&nbsp;&nbsp;&nbsp;&nbsp;&nbsp;&nbsp;&nbsp;&nbsp;&nbsp;&nbsp;3&nbsp;&nbsp;&nbsp;&nbsp;&nbsp;&nbsp;&nbsp;&nbsp;&nbsp;&nbsp;&nbsp;&nbsp;&nbsp;&nbsp;&nbsp;&nbsp;&nbsp;&nbsp;&nbsp;4</p><p style=""font-size:14px"">Not at all familiar&nbsp;&nbsp;&nbsp;&nbsp;A little familiar&nbsp;&nbsp;&nbsp;Moderately familiar&nbsp;&nbsp;&nbsp;Extremely familiar</p><p>(press the corresponding number on your keyboard)</p>","","50","","","FAM-RESPONSE","","","","","","","","","","","","","","","","","","","sounds/A/FAM/W004.mp3","word","","","","","","","","","","","","","","","","","","",""
"html-keyboard-response","246","4125173","0.0-7.0-1.0-0.2","1","1","b7ed8wdnoab00qs","","null","","","","null","","","","","","","","","","","","","","","","","","","","","","","","","","","","","","","","","","","","","","","","","",""
"audio-keyboard-response","247","4126114","0.0-7.0-1.0-1.2","1","1","b7ed8wdnoab00qs","","null","","sounds/A/FAM/W003.mp3","","null","","","","","","","","","","","","","","","","","","","","","","","","","","","","","","","","","","","","","","","","","",""
"html-keyboard-response","248","4129596","0.0-7.0-1.0-2.2","1","1","b7ed8wdnoab00qs","","2981","","<p>How familiar did this sound to you?</p><p>1&nbsp;&nbsp;&nbsp;&nbsp;&nbsp;&nbsp;&nbsp;&nbsp;&nbsp;&nbsp;&nbsp;&nbsp;&nbsp;&nbsp;&nbsp;&nbsp;&nbsp;&nbsp;&nbsp;2&nbsp;&nbsp;&nbsp;&nbsp;&nbsp;&nbsp;&nbsp;&nbsp;&nbsp;&nbsp;&nbsp;&nbsp;&nbsp;&nbsp;&nbsp;&nbsp;&nbsp;&nbsp;&nbsp;3&nbsp;&nbsp;&nbsp;&nbsp;&nbsp;&nbsp;&nbsp;&nbsp;&nbsp;&nbsp;&nbsp;&nbsp;&nbsp;&nbsp;&nbsp;&nbsp;&nbsp;&nbsp;&nbsp;4</p><p style=""font-size:14px"">Not at all familiar&nbsp;&nbsp;&nbsp;&nbsp;A little familiar&nbsp;&nbsp;&nbsp;Moderately familiar&nbsp;&nbsp;&nbsp;Extremely familiar</p><p>(press the corresponding number on your keyboard)</p>","","52","","","FAM-RESPONSE","","","","","","","","","","","","","","","","","","","sounds/A/FAM/W003.mp3","word","","","","","","","","","","","","","","","","","","",""
"html-keyboard-response","249","4131600","0.0-7.0-1.0-0.3","1","1","b7ed8wdnoab00qs","","null","","","","null","","","","","","","","","","","","","","","","","","","","","","","","","","","","","","","","","","","","","","","","","",""
"audio-keyboard-response","250","4132546","0.0-7.0-1.0-1.3","1","1","b7ed8wdnoab00qs","","null","","sounds/A/FAM/N003.mp3","","null","","","","","","","","","","","","","","","","","","","","","","","","","","","","","","","","","","","","","","","","","",""
"html-keyboard-response","251","4136283","0.0-7.0-1.0-2.3","1","1","b7ed8wdnoab00qs","","3236","","<p>How familiar did this sound to you?</p><p>1&nbsp;&nbsp;&nbsp;&nbsp;&nbsp;&nbsp;&nbsp;&nbsp;&nbsp;&nbsp;&nbsp;&nbsp;&nbsp;&nbsp;&nbsp;&nbsp;&nbsp;&nbsp;&nbsp;2&nbsp;&nbsp;&nbsp;&nbsp;&nbsp;&nbsp;&nbsp;&nbsp;&nbsp;&nbsp;&nbsp;&nbsp;&nbsp;&nbsp;&nbsp;&nbsp;&nbsp;&nbsp;&nbsp;3&nbsp;&nbsp;&nbsp;&nbsp;&nbsp;&nbsp;&nbsp;&nbsp;&nbsp;&nbsp;&nbsp;&nbsp;&nbsp;&nbsp;&nbsp;&nbsp;&nbsp;&nbsp;&nbsp;4</p><p style=""font-size:14px"">Not at all familiar&nbsp;&nbsp;&nbsp;&nbsp;A little familiar&nbsp;&nbsp;&nbsp;Moderately familiar&nbsp;&nbsp;&nbsp;Extremely familiar</p><p>(press the corresponding number on your keyboard)</p>","","52","","","FAM-RESPONSE","","","","","","","","","","","","","","","","","","","sounds/A/FAM/N003.mp3","nonword","","","","","","","","","","","","","","","","","","",""
"html-keyboard-response","252","4138286","0.0-7.0-1.0-0.4","1","1","b7ed8wdnoab00qs","","null","","","","null","","","","","","","","","","","","","","","","","","","","","","","","","","","","","","","","","","","","","","","","","",""
"audio-keyboard-response","253","4139233","0.0-7.0-1.0-1.4","1","1","b7ed8wdnoab00qs","","null","","sounds/A/FAM/P003.mp3","","null","","","","","","","","","","","","","","","","","","","","","","","","","","","","","","","","","","","","","","","","","",""
"html-keyboard-response","254","4141514","0.0-7.0-1.0-2.4","1","1","b7ed8wdnoab00qs","","1778","","<p>How familiar did this sound to you?</p><p>1&nbsp;&nbsp;&nbsp;&nbsp;&nbsp;&nbsp;&nbsp;&nbsp;&nbsp;&nbsp;&nbsp;&nbsp;&nbsp;&nbsp;&nbsp;&nbsp;&nbsp;&nbsp;&nbsp;2&nbsp;&nbsp;&nbsp;&nbsp;&nbsp;&nbsp;&nbsp;&nbsp;&nbsp;&nbsp;&nbsp;&nbsp;&nbsp;&nbsp;&nbsp;&nbsp;&nbsp;&nbsp;&nbsp;3&nbsp;&nbsp;&nbsp;&nbsp;&nbsp;&nbsp;&nbsp;&nbsp;&nbsp;&nbsp;&nbsp;&nbsp;&nbsp;&nbsp;&nbsp;&nbsp;&nbsp;&nbsp;&nbsp;4</p><p style=""font-size:14px"">Not at all familiar&nbsp;&nbsp;&nbsp;&nbsp;A little familiar&nbsp;&nbsp;&nbsp;Moderately familiar&nbsp;&nbsp;&nbsp;Extremely familiar</p><p>(press the corresponding number on your keyboard)</p>","","52","","","FAM-RESPONSE","","","","","","","","","","","","","","","","","","","sounds/A/FAM/P003.mp3","partword","","","","","","","","","","","","","","","","","","",""
"html-keyboard-response","255","4143517","0.0-7.0-1.0-0.5","1","1","b7ed8wdnoab00qs","","null","","","","null","","","","","","","","","","","","","","","","","","","","","","","","","","","","","","","","","","","","","","","","","",""
"audio-keyboard-response","256","4144460","0.0-7.0-1.0-1.5","1","1","b7ed8wdnoab00qs","","null","","sounds/A/FAM/P001.mp3","","null","","","","","","","","","","","","","","","","","","","","","","","","","","","","","","","","","","","","","","","","","",""
"html-keyboard-response","257","4146291","0.0-7.0-1.0-2.5","1","1","b7ed8wdnoab00qs","","1328.0000000004657","","<p>How familiar did this sound to you?</p><p>1&nbsp;&nbsp;&nbsp;&nbsp;&nbsp;&nbsp;&nbsp;&nbsp;&nbsp;&nbsp;&nbsp;&nbsp;&nbsp;&nbsp;&nbsp;&nbsp;&nbsp;&nbsp;&nbsp;2&nbsp;&nbsp;&nbsp;&nbsp;&nbsp;&nbsp;&nbsp;&nbsp;&nbsp;&nbsp;&nbsp;&nbsp;&nbsp;&nbsp;&nbsp;&nbsp;&nbsp;&nbsp;&nbsp;3&nbsp;&nbsp;&nbsp;&nbsp;&nbsp;&nbsp;&nbsp;&nbsp;&nbsp;&nbsp;&nbsp;&nbsp;&nbsp;&nbsp;&nbsp;&nbsp;&nbsp;&nbsp;&nbsp;4</p><p style=""font-size:14px"">Not at all familiar&nbsp;&nbsp;&nbsp;&nbsp;A little familiar&nbsp;&nbsp;&nbsp;Moderately familiar&nbsp;&nbsp;&nbsp;Extremely familiar</p><p>(press the corresponding number on your keyboard)</p>","","49","","","FAM-RESPONSE","","","","","","","","","","","","","","","","","","","sounds/A/FAM/P001.mp3","partword","","","","","","","","","","","","","","","","","","",""
"html-keyboard-response","258","4148295","0.0-7.0-1.0-0.6","1","1","b7ed8wdnoab00qs","","null","","","","null","","","","","","","","","","","","","","","","","","","","","","","","","","","","","","","","","","","","","","","","","",""
"audio-keyboard-response","259","4149238","0.0-7.0-1.0-1.6","1","1","b7ed8wdnoab00qs","","null","","sounds/A/FAM/W001.mp3","","null","","","","","","","","","","","","","","","","","","","","","","","","","","","","","","","","","","","","","","","","","",""
"html-keyboard-response","260","4150669","0.0-7.0-1.0-2.6","1","1","b7ed8wdnoab00qs","","928","","<p>How familiar did this sound to you?</p><p>1&nbsp;&nbsp;&nbsp;&nbsp;&nbsp;&nbsp;&nbsp;&nbsp;&nbsp;&nbsp;&nbsp;&nbsp;&nbsp;&nbsp;&nbsp;&nbsp;&nbsp;&nbsp;&nbsp;2&nbsp;&nbsp;&nbsp;&nbsp;&nbsp;&nbsp;&nbsp;&nbsp;&nbsp;&nbsp;&nbsp;&nbsp;&nbsp;&nbsp;&nbsp;&nbsp;&nbsp;&nbsp;&nbsp;3&nbsp;&nbsp;&nbsp;&nbsp;&nbsp;&nbsp;&nbsp;&nbsp;&nbsp;&nbsp;&nbsp;&nbsp;&nbsp;&nbsp;&nbsp;&nbsp;&nbsp;&nbsp;&nbsp;4</p><p style=""font-size:14px"">Not at all familiar&nbsp;&nbsp;&nbsp;&nbsp;A little familiar&nbsp;&nbsp;&nbsp;Moderately familiar&nbsp;&nbsp;&nbsp;Extremely familiar</p><p>(press the corresponding number on your keyboard)</p>","","49","","","FAM-RESPONSE","","","","","","","","","","","","","","","","","","","sounds/A/FAM/W001.mp3","word","","","","","","","","","","","","","","","","","","",""
"html-keyboard-response","261","4152672","0.0-7.0-1.0-0.7","1","1","b7ed8wdnoab00qs","","null","","","","null","","","","","","","","","","","","","","","","","","","","","","","","","","","","","","","","","","","","","","","","","",""
"audio-keyboard-response","262","4153622","0.0-7.0-1.0-1.7","1","1","b7ed8wdnoab00qs","","null","","sounds/A/FAM/P002.mp3","","null","","","","","","","","","","","","","","","","","","","","","","","","","","","","","","","","","","","","","","","","","",""
"html-keyboard-response","263","4154238","0.0-7.0-1.0-2.7","1","1","b7ed8wdnoab00qs","","113","","<p>How familiar did this sound to you?</p><p>1&nbsp;&nbsp;&nbsp;&nbsp;&nbsp;&nbsp;&nbsp;&nbsp;&nbsp;&nbsp;&nbsp;&nbsp;&nbsp;&nbsp;&nbsp;&nbsp;&nbsp;&nbsp;&nbsp;2&nbsp;&nbsp;&nbsp;&nbsp;&nbsp;&nbsp;&nbsp;&nbsp;&nbsp;&nbsp;&nbsp;&nbsp;&nbsp;&nbsp;&nbsp;&nbsp;&nbsp;&nbsp;&nbsp;3&nbsp;&nbsp;&nbsp;&nbsp;&nbsp;&nbsp;&nbsp;&nbsp;&nbsp;&nbsp;&nbsp;&nbsp;&nbsp;&nbsp;&nbsp;&nbsp;&nbsp;&nbsp;&nbsp;4</p><p style=""font-size:14px"">Not at all familiar&nbsp;&nbsp;&nbsp;&nbsp;A little familiar&nbsp;&nbsp;&nbsp;Moderately familiar&nbsp;&nbsp;&nbsp;Extremely familiar</p><p>(press the corresponding number on your keyboard)</p>","","50","","","FAM-RESPONSE","","","","","","","","","","","","","","","","","","","sounds/A/FAM/P002.mp3","partword","","","","","","","","","","","","","","","","","","",""
"html-keyboard-response","264","4156242","0.0-7.0-1.0-0.8","1","1","b7ed8wdnoab00qs","","null","","","","null","","","","","","","","","","","","","","","","","","","","","","","","","","","","","","","","","","","","","","","","","",""
"audio-keyboard-response","265","4157185","0.0-7.0-1.0-1.8","1","1","b7ed8wdnoab00qs","","null","","sounds/A/FAM/N004.mp3","","null","","","","","","","","","","","","","","","","","","","","","","","","","","","","","","","","","","","","","","","","","",""
"html-keyboard-response","266","4158888","0.0-7.0-1.0-2.8","1","1","b7ed8wdnoab00qs","","1200","","<p>How familiar did this sound to you?</p><p>1&nbsp;&nbsp;&nbsp;&nbsp;&nbsp;&nbsp;&nbsp;&nbsp;&nbsp;&nbsp;&nbsp;&nbsp;&nbsp;&nbsp;&nbsp;&nbsp;&nbsp;&nbsp;&nbsp;2&nbsp;&nbsp;&nbsp;&nbsp;&nbsp;&nbsp;&nbsp;&nbsp;&nbsp;&nbsp;&nbsp;&nbsp;&nbsp;&nbsp;&nbsp;&nbsp;&nbsp;&nbsp;&nbsp;3&nbsp;&nbsp;&nbsp;&nbsp;&nbsp;&nbsp;&nbsp;&nbsp;&nbsp;&nbsp;&nbsp;&nbsp;&nbsp;&nbsp;&nbsp;&nbsp;&nbsp;&nbsp;&nbsp;4</p><p style=""font-size:14px"">Not at all familiar&nbsp;&nbsp;&nbsp;&nbsp;A little familiar&nbsp;&nbsp;&nbsp;Moderately familiar&nbsp;&nbsp;&nbsp;Extremely familiar</p><p>(press the corresponding number on your keyboard)</p>","","52","","","FAM-RESPONSE","","","","","","","","","","","","","","","","","","","sounds/A/FAM/N004.mp3","nonword","","","","","","","","","","","","","","","","","","",""
"html-keyboard-response","267","4160891","0.0-7.0-1.0-0.9","1","1","b7ed8wdnoab00qs","","null","","","","null","","","","","","","","","","","","","","","","","","","","","","","","","","","","","","","","","","","","","","","","","",""
"audio-keyboard-response","268","4161835","0.0-7.0-1.0-1.9","1","1","b7ed8wdnoab00qs","","null","","sounds/A/FAM/N001.mp3","","null","","","","","","","","","","","","","","","","","","","","","","","","","","","","","","","","","","","","","","","","","",""
"html-keyboard-response","269","4165343","0.0-7.0-1.0-2.9","1","1","b7ed8wdnoab00qs","","3005","","<p>How familiar did this sound to you?</p><p>1&nbsp;&nbsp;&nbsp;&nbsp;&nbsp;&nbsp;&nbsp;&nbsp;&nbsp;&nbsp;&nbsp;&nbsp;&nbsp;&nbsp;&nbsp;&nbsp;&nbsp;&nbsp;&nbsp;2&nbsp;&nbsp;&nbsp;&nbsp;&nbsp;&nbsp;&nbsp;&nbsp;&nbsp;&nbsp;&nbsp;&nbsp;&nbsp;&nbsp;&nbsp;&nbsp;&nbsp;&nbsp;&nbsp;3&nbsp;&nbsp;&nbsp;&nbsp;&nbsp;&nbsp;&nbsp;&nbsp;&nbsp;&nbsp;&nbsp;&nbsp;&nbsp;&nbsp;&nbsp;&nbsp;&nbsp;&nbsp;&nbsp;4</p><p style=""font-size:14px"">Not at all familiar&nbsp;&nbsp;&nbsp;&nbsp;A little familiar&nbsp;&nbsp;&nbsp;Moderately familiar&nbsp;&nbsp;&nbsp;Extremely familiar</p><p>(press the corresponding number on your keyboard)</p>","","50","","","FAM-RESPONSE","","","","","","","","","","","","","","","","","","","sounds/A/FAM/N001.mp3","nonword","","","","","","","","","","","","","","","","","","",""
"html-keyboard-response","270","4167347","0.0-7.0-1.0-0.10","1","1","b7ed8wdnoab00qs","","null","","","","null","","","","","","","","","","","","","","","","","","","","","","","","","","","","","","","","","","","","","","","","","",""
"audio-keyboard-response","271","4168288","0.0-7.0-1.0-1.10","1","1","b7ed8wdnoab00qs","","null","","sounds/A/FAM/W002.mp3","","null","","","","","","","","","","","","","","","","","","","","","","","","","","","","","","","","","","","","","","","","","",""
"html-keyboard-response","272","4171910","0.0-7.0-1.0-2.10","1","1","b7ed8wdnoab00qs","","3118","","<p>How familiar did this sound to you?</p><p>1&nbsp;&nbsp;&nbsp;&nbsp;&nbsp;&nbsp;&nbsp;&nbsp;&nbsp;&nbsp;&nbsp;&nbsp;&nbsp;&nbsp;&nbsp;&nbsp;&nbsp;&nbsp;&nbsp;2&nbsp;&nbsp;&nbsp;&nbsp;&nbsp;&nbsp;&nbsp;&nbsp;&nbsp;&nbsp;&nbsp;&nbsp;&nbsp;&nbsp;&nbsp;&nbsp;&nbsp;&nbsp;&nbsp;3&nbsp;&nbsp;&nbsp;&nbsp;&nbsp;&nbsp;&nbsp;&nbsp;&nbsp;&nbsp;&nbsp;&nbsp;&nbsp;&nbsp;&nbsp;&nbsp;&nbsp;&nbsp;&nbsp;4</p><p style=""font-size:14px"">Not at all familiar&nbsp;&nbsp;&nbsp;&nbsp;A little familiar&nbsp;&nbsp;&nbsp;Moderately familiar&nbsp;&nbsp;&nbsp;Extremely familiar</p><p>(press the corresponding number on your keyboard)</p>","","50","","","FAM-RESPONSE","","","","","","","","","","","","","","","","","","","sounds/A/FAM/W002.mp3","word","","","","","","","","","","","","","","","","","","",""
"html-keyboard-response","273","4173913","0.0-7.0-1.0-0.11","1","1","b7ed8wdnoab00qs","","null","","","","null","","","","","","","","","","","","","","","","","","","","","","","","","","","","","","","","","","","","","","","","","",""
"audio-keyboard-response","274","4174859","0.0-7.0-1.0-1.11","1","1","b7ed8wdnoab00qs","","null","","sounds/A/FAM/P004.mp3","","null","","","","","","","","","","","","","","","","","","","","","","","","","","","","","","","","","","","","","","","","","",""
"html-keyboard-response","275","4175370","0.0-7.0-1.0-2.11","1","1","b7ed8wdnoab00qs","","9","","<p>How familiar did this sound to you?</p><p>1&nbsp;&nbsp;&nbsp;&nbsp;&nbsp;&nbsp;&nbsp;&nbsp;&nbsp;&nbsp;&nbsp;&nbsp;&nbsp;&nbsp;&nbsp;&nbsp;&nbsp;&nbsp;&nbsp;2&nbsp;&nbsp;&nbsp;&nbsp;&nbsp;&nbsp;&nbsp;&nbsp;&nbsp;&nbsp;&nbsp;&nbsp;&nbsp;&nbsp;&nbsp;&nbsp;&nbsp;&nbsp;&nbsp;3&nbsp;&nbsp;&nbsp;&nbsp;&nbsp;&nbsp;&nbsp;&nbsp;&nbsp;&nbsp;&nbsp;&nbsp;&nbsp;&nbsp;&nbsp;&nbsp;&nbsp;&nbsp;&nbsp;4</p><p style=""font-size:14px"">Not at all familiar&nbsp;&nbsp;&nbsp;&nbsp;A little familiar&nbsp;&nbsp;&nbsp;Moderately familiar&nbsp;&nbsp;&nbsp;Extremely familiar</p><p>(press the corresponding number on your keyboard)</p>","","52","","","FAM-RESPONSE","","","","","","","","","","","","","","","","","","","sounds/A/FAM/P004.mp3","partword","","","","","","","","","","","","","","","","","","",""
"html-button-response","276","4187522","0.0-8.0-0.0","1","1","b7ed8wdnoab00qs","","11151","","<p>You will now listen to longer sound sequences.</p><p>Each sound sequence will last about 16 seconds.</p><p>On each trial, you will be given a <u>TARGET SOUND</u>. Your task is to listen very carefully for this sound.</p><p>Every time you hear the <u>TARGET SOUND</u>, you will press the <b>SPACEBAR</b> as quickly and accurately as you can.</p>","0","","","","","","","","","","","","","","","","","","","","","","","","","","","","","","","","","","","","","","","","","","",""
"html-button-response","277","4198294","0.0-8.0-1.0","1","1","b7ed8wdnoab00qs","","10519","","<p>It is very important that you make your responses as quickly and accurately as possible.</p><p>To help you make your responses, you will be able to listen to the <u>TARGET SOUND</u> at the beginning of each trial.</p><p>There will be 36 total trials.</p><p><b>Note: This is meant to be a difficult task. We simply want you to try your best.</p>","0","","","","","","","","","","","","","","","","","","","","","","","","","","","","","","","","","","","","","","","","","","",""
"html-button-response","278","4200937","0.0-8.0-2.0-0.0","1","1","b7ed8wdnoab00qs","","2390","","<p>Trial 1 of 36</p>","0","","","","","","","","","","","","","","","","","","","","","","","","","RE","sounds/syllables/re_SWS.wav","900,2700,8100,12600","1","","","","","","","","","","","","","","",""
"html-keyboard-response","279","4206400","0.0-8.0-2.0-1.0","1","1","b7ed8wdnoab00qs","","5461","","","","80","","","","","","","","","","","","","","","","","","","","","","","","RE","","900,2700,8100,12600","1","","","","","","","","","","","","","","",""
"audio-keyboard-response","280","4206708","0.0-8.0-2.0-2.0-0.0","1","1","b7ed8wdnoab00qs","","null","","sounds/syllables/re_SWS.wav","","null","","","","","","","","","","","","","","","","","","","","","","","","","","","","","","","","","","","","","","","","","",""
"html-keyboard-response","281","4210274","0.0-8.0-2.0-2.0-1.0","1","1","b7ed8wdnoab00qs","","3564","","<p>To replay the <u>TARGET SOUND</u>, press P.</p> When you are ready to begin, press SPACEBAR.","","80","","","","","","","","","","","","","","","","","","","","","","","","","","","","","","","","","","","","","","","","","",""
"audio-keyboard-response","282","4211081","0.0-8.0-2.0-2.1-0.1","1","1","b7ed8wdnoab00qs","","null","","sounds/syllables/re_SWS.wav","","null","","","","","","","","","","","","","","","","","","","","","","","","","","","","","","","","","","","","","","","","","",""
"html-keyboard-response","283","4212111","0.0-8.0-2.0-2.1-1.1","1","1","b7ed8wdnoab00qs","","1028","","<p>To replay the <u>TARGET SOUND</u>, press P.</p> When you are ready to begin, press SPACEBAR.","","80","","","","","","","","","","","","","","","","","","","","","","","","","","","","","","","","","","","","","","","","","",""
"audio-keyboard-response","284","4212916","0.0-8.0-2.0-2.2-0.2","1","1","b7ed8wdnoab00qs","","null","","sounds/syllables/re_SWS.wav","","null","","","","","","","","","","","","","","","","","","","","","","","","","","","","","","","","","","","","","","","","","",""
"html-keyboard-response","285","4213633","0.0-8.0-2.0-2.2-1.2","1","1","b7ed8wdnoab00qs","","716","","<p>To replay the <u>TARGET SOUND</u>, press P.</p> When you are ready to begin, press SPACEBAR.","","80","","","","","","","","","","","","","","","","","","","","","","","","","","","","","","","","","","","","","","","","","",""
"audio-keyboard-response","286","4214441","0.0-8.0-2.0-2.3-0.3","1","1","b7ed8wdnoab00qs","","null","","sounds/syllables/re_SWS.wav","","null","","","","","","","","","","","","","","","","","","","","","","","","","","","","","","","","","","","","","","","","","",""
"html-keyboard-response","287","4215267","0.0-8.0-2.0-2.3-1.3","1","1","b7ed8wdnoab00qs","","823.9999999995343","","<p>To replay the <u>TARGET SOUND</u>, press P.</p> When you are ready to begin, press SPACEBAR.","","80","","","","","","","","","","","","","","","","","","","","","","","","","","","","","","","","","","","","","","","","","",""
"audio-keyboard-response","288","4216073","0.0-8.0-2.0-2.4-0.4","1","1","b7ed8wdnoab00qs","","null","","sounds/syllables/re_SWS.wav","","null","","","","","","","","","","","","","","","","","","","","","","","","","","","","","","","","","","","","","","","","","",""
"html-keyboard-response","289","4217026","0.0-8.0-2.0-2.4-1.4","1","1","b7ed8wdnoab00qs","","952","","<p>To replay the <u>TARGET SOUND</u>, press P.</p> When you are ready to begin, press SPACEBAR.","","80","","","","","","","","","","","","","","","","","","","","","","","","","","","","","","","","","","","","","","","","","",""
"audio-keyboard-response","290","4217833","0.0-8.0-2.0-2.5-0.5","1","1","b7ed8wdnoab00qs","","null","","sounds/syllables/re_SWS.wav","","null","","","","","","","","","","","","","","","","","","","","","","","","","","","","","","","","","","","","","","","","","",""
"html-keyboard-response","291","4218692","0.0-8.0-2.0-2.5-1.5","1","1","b7ed8wdnoab00qs","","857","","<p>To replay the <u>TARGET SOUND</u>, press P.</p> When you are ready to begin, press SPACEBAR.","","80","","","","","","","","","","","","","","","","","","","","","","","","","","","","","","","","","","","","","","","","","",""
"audio-keyboard-response","292","4219497","0.0-8.0-2.0-2.6-0.6","1","1","b7ed8wdnoab00qs","","null","","sounds/syllables/re_SWS.wav","","null","","","","","","","","","","","","","","","","","","","","","","","","","","","","","","","","","","","","","","","","","",""
"html-keyboard-response","293","4220289","0.0-8.0-2.0-2.6-1.6","1","1","b7ed8wdnoab00qs","","791","","<p>To replay the <u>TARGET SOUND</u>, press P.</p> When you are ready to begin, press SPACEBAR.","","80","","","","","","","","","","","","","","","","","","","","","","","","","","","","","","","","","","","","","","","","","",""
"audio-keyboard-response","294","4221097","0.0-8.0-2.0-2.7-0.7","1","1","b7ed8wdnoab00qs","","null","","sounds/syllables/re_SWS.wav","","null","","","","","","","","","","","","","","","","","","","","","","","","","","","","","","","","","","","","","","","","","",""
"html-keyboard-response","295","4221907","0.0-8.0-2.0-2.7-1.7","1","1","b7ed8wdnoab00qs","","809","","<p>To replay the <u>TARGET SOUND</u>, press P.</p> When you are ready to begin, press SPACEBAR.","","80","","","","","","","","","","","","","","","","","","","","","","","","","","","","","","","","","","","","","","","","","",""
"audio-keyboard-response","296","4222718","0.0-8.0-2.0-2.8-0.8","1","1","b7ed8wdnoab00qs","","null","","sounds/syllables/re_SWS.wav","","null","","","","","","","","","","","","","","","","","","","","","","","","","","","","","","","","","","","","","","","","","",""
"html-keyboard-response","297","4223740","0.0-8.0-2.0-2.8-1.8","1","1","b7ed8wdnoab00qs","","1020","","<p>To replay the <u>TARGET SOUND</u>, press P.</p> When you are ready to begin, press SPACEBAR.","","80","","","","","","","","","","","","","","","","","","","","","","","","","","","","","","","","","","","","","","","","","",""
"audio-keyboard-response","298","4224542","0.0-8.0-2.0-2.9-0.9","1","1","b7ed8wdnoab00qs","","null","","sounds/syllables/re_SWS.wav","","null","","","","","","","","","","","","","","","","","","","","","","","","","","","","","","","","","","","","","","","","","",""
"html-keyboard-response","299","4225439","0.0-8.0-2.0-2.9-1.9","1","1","b7ed8wdnoab00qs","","895","","<p>To replay the <u>TARGET SOUND</u>, press P.</p> When you are ready to begin, press SPACEBAR.","","80","","","","","","","","","","","","","","","","","","","","","","","","","","","","","","","","","","","","","","","","","",""
"audio-keyboard-response","300","4226249","0.0-8.0-2.0-2.10-0.10","1","1","b7ed8wdnoab00qs","","null","","sounds/syllables/re_SWS.wav","","null","","","","","","","","","","","","","","","","","","","","","","","","","","","","","","","","","","","","","","","","","",""
"html-keyboard-response","301","4226927","0.0-8.0-2.0-2.10-1.10","1","1","b7ed8wdnoab00qs","","676.9999999995343","","<p>To replay the <u>TARGET SOUND</u>, press P.</p> When you are ready to begin, press SPACEBAR.","","80","","","","","","","","","","","","","","","","","","","","","","","","","","","","","","","","","","","","","","","","","",""
"audio-keyboard-response","302","4227732","0.0-8.0-2.0-2.11-0.11","1","1","b7ed8wdnoab00qs","","null","","sounds/syllables/re_SWS.wav","","null","","","","","","","","","","","","","","","","","","","","","","","","","","","","","","","","","","","","","","","","","",""
"html-keyboard-response","303","4228422","0.0-8.0-2.0-2.11-1.11","1","1","b7ed8wdnoab00qs","","689","","<p>To replay the <u>TARGET SOUND</u>, press P.</p> When you are ready to begin, press SPACEBAR.","","80","","","","","","","","","","","","","","","","","","","","","","","","","","","","","","","","","","","","","","","","","",""
"audio-keyboard-response","304","4229225","0.0-8.0-2.0-2.12-0.12","1","1","b7ed8wdnoab00qs","","null","","sounds/syllables/re_SWS.wav","","null","","","","","","","","","","","","","","","","","","","","","","","","","","","","","","","","","","","","","","","","","",""
"html-keyboard-response","305","4230859","0.0-8.0-2.0-2.12-1.12","1","1","b7ed8wdnoab00qs","","1633","","<p>To replay the <u>TARGET SOUND</u>, press P.</p> When you are ready to begin, press SPACEBAR.","","32","","","","","","","","","","","","","","","","","","","","","","","","","","","","","","","","","","","","","","","","","",""
"audio-keyboard-response","306","4245811","0.0-8.0-2.0-3.0","1","1","b7ed8wdnoab00qs","","1504","","sounds/A/TD/RE_05_TD.mp3","","32","","","TD_SUMMARY","","","","","","","","","","","","","","","","","","","","","RE","","900,2700,8100,12600","1","900","2700","8100","12600","609","null","1005","643","1509_2421_4391_5647.000000000466_7301.000000000466_7963_8924_9105_10517_11728_13243","13","","","","",""
"html-button-response","307","4248432","0.0-8.0-2.0-0.1","1","1","b7ed8wdnoab00qs","","2617","","<p>Trial 2 of 36</p>","0","","","","","","","","","","","","","","","","","","","","","","","","","KO","sounds/syllables/ko_SWS.wav","3300,6900,8700,11400","3","","","","","","","","","","","","","","",""
"html-keyboard-response","308","4252434","0.0-8.0-2.0-1.1","1","1","b7ed8wdnoab00qs","","4000","","","","80","","","","","","","","","","","","","","","","","","","","","","","","KO","","3300,6900,8700,11400","3","","","","","","","","","","","","","","",""
"audio-keyboard-response","309","4252744","0.0-8.0-2.0-2.13-0.13","1","1","b7ed8wdnoab00qs","","null","","sounds/syllables/ko_SWS.wav","","null","","","","","","","","","","","","","","","","","","","","","","","","","","","","","","","","","","","","","","","","","",""
"html-keyboard-response","310","4253390","0.0-8.0-2.0-2.13-1.13","1","1","b7ed8wdnoab00qs","","644","","<p>To replay the <u>TARGET SOUND</u>, press P.</p> When you are ready to begin, press SPACEBAR.","","80","","","","","","","","","","","","","","","","","","","","","","","","","","","","","","","","","","","","","","","","","",""
"audio-keyboard-response","311","4254195","0.0-8.0-2.0-2.14-0.14","1","1","b7ed8wdnoab00qs","","null","","sounds/syllables/ko_SWS.wav","","null","","","","","","","","","","","","","","","","","","","","","","","","","","","","","","","","","","","","","","","","","",""
"html-keyboard-response","312","4255379","0.0-8.0-2.0-2.14-1.14","1","1","b7ed8wdnoab00qs","","1183","","<p>To replay the <u>TARGET SOUND</u>, press P.</p> When you are ready to begin, press SPACEBAR.","","80","","","","","","","","","","","","","","","","","","","","","","","","","","","","","","","","","","","","","","","","","",""
"audio-keyboard-response","313","4256189","0.0-8.0-2.0-2.15-0.15","1","1","b7ed8wdnoab00qs","","null","","sounds/syllables/ko_SWS.wav","","null","","","","","","","","","","","","","","","","","","","","","","","","","","","","","","","","","","","","","","","","","",""
"html-keyboard-response","314","4256860","0.0-8.0-2.0-2.15-1.15","1","1","b7ed8wdnoab00qs","","670","","<p>To replay the <u>TARGET SOUND</u>, press P.</p> When you are ready to begin, press SPACEBAR.","","80","","","","","","","","","","","","","","","","","","","","","","","","","","","","","","","","","","","","","","","","","",""
"audio-keyboard-response","315","4257672","0.0-8.0-2.0-2.16-0.16","1","1","b7ed8wdnoab00qs","","null","","sounds/syllables/ko_SWS.wav","","null","","","","","","","","","","","","","","","","","","","","","","","","","","","","","","","","","","","","","","","","","",""
"html-keyboard-response","316","4258397","0.0-8.0-2.0-2.16-1.16","1","1","b7ed8wdnoab00qs","","723.9999999995343","","<p>To replay the <u>TARGET SOUND</u>, press P.</p> When you are ready to begin, press SPACEBAR.","","80","","","","","","","","","","","","","","","","","","","","","","","","","","","","","","","","","","","","","","","","","",""
"audio-keyboard-response","317","4259208","0.0-8.0-2.0-2.17-0.17","1","1","b7ed8wdnoab00qs","","null","","sounds/syllables/ko_SWS.wav","","null","","","","","","","","","","","","","","","","","","","","","","","","","","","","","","","","","","","","","","","","","",""
"html-keyboard-response","318","4260350","0.0-8.0-2.0-2.17-1.17","1","1","b7ed8wdnoab00qs","","1141","","<p>To replay the <u>TARGET SOUND</u>, press P.</p> When you are ready to begin, press SPACEBAR.","","32","","","","","","","","","","","","","","","","","","","","","","","","","","","","","","","","","","","","","","","","","",""
