"trial_type","trial_index","time_elapsed","internal_node_id","counterbalance","lang_instruct","ParticipantID","view_history","rt","url","stimulus","button_pressed","key_press","correctRESP","correct","designation","location","correctanswer","responses","sentence","keywords","typed_resp","keyword1_acc","keyword2_acc","keyword3_acc","keyword4_acc","keyword5_acc","total_acc","prop_acc","timeouts","pause_rt01","pause_rt02","train_file","numKeyPress"
"pavlovia","0","1","0.0-0.0","1","1","0ccoltklbhxelno","","","","","","","","","","","","","","","","","","","","","","","","","","",""
"instructions","1","14290","0.0-1.0","1","1","0ccoltklbhxelno","[{""page_index"":0,""viewing_time"":11757},{""page_index"":1,""viewing_time"":2530}]","14289","","","","","","","","","","","","","","","","","","","","","","","","",""
"external-html","2","16667","0.0-2.0","1","1","0ccoltklbhxelno","","2374.0000000000146","consent/consent.html","","","","","","","","","","","","","","","","","","","","","","","",""
"html-button-response","3","18468","0.0-3.0-0.0-0.0","1","1","0ccoltklbhxelno","","1800","","<p>Welcome to the study. You will first complete a short volume calibration and headphone check.</p><p>Please make sure you are in a quiet listening environment, that you are wearing headphones, and that your computer's volume is turned on.<p></p>","0","","","","","","","","","","","","","","","","","","","","","",""
"html-button-response","4","19835","0.0-3.0-0.0-1.0","1","1","0ccoltklbhxelno","","1115","","<p>The volume calibration will be first.</p><p>You will hear a thirty-second noise. Please adjust your computer's volume so that this noise is being presented at a comfortable level.<p></p>","0","","","","","","","","","","","","","","","","","","","","","",""
"audio-button-response","5","21484","0.0-3.0-0.0-2.0","1","1","0ccoltklbhxelno","","875","","audCalib/volumetest.mp3","0","","","","","","","","","","","","","","","","","","","","","",""
"html-button-response","6","22340","0.0-3.0-1.0-0.0","1","1","0ccoltklbhxelno","","853.9999999999854","","<p>You will now complete a short headphone check.</p><p>On each trial, you will hear three tones. One of these tones will be quieter than the others. Your task is to identify whether the quiet tone occured first, second, or third.</p><p>There are six trials in total.<p></p>","0","","","","","","","","","","","","","","","","","","","","","",""
"html-keyboard-response","7","23094","0.0-3.0-1.0-1.0-0.0","1","1","0ccoltklbhxelno","","null","","<div style=""font-size:60px;"">+</div>","","null","","","","","","","","","","","","","","","","","","","","",""
"audio-button-response","8","27210","0.0-3.0-1.0-1.0-1.0","1","1","0ccoltklbhxelno","","4107","","audCalib/t2_2.mp3","1","","1","1","headphone-test","","","","","","","","","","","","","","","","","",""
"html-keyboard-response","9","27965","0.0-3.0-1.0-1.0-0.1","1","1","0ccoltklbhxelno","","null","","<div style=""font-size:60px;"">+</div>","","null","","","","","","","","","","","","","","","","","","","","",""
"audio-button-response","10","32158","0.0-3.0-1.0-1.0-1.1","1","1","0ccoltklbhxelno","","4192","","audCalib/t2_1.mp3","1","","1","1","headphone-test","","","","","","","","","","","","","","","","","",""
"html-keyboard-response","11","32912","0.0-3.0-1.0-1.0-0.2","1","1","0ccoltklbhxelno","","null","","<div style=""font-size:60px;"">+</div>","","null","","","","","","","","","","","","","","","","","","","","",""
"audio-button-response","12","37208","0.0-3.0-1.0-1.0-1.2","1","1","0ccoltklbhxelno","","4299","","audCalib/t3_1.mp3","2","","2","1","headphone-test","","","","","","","","","","","","","","","","","",""
"html-keyboard-response","13","37962","0.0-3.0-1.0-1.0-0.3","1","1","0ccoltklbhxelno","","null","","<div style=""font-size:60px;"">+</div>","","null","","","","","","","","","","","","","","","","","","","","",""
"audio-button-response","14","41987","0.0-3.0-1.0-1.0-1.3","1","1","0ccoltklbhxelno","","4021","","audCalib/t1_1.mp3","0","","0","1","headphone-test","","","","","","","","","","","","","","","","","",""
"html-keyboard-response","15","42741","0.0-3.0-1.0-1.0-0.4","1","1","0ccoltklbhxelno","","null","","<div style=""font-size:60px;"">+</div>","","null","","","","","","","","","","","","","","","","","","","","",""
"audio-button-response","16","46871","0.0-3.0-1.0-1.0-1.4","1","1","0ccoltklbhxelno","","4128","","audCalib/t1_2.mp3","0","","0","1","headphone-test","","","","","","","","","","","","","","","","","",""
"html-keyboard-response","17","47625","0.0-3.0-1.0-1.0-0.5","1","1","0ccoltklbhxelno","","null","","<div style=""font-size:60px;"">+</div>","","null","","","","","","","","","","","","","","","","","","","","",""
"audio-button-response","18","51859","0.0-3.0-1.0-1.0-1.5","1","1","0ccoltklbhxelno","","4235","","audCalib/t3_2.mp3","2","","2","1","headphone-test","","","","","","","","","","","","","","","","","",""
"html-button-response","19","53354","0.0-3.0-2.0","1","1","0ccoltklbhxelno","","1242.999999999971","","<p>The volume calibration and headphone check are now complete.</p>","0","","","","","","","","","","","","","","","","","","","","","",""
"instructions","20","57034","0.0-4.0-0.0","1","1","0ccoltklbhxelno","[{""page_index"":0,""viewing_time"":1162},{""page_index"":1,""viewing_time"":1407},{""page_index"":2,""viewing_time"":1108}]","3678","","","","","","","","","","","","","","","","","","","","","","","","",""
"audio-keyboard-response","21","57345","0.0-4.0-1.0-0.0","1","1","0ccoltklbhxelno","","null","","sounds/induction/left/fe_SWS.wav","","null","","","","","","","","","","","","","","","","","","","","",""
"html-button-response","22","58779","0.0-4.0-1.0-1.0","1","1","0ccoltklbhxelno","","1433","","What sound did you hear?","1","","","1","INDUCTION-JUDGMENT","left","1","","","","","","","","","","","","","","","",""
"html-keyboard-response","23","59783","0.0-4.0-1.0-2.0","1","1","0ccoltklbhxelno","","null","","<p style=""color:green;""><b>Correct!</b></p>","","null","","","","","","","","","","","","","","","","","","","","",""
"audio-keyboard-response","24","60587","0.0-4.0-1.0-0.1","1","1","0ccoltklbhxelno","","null","","sounds/induction/left/ge_SWS.wav","","null","","","","","","","","","","","","","","","","","","","","",""
"html-button-response","25","61957","0.0-4.0-1.0-1.1","1","1","0ccoltklbhxelno","","1368","","What sound did you hear?","0","","","0","INDUCTION-JUDGMENT","left","1","","","","","","","","","","","","","","","",""
"html-keyboard-response","26","62961","0.0-4.0-1.0-2.1","1","1","0ccoltklbhxelno","","null","","<p style=""color:red;""><b>Incorrect!</b></p>","","null","","","","","","","","","","","","","","","","","","","","",""
"audio-keyboard-response","27","63766","0.0-4.0-1.0-0.2","1","1","0ccoltklbhxelno","","null","","sounds/induction/left/su_SWS.wav","","null","","","","","","","","","","","","","","","","","","","","",""
"html-button-response","28","64618","0.0-4.0-1.0-1.2","1","1","0ccoltklbhxelno","","851","","What sound did you hear?","0","","","1","INDUCTION-JUDGMENT","left","0","","","","","","","","","","","","","","","",""
"html-keyboard-response","29","65621","0.0-4.0-1.0-2.2","1","1","0ccoltklbhxelno","","null","","<p style=""color:green;""><b>Correct!</b></p>","","null","","","","","","","","","","","","","","","","","","","","",""
"audio-keyboard-response","30","66432","0.0-4.0-1.0-0.3","1","1","0ccoltklbhxelno","","null","","sounds/induction/left/pu_SWS.wav","","null","","","","","","","","","","","","","","","","","","","","",""
"html-button-response","31","67576","0.0-4.0-1.0-1.3","1","1","0ccoltklbhxelno","","1143","","What sound did you hear?","0","","","1","INDUCTION-JUDGMENT","left","0","","","","","","","","","","","","","","","",""
"html-keyboard-response","32","68579","0.0-4.0-1.0-2.3","1","1","0ccoltklbhxelno","","null","","<p style=""color:green;""><b>Correct!</b></p>","","null","","","","","","","","","","","","","","","","","","","","",""
"audio-keyboard-response","33","69387","0.0-4.0-1.0-0.4","1","1","0ccoltklbhxelno","","null","","sounds/induction/left/ta_SWS.wav","","null","","","","","","","","","","","","","","","","","","","","",""
"html-button-response","34","70342","0.0-4.0-1.0-1.4","1","1","0ccoltklbhxelno","","952","","What sound did you hear?","0","","","1","INDUCTION-JUDGMENT","left","0","","","","","","","","","","","","","","","",""
"html-keyboard-response","35","71344","0.0-4.0-1.0-2.4","1","1","0ccoltklbhxelno","","null","","<p style=""color:green;""><b>Correct!</b></p>","","null","","","","","","","","","","","","","","","","","","","","",""
"audio-keyboard-response","36","72150","0.0-4.0-1.0-0.5","1","1","0ccoltklbhxelno","","null","","sounds/induction/right/re_SWS.wav","","null","","","","","","","","","","","","","","","","","","","","",""
"html-button-response","37","72913","0.0-4.0-1.0-1.5","1","1","0ccoltklbhxelno","","761","","What sound did you hear?","1","","","1","INDUCTION-JUDGMENT","right","1","","","","","","","","","","","","","","","",""
"html-keyboard-response","38","73916","0.0-4.0-1.0-2.5","1","1","0ccoltklbhxelno","","null","","<p style=""color:green;""><b>Correct!</b></p>","","null","","","","","","","","","","","","","","","","","","","","",""
"audio-keyboard-response","39","74720","0.0-4.0-1.0-0.6","1","1","0ccoltklbhxelno","","null","","sounds/induction/right/ru_SWS.wav","","null","","","","","","","","","","","","","","","","","","","","",""
"html-button-response","40","75435","0.0-4.0-1.0-1.6","1","1","0ccoltklbhxelno","","714","","What sound did you hear?","1","","","1","INDUCTION-JUDGMENT","right","1","","","","","","","","","","","","","","","",""
"html-keyboard-response","41","76438","0.0-4.0-1.0-2.6","1","1","0ccoltklbhxelno","","null","","<p style=""color:green;""><b>Correct!</b></p>","","null","","","","","","","","","","","","","","","","","","","","",""
"audio-keyboard-response","42","77248","0.0-4.0-1.0-0.7","1","1","0ccoltklbhxelno","","null","","sounds/induction/right/su_SWS.wav","","null","","","","","","","","","","","","","","","","","","","","",""
"html-button-response","43","78103","0.0-4.0-1.0-1.7","1","1","0ccoltklbhxelno","","852","","What sound did you hear?","1","","","1","INDUCTION-JUDGMENT","right","1","","","","","","","","","","","","","","","",""
"html-keyboard-response","44","79105","0.0-4.0-1.0-2.7","1","1","0ccoltklbhxelno","","null","","<p style=""color:green;""><b>Correct!</b></p>","","null","","","","","","","","","","","","","","","","","","","","",""
"audio-keyboard-response","45","79915","0.0-4.0-1.0-0.8","1","1","0ccoltklbhxelno","","null","","sounds/induction/left/ta_SWS.wav","","null","","","","","","","","","","","","","","","","","","","","",""
"html-button-response","46","80762","0.0-4.0-1.0-1.8","1","1","0ccoltklbhxelno","","846","","What sound did you hear?","0","","","1","INDUCTION-JUDGMENT","left","0","","","","","","","","","","","","","","","",""
"html-keyboard-response","47","81765","0.0-4.0-1.0-2.8","1","1","0ccoltklbhxelno","","null","","<p style=""color:green;""><b>Correct!</b></p>","","null","","","","","","","","","","","","","","","","","","","","",""
"audio-keyboard-response","48","82571","0.0-4.0-1.0-0.9","1","1","0ccoltklbhxelno","","null","","sounds/induction/left/su_SWS.wav","","null","","","","","","","","","","","","","","","","","","","","",""
"html-button-response","49","83810","0.0-4.0-1.0-1.9","1","1","0ccoltklbhxelno","","1238","","What sound did you hear?","0","","","1","INDUCTION-JUDGMENT","left","0","","","","","","","","","","","","","","","",""
"html-keyboard-response","50","84812","0.0-4.0-1.0-2.9","1","1","0ccoltklbhxelno","","null","","<p style=""color:green;""><b>Correct!</b></p>","","null","","","","","","","","","","","","","","","","","","","","",""
"audio-keyboard-response","51","85621","0.0-4.0-1.0-0.10","1","1","0ccoltklbhxelno","","null","","sounds/induction/right/fu_SWS.wav","","null","","","","","","","","","","","","","","","","","","","","",""
"html-button-response","52","86381","0.0-4.0-1.0-1.10","1","1","0ccoltklbhxelno","","757.9999999999709","","What sound did you hear?","0","","","1","INDUCTION-JUDGMENT","right","0","","","","","","","","","","","","","","","",""
"html-keyboard-response","53","87384","0.0-4.0-1.0-2.10","1","1","0ccoltklbhxelno","","null","","<p style=""color:green;""><b>Correct!</b></p>","","null","","","","","","","","","","","","","","","","","","","","",""
"audio-keyboard-response","54","88192","0.0-4.0-1.0-0.11","1","1","0ccoltklbhxelno","","null","","sounds/induction/right/ge_SWS.wav","","null","","","","","","","","","","","","","","","","","","","","",""
"html-button-response","55","89147","0.0-4.0-1.0-1.11","1","1","0ccoltklbhxelno","","952.9999999999709","","What sound did you hear?","0","","","1","INDUCTION-JUDGMENT","right","0","","","","","","","","","","","","","","","",""
"html-keyboard-response","56","90150","0.0-4.0-1.0-2.11","1","1","0ccoltklbhxelno","","null","","<p style=""color:green;""><b>Correct!</b></p>","","null","","","","","","","","","","","","","","","","","","","","",""
"audio-keyboard-response","57","90955","0.0-4.0-1.0-0.12","1","1","0ccoltklbhxelno","","null","","sounds/induction/right/fu_SWS.wav","","null","","","","","","","","","","","","","","","","","","","","",""
"html-button-response","58","92091","0.0-4.0-1.0-1.12","1","1","0ccoltklbhxelno","","1134.999999999971","","What sound did you hear?","0","","","1","INDUCTION-JUDGMENT","right","0","","","","","","","","","","","","","","","",""
"html-keyboard-response","59","93094","0.0-4.0-1.0-2.12","1","1","0ccoltklbhxelno","","null","","<p style=""color:green;""><b>Correct!</b></p>","","null","","","","","","","","","","","","","","","","","","","","",""
"audio-keyboard-response","60","93899","0.0-4.0-1.0-0.13","1","1","0ccoltklbhxelno","","null","","sounds/induction/left/ru_SWS.wav","","null","","","","","","","","","","","","","","","","","","","","",""
"html-button-response","61","94565","0.0-4.0-1.0-1.13","1","1","0ccoltklbhxelno","","665","","What sound did you hear?","0","","","1","INDUCTION-JUDGMENT","left","0","","","","","","","","","","","","","","","",""
"html-keyboard-response","62","95568","0.0-4.0-1.0-2.13","1","1","0ccoltklbhxelno","","null","","<p style=""color:green;""><b>Correct!</b></p>","","null","","","","","","","","","","","","","","","","","","","","",""
"audio-keyboard-response","63","96373","0.0-4.0-1.0-0.14","1","1","0ccoltklbhxelno","","null","","sounds/induction/left/ti_SWS.wav","","null","","","","","","","","","","","","","","","","","","","","",""
"html-button-response","64","97451","0.0-4.0-1.0-1.14","1","1","0ccoltklbhxelno","","1077","","What sound did you hear?","0","","","1","INDUCTION-JUDGMENT","left","0","","","","","","","","","","","","","","","",""
"html-keyboard-response","65","98455","0.0-4.0-1.0-2.14","1","1","0ccoltklbhxelno","","null","","<p style=""color:green;""><b>Correct!</b></p>","","null","","","","","","","","","","","","","","","","","","","","",""
"audio-keyboard-response","66","99264","0.0-4.0-1.0-0.15","1","1","0ccoltklbhxelno","","null","","sounds/induction/right/re_SWS.wav","","null","","","","","","","","","","","","","","","","","","","","",""
"html-button-response","67","100160","0.0-4.0-1.0-1.15","1","1","0ccoltklbhxelno","","893.9999999999709","","What sound did you hear?","1","","","1","INDUCTION-JUDGMENT","right","1","","","","","","","","","","","","","","","",""
"html-keyboard-response","68","101162","0.0-4.0-1.0-2.15","1","1","0ccoltklbhxelno","","null","","<p style=""color:green;""><b>Correct!</b></p>","","null","","","","","","","","","","","","","","","","","","","","",""
"audio-keyboard-response","69","101973","0.0-4.0-1.0-0.16","1","1","0ccoltklbhxelno","","null","","sounds/induction/left/re_SWS.wav","","null","","","","","","","","","","","","","","","","","","","","",""
"html-button-response","70","103005","0.0-4.0-1.0-1.16","1","1","0ccoltklbhxelno","","1030","","What sound did you hear?","0","","","1","INDUCTION-JUDGMENT","left","0","","","","","","","","","","","","","","","",""
"html-keyboard-response","71","104007","0.0-4.0-1.0-2.16","1","1","0ccoltklbhxelno","","null","","<p style=""color:green;""><b>Correct!</b></p>","","null","","","","","","","","","","","","","","","","","","","","",""
"audio-keyboard-response","72","104811","0.0-4.0-1.0-0.17","1","1","0ccoltklbhxelno","","null","","sounds/induction/right/ni_SWS.wav","","null","","","","","","","","","","","","","","","","","","","","",""
"html-button-response","73","105666","0.0-4.0-1.0-1.17","1","1","0ccoltklbhxelno","","854","","What sound did you hear?","0","","","1","INDUCTION-JUDGMENT","right","0","","","","","","","","","","","","","","","",""
"html-keyboard-response","74","106669","0.0-4.0-1.0-2.17","1","1","0ccoltklbhxelno","","null","","<p style=""color:green;""><b>Correct!</b></p>","","null","","","","","","","","","","","","","","","","","","","","",""
"audio-keyboard-response","75","107477","0.0-4.0-1.0-0.18","1","1","0ccoltklbhxelno","","null","","sounds/induction/left/ni_SWS.wav","","null","","","","","","","","","","","","","","","","","","","","",""
"html-button-response","76","108381","0.0-4.0-1.0-1.18","1","1","0ccoltklbhxelno","","902","","What sound did you hear?","1","","","1","INDUCTION-JUDGMENT","left","1","","","","","","","","","","","","","","","",""
"html-keyboard-response","77","109384","0.0-4.0-1.0-2.18","1","1","0ccoltklbhxelno","","null","","<p style=""color:green;""><b>Correct!</b></p>","","null","","","","","","","","","","","","","","","","","","","","",""
"audio-keyboard-response","78","110186","0.0-4.0-1.0-0.19","1","1","0ccoltklbhxelno","","null","","sounds/induction/left/ge_SWS.wav","","null","","","","","","","","","","","","","","","","","","","","",""
"html-button-response","79","111123","0.0-4.0-1.0-1.19","1","1","0ccoltklbhxelno","","935","","What sound did you hear?","0","","","0","INDUCTION-JUDGMENT","left","1","","","","","","","","","","","","","","","",""
"html-keyboard-response","80","112126","0.0-4.0-1.0-2.19","1","1","0ccoltklbhxelno","","null","","<p style=""color:red;""><b>Incorrect!</b></p>","","null","","","","","","","","","","","","","","","","","","","","",""
"audio-keyboard-response","81","112928","0.0-4.0-1.0-0.20","1","1","0ccoltklbhxelno","","null","","sounds/induction/left/fu_SWS.wav","","null","","","","","","","","","","","","","","","","","","","","",""
"html-button-response","82","113831","0.0-4.0-1.0-1.20","1","1","0ccoltklbhxelno","","903","","What sound did you hear?","1","","","1","INDUCTION-JUDGMENT","left","1","","","","","","","","","","","","","","","",""
"html-keyboard-response","83","114835","0.0-4.0-1.0-2.20","1","1","0ccoltklbhxelno","","null","","<p style=""color:green;""><b>Correct!</b></p>","","null","","","","","","","","","","","","","","","","","","","","",""
"audio-keyboard-response","84","115637","0.0-4.0-1.0-0.21","1","1","0ccoltklbhxelno","","null","","sounds/induction/right/ru_SWS.wav","","null","","","","","","","","","","","","","","","","","","","","",""
"html-button-response","85","116329","0.0-4.0-1.0-1.21","1","1","0ccoltklbhxelno","","691","","What sound did you hear?","1","","","1","INDUCTION-JUDGMENT","right","1","","","","","","","","","","","","","","","",""
"html-keyboard-response","86","117332","0.0-4.0-1.0-2.21","1","1","0ccoltklbhxelno","","null","","<p style=""color:green;""><b>Correct!</b></p>","","null","","","","","","","","","","","","","","","","","","","","",""
"audio-keyboard-response","87","118144","0.0-4.0-1.0-0.22","1","1","0ccoltklbhxelno","","null","","sounds/induction/right/me_SWS.wav","","null","","","","","","","","","","","","","","","","","","","","",""
"html-button-response","88","119159","0.0-4.0-1.0-1.22","1","1","0ccoltklbhxelno","","1013.0000000000291","","What sound did you hear?","1","","","0","INDUCTION-JUDGMENT","right","0","","","","","","","","","","","","","","","",""
"html-keyboard-response","89","120162","0.0-4.0-1.0-2.22","1","1","0ccoltklbhxelno","","null","","<p style=""color:red;""><b>Incorrect!</b></p>","","null","","","","","","","","","","","","","","","","","","","","",""
"audio-keyboard-response","90","120970","0.0-4.0-1.0-0.23","1","1","0ccoltklbhxelno","","null","","sounds/induction/left/fe_SWS.wav","","null","","","","","","","","","","","","","","","","","","","","",""
"html-button-response","91","121923","0.0-4.0-1.0-1.23","1","1","0ccoltklbhxelno","","952","","What sound did you hear?","0","","","0","INDUCTION-JUDGMENT","left","1","","","","","","","","","","","","","","","",""
"html-keyboard-response","92","122926","0.0-4.0-1.0-2.23","1","1","0ccoltklbhxelno","","null","","<p style=""color:red;""><b>Incorrect!</b></p>","","null","","","","","","","","","","","","","","","","","","","","",""
"audio-keyboard-response","93","123733","0.0-4.0-1.0-0.24","1","1","0ccoltklbhxelno","","null","","sounds/induction/right/pu_SWS.wav","","null","","","","","","","","","","","","","","","","","","","","",""
"html-button-response","94","124787","0.0-4.0-1.0-1.24","1","1","0ccoltklbhxelno","","1053","","What sound did you hear?","1","","","1","INDUCTION-JUDGMENT","right","1","","","","","","","","","","","","","","","",""
"html-keyboard-response","95","125790","0.0-4.0-1.0-2.24","1","1","0ccoltklbhxelno","","null","","<p style=""color:green;""><b>Correct!</b></p>","","null","","","","","","","","","","","","","","","","","","","","",""
"audio-keyboard-response","96","126591","0.0-4.0-1.0-0.25","1","1","0ccoltklbhxelno","","null","","sounds/induction/left/ru_SWS.wav","","null","","","","","","","","","","","","","","","","","","","","",""
"html-button-response","97","127231","0.0-4.0-1.0-1.25","1","1","0ccoltklbhxelno","","638.9999999999709","","What sound did you hear?","0","","","1","INDUCTION-JUDGMENT","left","0","","","","","","","","","","","","","","","",""
"html-keyboard-response","98","128233","0.0-4.0-1.0-2.25","1","1","0ccoltklbhxelno","","null","","<p style=""color:green;""><b>Correct!</b></p>","","null","","","","","","","","","","","","","","","","","","","","",""
"audio-keyboard-response","99","129034","0.0-4.0-1.0-0.26","1","1","0ccoltklbhxelno","","null","","sounds/induction/left/ko_SWS.wav","","null","","","","","","","","","","","","","","","","","","","","",""
"html-button-response","100","129771","0.0-4.0-1.0-1.26","1","1","0ccoltklbhxelno","","736.0000000000291","","What sound did you hear?","0","","","0","INDUCTION-JUDGMENT","left","1","","","","","","","","","","","","","","","",""
"html-keyboard-response","101","130773","0.0-4.0-1.0-2.26","1","1","0ccoltklbhxelno","","null","","<p style=""color:red;""><b>Incorrect!</b></p>","","null","","","","","","","","","","","","","","","","","","","","",""
"audio-keyboard-response","102","131583","0.0-4.0-1.0-0.27","1","1","0ccoltklbhxelno","","null","","sounds/induction/right/ti_SWS.wav","","null","","","","","","","","","","","","","","","","","","","","",""
"html-button-response","103","132510","0.0-4.0-1.0-1.27","1","1","0ccoltklbhxelno","","926","","What sound did you hear?","1","","","1","INDUCTION-JUDGMENT","right","1","","","","","","","","","","","","","","","",""
"html-keyboard-response","104","133512","0.0-4.0-1.0-2.27","1","1","0ccoltklbhxelno","","null","","<p style=""color:green;""><b>Correct!</b></p>","","null","","","","","","","","","","","","","","","","","","","","",""
"audio-keyboard-response","105","134314","0.0-4.0-1.0-0.28","1","1","0ccoltklbhxelno","","null","","sounds/induction/right/ti_SWS.wav","","null","","","","","","","","","","","","","","","","","","","","",""
"html-button-response","106","135888","0.0-4.0-1.0-1.28","1","1","0ccoltklbhxelno","","1573","","What sound did you hear?","0","","","0","INDUCTION-JUDGMENT","right","1","","","","","","","","","","","","","","","",""
"html-keyboard-response","107","136890","0.0-4.0-1.0-2.28","1","1","0ccoltklbhxelno","","null","","<p style=""color:red;""><b>Incorrect!</b></p>","","null","","","","","","","","","","","","","","","","","","","","",""
"audio-keyboard-response","108","137695","0.0-4.0-1.0-0.29","1","1","0ccoltklbhxelno","","null","","sounds/induction/right/ta_SWS.wav","","null","","","","","","","","","","","","","","","","","","","","",""
"html-button-response","109","139385","0.0-4.0-1.0-1.29","1","1","0ccoltklbhxelno","","1689","","What sound did you hear?","1","","","1","INDUCTION-JUDGMENT","right","1","","","","","","","","","","","","","","","",""
"html-keyboard-response","110","140387","0.0-4.0-1.0-2.29","1","1","0ccoltklbhxelno","","null","","<p style=""color:green;""><b>Correct!</b></p>","","null","","","","","","","","","","","","","","","","","","","","",""
"audio-keyboard-response","111","141194","0.0-4.0-1.0-0.30","1","1","0ccoltklbhxelno","","null","","sounds/induction/right/me_SWS.wav","","null","","","","","","","","","","","","","","","","","","","","",""
"html-button-response","112","142298","0.0-4.0-1.0-1.30","1","1","0ccoltklbhxelno","","1103","","What sound did you hear?","0","","","1","INDUCTION-JUDGMENT","right","0","","","","","","","","","","","","","","","",""
"html-keyboard-response","113","143301","0.0-4.0-1.0-2.30","1","1","0ccoltklbhxelno","","null","","<p style=""color:green;""><b>Correct!</b></p>","","null","","","","","","","","","","","","","","","","","","","","",""
"audio-keyboard-response","114","144106","0.0-4.0-1.0-0.31","1","1","0ccoltklbhxelno","","null","","sounds/induction/left/pu_SWS.wav","","null","","","","","","","","","","","","","","","","","","","","",""
"html-button-response","115","145338","0.0-4.0-1.0-1.31","1","1","0ccoltklbhxelno","","1231","","What sound did you hear?","0","","","1","INDUCTION-JUDGMENT","left","0","","","","","","","","","","","","","","","",""
"html-keyboard-response","116","146340","0.0-4.0-1.0-2.31","1","1","0ccoltklbhxelno","","null","","<p style=""color:green;""><b>Correct!</b></p>","","null","","","","","","","","","","","","","","","","","","","","",""
"audio-keyboard-response","117","147146","0.0-4.0-1.0-0.32","1","1","0ccoltklbhxelno","","null","","sounds/induction/left/ti_SWS.wav","","null","","","","","","","","","","","","","","","","","","","","",""
"html-button-response","118","148325","0.0-4.0-1.0-1.32","1","1","0ccoltklbhxelno","","1179","","What sound did you hear?","0","","","1","INDUCTION-JUDGMENT","left","0","","","","","","","","","","","","","","","",""
"html-keyboard-response","119","149327","0.0-4.0-1.0-2.32","1","1","0ccoltklbhxelno","","null","","<p style=""color:green;""><b>Correct!</b></p>","","null","","","","","","","","","","","","","","","","","","","","",""
"audio-keyboard-response","120","150132","0.0-4.0-1.0-0.33","1","1","0ccoltklbhxelno","","null","","sounds/induction/left/me_SWS.wav","","null","","","","","","","","","","","","","","","","","","","","",""
"html-button-response","121","151213","0.0-4.0-1.0-1.33","1","1","0ccoltklbhxelno","","1079","","What sound did you hear?","0","","","0","INDUCTION-JUDGMENT","left","1","","","","","","","","","","","","","","","",""
"html-keyboard-response","122","152214","0.0-4.0-1.0-2.33","1","1","0ccoltklbhxelno","","null","","<p style=""color:red;""><b>Incorrect!</b></p>","","null","","","","","","","","","","","","","","","","","","","","",""
"audio-keyboard-response","123","153023","0.0-4.0-1.0-0.34","1","1","0ccoltklbhxelno","","null","","sounds/induction/left/me_SWS.wav","","null","","","","","","","","","","","","","","","","","","","","",""
"html-button-response","124","153862","0.0-4.0-1.0-1.34","1","1","0ccoltklbhxelno","","837.9999999999709","","What sound did you hear?","0","","","0","INDUCTION-JUDGMENT","left","1","","","","","","","","","","","","","","","",""
"html-keyboard-response","125","154864","0.0-4.0-1.0-2.34","1","1","0ccoltklbhxelno","","null","","<p style=""color:red;""><b>Incorrect!</b></p>","","null","","","","","","","","","","","","","","","","","","","","",""
"audio-keyboard-response","126","155668","0.0-4.0-1.0-0.35","1","1","0ccoltklbhxelno","","null","","sounds/induction/right/su_SWS.wav","","null","","","","","","","","","","","","","","","","","","","","",""
"html-button-response","127","157237","0.0-4.0-1.0-1.35","1","1","0ccoltklbhxelno","","1566","","What sound did you hear?","1","","","1","INDUCTION-JUDGMENT","right","1","","","","","","","","","","","","","","","",""
"html-keyboard-response","128","158239","0.0-4.0-1.0-2.35","1","1","0ccoltklbhxelno","","null","","<p style=""color:green;""><b>Correct!</b></p>","","null","","","","","","","","","","","","","","","","","","","","",""
"audio-keyboard-response","129","159050","0.0-4.0-1.0-0.36","1","1","0ccoltklbhxelno","","null","","sounds/induction/right/fe_SWS.wav","","null","","","","","","","","","","","","","","","","","","","","",""
"html-button-response","130","160762","0.0-4.0-1.0-1.36","1","1","0ccoltklbhxelno","","1711.0000000000582","","What sound did you hear?","0","","","1","INDUCTION-JUDGMENT","right","0","","","","","","","","","","","","","","","",""
"html-keyboard-response","131","161763","0.0-4.0-1.0-2.36","1","1","0ccoltklbhxelno","","null","","<p style=""color:green;""><b>Correct!</b></p>","","null","","","","","","","","","","","","","","","","","","","","",""
"audio-keyboard-response","132","162570","0.0-4.0-1.0-0.37","1","1","0ccoltklbhxelno","","null","","sounds/induction/left/fu_SWS.wav","","null","","","","","","","","","","","","","","","","","","","","",""
"html-button-response","133","163700","0.0-4.0-1.0-1.37","1","1","0ccoltklbhxelno","","1130","","What sound did you hear?","1","","","1","INDUCTION-JUDGMENT","left","1","","","","","","","","","","","","","","","",""
"html-keyboard-response","134","164702","0.0-4.0-1.0-2.37","1","1","0ccoltklbhxelno","","null","","<p style=""color:green;""><b>Correct!</b></p>","","null","","","","","","","","","","","","","","","","","","","","",""
"audio-keyboard-response","135","165514","0.0-4.0-1.0-0.38","1","1","0ccoltklbhxelno","","null","","sounds/induction/right/ta_SWS.wav","","null","","","","","","","","","","","","","","","","","","","","",""
"html-button-response","136","168465","0.0-4.0-1.0-1.38","1","1","0ccoltklbhxelno","","2951","","What sound did you hear?","1","","","1","INDUCTION-JUDGMENT","right","1","","","","","","","","","","","","","","","",""
"html-keyboard-response","137","169467","0.0-4.0-1.0-2.38","1","1","0ccoltklbhxelno","","null","","<p style=""color:green;""><b>Correct!</b></p>","","null","","","","","","","","","","","","","","","","","","","","",""
"audio-keyboard-response","138","170271","0.0-4.0-1.0-0.39","1","1","0ccoltklbhxelno","","null","","sounds/induction/left/ni_SWS.wav","","null","","","","","","","","","","","","","","","","","","","","",""
"html-button-response","139","171663","0.0-4.0-1.0-1.39","1","1","0ccoltklbhxelno","","1391","","What sound did you hear?","1","","","1","INDUCTION-JUDGMENT","left","1","","","","","","","","","","","","","","","",""
"html-keyboard-response","140","172665","0.0-4.0-1.0-2.39","1","1","0ccoltklbhxelno","","null","","<p style=""color:green;""><b>Correct!</b></p>","","null","","","","","","","","","","","","","","","","","","","","",""
"audio-keyboard-response","141","173471","0.0-4.0-1.0-0.40","1","1","0ccoltklbhxelno","","null","","sounds/induction/right/ge_SWS.wav","","null","","","","","","","","","","","","","","","","","","","","",""
"html-button-response","142","175643","0.0-4.0-1.0-1.40","1","1","0ccoltklbhxelno","","2171","","What sound did you hear?","0","","","1","INDUCTION-JUDGMENT","right","0","","","","","","","","","","","","","","","",""
"html-keyboard-response","143","176646","0.0-4.0-1.0-2.40","1","1","0ccoltklbhxelno","","null","","<p style=""color:green;""><b>Correct!</b></p>","","null","","","","","","","","","","","","","","","","","","","","",""
"audio-keyboard-response","144","177449","0.0-4.0-1.0-0.41","1","1","0ccoltklbhxelno","","null","","sounds/induction/right/pu_SWS.wav","","null","","","","","","","","","","","","","","","","","","","","",""
"html-button-response","145","178993","0.0-4.0-1.0-1.41","1","1","0ccoltklbhxelno","","1543","","What sound did you hear?","1","","","1","INDUCTION-JUDGMENT","right","1","","","","","","","","","","","","","","","",""
"html-keyboard-response","146","179995","0.0-4.0-1.0-2.41","1","1","0ccoltklbhxelno","","null","","<p style=""color:green;""><b>Correct!</b></p>","","null","","","","","","","","","","","","","","","","","","","","",""
"audio-keyboard-response","147","180799","0.0-4.0-1.0-0.42","1","1","0ccoltklbhxelno","","null","","sounds/induction/left/re_SWS.wav","","null","","","","","","","","","","","","","","","","","","","","",""
"html-button-response","148","181880","0.0-4.0-1.0-1.42","1","1","0ccoltklbhxelno","","1080","","What sound did you hear?","0","","","1","INDUCTION-JUDGMENT","left","0","","","","","","","","","","","","","","","",""
"html-keyboard-response","149","182882","0.0-4.0-1.0-2.42","1","1","0ccoltklbhxelno","","null","","<p style=""color:green;""><b>Correct!</b></p>","","null","","","","","","","","","","","","","","","","","","","","",""
"audio-keyboard-response","150","183689","0.0-4.0-1.0-0.43","1","1","0ccoltklbhxelno","","null","","sounds/induction/right/ko_SWS.wav","","null","","","","","","","","","","","","","","","","","","","","",""
"html-button-response","151","184734","0.0-4.0-1.0-1.43","1","1","0ccoltklbhxelno","","1043","","What sound did you hear?","0","","","1","INDUCTION-JUDGMENT","right","0","","","","","","","","","","","","","","","",""
"html-keyboard-response","152","185736","0.0-4.0-1.0-2.43","1","1","0ccoltklbhxelno","","null","","<p style=""color:green;""><b>Correct!</b></p>","","null","","","","","","","","","","","","","","","","","","","","",""
"audio-keyboard-response","153","186537","0.0-4.0-1.0-0.44","1","1","0ccoltklbhxelno","","null","","sounds/induction/right/ni_SWS.wav","","null","","","","","","","","","","","","","","","","","","","","",""
"html-button-response","154","187273","0.0-4.0-1.0-1.44","1","1","0ccoltklbhxelno","","735.0000000000582","","What sound did you hear?","0","","","1","INDUCTION-JUDGMENT","right","0","","","","","","","","","","","","","","","",""
"html-keyboard-response","155","188276","0.0-4.0-1.0-2.44","1","1","0ccoltklbhxelno","","null","","<p style=""color:green;""><b>Correct!</b></p>","","null","","","","","","","","","","","","","","","","","","","","",""
"audio-keyboard-response","156","189087","0.0-4.0-1.0-0.45","1","1","0ccoltklbhxelno","","null","","sounds/induction/right/ko_SWS.wav","","null","","","","","","","","","","","","","","","","","","","","",""
"html-button-response","157","190081","0.0-4.0-1.0-1.45","1","1","0ccoltklbhxelno","","994","","What sound did you hear?","0","","","1","INDUCTION-JUDGMENT","right","0","","","","","","","","","","","","","","","",""
"html-keyboard-response","158","191084","0.0-4.0-1.0-2.45","1","1","0ccoltklbhxelno","","null","","<p style=""color:green;""><b>Correct!</b></p>","","null","","","","","","","","","","","","","","","","","","","","",""
"audio-keyboard-response","159","191892","0.0-4.0-1.0-0.46","1","1","0ccoltklbhxelno","","null","","sounds/induction/right/fe_SWS.wav","","null","","","","","","","","","","","","","","","","","","","","",""
"html-button-response","160","192960","0.0-4.0-1.0-1.46","1","1","0ccoltklbhxelno","","1067","","What sound did you hear?","0","","","1","INDUCTION-JUDGMENT","right","0","","","","","","","","","","","","","","","",""
"html-keyboard-response","161","193962","0.0-4.0-1.0-2.46","1","1","0ccoltklbhxelno","","null","","<p style=""color:green;""><b>Correct!</b></p>","","null","","","","","","","","","","","","","","","","","","","","",""
"audio-keyboard-response","162","194772","0.0-4.0-1.0-0.47","1","1","0ccoltklbhxelno","","null","","sounds/induction/left/ko_SWS.wav","","null","","","","","","","","","","","","","","","","","","","","",""
"html-button-response","163","196304","0.0-4.0-1.0-1.47","1","1","0ccoltklbhxelno","","1530.9999999999418","","What sound did you hear?","1","","","1","INDUCTION-JUDGMENT","left","1","","","","","","","","","","","","","","","",""
"html-keyboard-response","164","197307","0.0-4.0-1.0-2.47","1","1","0ccoltklbhxelno","","null","","<p style=""color:green;""><b>Correct!</b></p>","","null","","","","","","","","","","","","","","","","","","","","",""
"html-button-response","165","217119","0.0-5.0-0.0","1","1","0ccoltklbhxelno","","19308.99999999994","","<p>Thank you for your answers.</p><p>You will now listen to similar sounds. The main difference is that the sounds will be longer and will make up complete sentences.</p><p>Please listen carefully to each sentence. After each sentence, you will be asked to type back what you heard to the best of your ability. After you provide your response, you will be given feedback about the correct answer.</p><p>There are 10 sentences in total.","0","","","","","","","","","","","","","","","","","","","","","",""
"audio-keyboard-response","166","219710","0.0-5.0-1.0-0.0","1","1","0ccoltklbhxelno","","null","","sounds/sentences/left/14_03_cfSWS.wav","","null","","","","","","","","","","","","","","","","","","","","",""
"sentence-resp","167","233636","0.0-5.0-1.0-1.0","1","1","0ccoltklbhxelno","","13924","","","","","","","SWS-SENT-RESPONSE","","","{""Q0"":""I picked a white rose without leaves""}","Pluck the bright rose without leaves.","pluck,bright,rose,without,leaves","I PICKED A WHITE ROSE WITHOUT LEAVES","0","0","1","1","1","3","0.6","","","","",""
"html-keyboard-response","168","234890","0.0-5.0-1.0-2.0","1","1","0ccoltklbhxelno","","null","","","","null","","","","","","","","","","","","","","","","","","","","",""
"audio-keyboard-response","169","236979","0.0-5.0-1.0-3.0","1","1","0ccoltklbhxelno","","null","","sounds/sentences/left/14_03_cfSWS.wav","","null","","","","","","","","","","","","","","","","","","","","",""
"html-keyboard-response","170","237982","0.0-5.0-1.0-4.0","1","1","0ccoltklbhxelno","","null","","","","null","","","","","","","","","","","","","","","","","","","","",""
"html-button-response","171","239892","0.0-5.0-1.0-5.0","1","1","0ccoltklbhxelno","","1408","","<p>Press the button below when you are ready to continue.</p>","0","","","","","","","","","","","","","","","","","","","","","",""
"audio-keyboard-response","172","242654","0.0-5.0-1.0-0.1","1","1","0ccoltklbhxelno","","null","","sounds/sentences/right/14_08_cfSWS.wav","","null","","","","","","","","","","","","","","","","","","","","",""
"sentence-resp","173","255471","0.0-5.0-1.0-1.1","1","1","0ccoltklbhxelno","","12815","","","","","","","SWS-SENT-RESPONSE","","","{""Q0"":""washing and drying is free to new men""}","Clothes and lodging are free to new men.","clothes,lodging,free,new,men","WASHING AND DRYING IS FREE TO NEW MEN","0","0","1","1","1","3","0.6","","","","",""
"html-keyboard-response","174","256724","0.0-5.0-1.0-2.1","1","1","0ccoltklbhxelno","","null","","","","null","","","","","","","","","","","","","","","","","","","","",""
"audio-keyboard-response","175","258984","0.0-5.0-1.0-3.1","1","1","0ccoltklbhxelno","","null","","sounds/sentences/right/14_08_cfSWS.wav","","null","","","","","","","","","","","","","","","","","","","","",""
"html-keyboard-response","176","259987","0.0-5.0-1.0-4.1","1","1","0ccoltklbhxelno","","null","","","","null","","","","","","","","","","","","","","","","","","","","",""
"html-button-response","177","261355","0.0-5.0-1.0-5.1","1","1","0ccoltklbhxelno","","865","","<p>Press the button below when you are ready to continue.</p>","0","","","","","","","","","","","","","","","","","","","","","",""
"audio-keyboard-response","178","264179","0.0-5.0-1.0-0.2","1","1","0ccoltklbhxelno","","null","","sounds/sentences/left/14_02_cfSWS.wav","","null","","","","","","","","","","","","","","","","","","","","",""
"sentence-resp","179","275674","0.0-5.0-1.0-1.2","1","1","0ccoltklbhxelno","","11494","","","","","","","SWS-SENT-RESPONSE","","","{""Q0"":""he said the same phase thirty times""}","He said the same phrase thirty times.","said,same,phrase,thirty,times","HE SAID THE SAME PHASE THIRTY TIMES","1","1","0","1","1","4","0.8","","","","",""
"html-keyboard-response","180","276927","0.0-5.0-1.0-2.2","1","1","0ccoltklbhxelno","","null","","","","null","","","","","","","","","","","","","","","","","","","","",""
"audio-keyboard-response","181","279251","0.0-5.0-1.0-3.2","1","1","0ccoltklbhxelno","","null","","sounds/sentences/left/14_02_cfSWS.wav","","null","","","","","","","","","","","","","","","","","","","","",""
"html-keyboard-response","182","280254","0.0-5.0-1.0-4.2","1","1","0ccoltklbhxelno","","null","","","","null","","","","","","","","","","","","","","","","","","","","",""
"html-button-response","183","281480","0.0-5.0-1.0-5.2","1","1","0ccoltklbhxelno","","724","","<p>Press the button below when you are ready to continue.</p>","0","","","","","","","","","","","","","","","","","","","","","",""
"audio-keyboard-response","184","284499","0.0-5.0-1.0-0.3","1","1","0ccoltklbhxelno","","null","","sounds/sentences/right/14_10_cfSWS.wav","","null","","","","","","","","","","","","","","","","","","","","",""
"sentence-resp","185","300609","0.0-5.0-1.0-1.3","1","1","0ccoltklbhxelno","","16108","","","","","","","SWS-SENT-RESPONSE","","","{""Q0"":""four is a small wine with a smoky taste""}","Port is a strong wine with a smoky taste.","port,strong,wine,smoky,taste","FOUR IS A SMALL WINE WITH A SMOKY TASTE","0","0","1","1","1","3","0.6","","","","",""
"html-keyboard-response","186","301861","0.0-5.0-1.0-2.3","1","1","0ccoltklbhxelno","","null","","","","null","","","","","","","","","","","","","","","","","","","","",""
"audio-keyboard-response","187","304370","0.0-5.0-1.0-3.3","1","1","0ccoltklbhxelno","","null","","sounds/sentences/right/14_10_cfSWS.wav","","null","","","","","","","","","","","","","","","","","","","","",""
"html-keyboard-response","188","305373","0.0-5.0-1.0-4.3","1","1","0ccoltklbhxelno","","null","","","","null","","","","","","","","","","","","","","","","","","","","",""
"html-button-response","189","306760","0.0-5.0-1.0-5.3","1","1","0ccoltklbhxelno","","885.0000000000582","","<p>Press the button below when you are ready to continue.</p>","0","","","","","","","","","","","","","","","","","","","","","",""
"audio-keyboard-response","190","309511","0.0-5.0-1.0-0.4","1","1","0ccoltklbhxelno","","null","","sounds/sentences/right/14_06_cfSWS.wav","","null","","","","","","","","","","","","","","","","","","","","",""
"sentence-resp","191","323262","0.0-5.0-1.0-1.4","1","1","0ccoltklbhxelno","","13750","","","","","","","SWS-SENT-RESPONSE","","","{""Q0"":""relay your problems to the wise chief""}","Bring your problems to the wise chief.","bring,your,problems,wise,chief","RELAY YOUR PROBLEMS TO THE WISE CHIEF","0","1","1","1","1","4","0.8","","","","",""
"html-keyboard-response","192","324515","0.0-5.0-1.0-2.4","1","1","0ccoltklbhxelno","","null","","","","null","","","","","","","","","","","","","","","","","","","","",""
"audio-keyboard-response","193","326760","0.0-5.0-1.0-3.4","1","1","0ccoltklbhxelno","","null","","sounds/sentences/right/14_06_cfSWS.wav","","null","","","","","","","","","","","","","","","","","","","","",""
"html-keyboard-response","194","327762","0.0-5.0-1.0-4.4","1","1","0ccoltklbhxelno","","null","","","","null","","","","","","","","","","","","","","","","","","","","",""
"html-button-response","195","329343","0.0-5.0-1.0-5.4","1","1","0ccoltklbhxelno","","1078","","<p>Press the button below when you are ready to continue.</p>","0","","","","","","","","","","","","","","","","","","","","","",""
"audio-keyboard-response","196","331901","0.0-5.0-1.0-0.5","1","1","0ccoltklbhxelno","","null","","sounds/sentences/left/14_04_cfSWS.wav","","null","","","","","","","","","","","","","","","","","","","","",""
"sentence-resp","197","343284","0.0-5.0-1.0-1.5","1","1","0ccoltklbhxelno","","11382","","","","","","","SWS-SENT-RESPONSE","","","{""Q0"":""two plus seven is less than ten""}","Two plus seven is less than ten.","two,plus,seven,less,ten","TWO PLUS SEVEN IS LESS THAN TEN","1","1","1","1","1","5","1","","","","",""
"html-keyboard-response","198","344536","0.0-5.0-1.0-2.5","1","1","0ccoltklbhxelno","","null","","","","null","","","","","","","","","","","","","","","","","","","","",""
"audio-keyboard-response","199","346589","0.0-5.0-1.0-3.5","1","1","0ccoltklbhxelno","","null","","sounds/sentences/left/14_04_cfSWS.wav","","null","","","","","","","","","","","","","","","","","","","","",""
"html-keyboard-response","200","347591","0.0-5.0-1.0-4.5","1","1","0ccoltklbhxelno","","null","","","","null","","","","","","","","","","","","","","","","","","","","",""
"html-button-response","201","349515","0.0-5.0-1.0-5.5","1","1","0ccoltklbhxelno","","1421.9999999999418","","<p>Press the button below when you are ready to continue.</p>","0","","","","","","","","","","","","","","","","","","","","","",""
"audio-keyboard-response","202","352508","0.0-5.0-1.0-0.6","1","1","0ccoltklbhxelno","","null","","sounds/sentences/left/14_05_cfSWS.wav","","null","","","","","","","","","","","","","","","","","","","","",""
"sentence-resp","203","363499","0.0-5.0-1.0-1.6","1","1","0ccoltklbhxelno","","10990","","","","","","","SWS-SENT-RESPONSE","","","{""Q0"":""the clothes even in the eyes of the sweet girl""}","The glow deepened in the eyes of the sweet girl.","glow,deepened,eyes,sweet,girl","THE CLOTHES EVEN IN THE EYES OF THE SWEET GIRL","0","0","1","1","1","3","0.6","","","","",""
"html-keyboard-response","204","364753","0.0-5.0-1.0-2.6","1","1","0ccoltklbhxelno","","null","","","","null","","","","","","","","","","","","","","","","","","","","",""
"audio-keyboard-response","205","367250","0.0-5.0-1.0-3.6","1","1","0ccoltklbhxelno","","null","","sounds/sentences/left/14_05_cfSWS.wav","","null","","","","","","","","","","","","","","","","","","","","",""
"html-keyboard-response","206","368251","0.0-5.0-1.0-4.6","1","1","0ccoltklbhxelno","","null","","","","null","","","","","","","","","","","","","","","","","","","","",""
"html-button-response","207","369222","0.0-5.0-1.0-5.6","1","1","0ccoltklbhxelno","","470.0000000000582","","<p>Press the button below when you are ready to continue.</p>","0","","","","","","","","","","","","","","","","","","","","","",""
"audio-keyboard-response","208","372113","0.0-5.0-1.0-0.7","1","1","0ccoltklbhxelno","","null","","sounds/sentences/right/14_07_cfSWS.wav","","null","","","","","","","","","","","","","","","","","","","","",""
"sentence-resp","209","383723","0.0-5.0-1.0-1.7","1","1","0ccoltklbhxelno","","11608","","","","","","","SWS-SENT-RESPONSE","","","{""Q0"":""write a response to the friends you cherish""}","Write a fond note to the friend you cherish.","write,fond,note,friend,cherish","WRITE A RESPONSE TO THE FRIENDS YOU CHERISH","1","0","0","0","1","2","0.4","","","","",""
"html-keyboard-response","210","384976","0.0-5.0-1.0-2.7","1","1","0ccoltklbhxelno","","null","","","","null","","","","","","","","","","","","","","","","","","","","",""
"audio-keyboard-response","211","387367","0.0-5.0-1.0-3.7","1","1","0ccoltklbhxelno","","null","","sounds/sentences/right/14_07_cfSWS.wav","","null","","","","","","","","","","","","","","","","","","","","",""
"html-keyboard-response","212","388369","0.0-5.0-1.0-4.7","1","1","0ccoltklbhxelno","","null","","","","null","","","","","","","","","","","","","","","","","","","","",""
"html-button-response","213","389776","0.0-5.0-1.0-5.7","1","1","0ccoltklbhxelno","","906","","<p>Press the button below when you are ready to continue.</p>","0","","","","","","","","","","","","","","","","","","","","","",""
"audio-keyboard-response","214","392508","0.0-5.0-1.0-0.8","1","1","0ccoltklbhxelno","","null","","sounds/sentences/right/14_09_cfSWS.wav","","null","","","","","","","","","","","","","","","","","","","","",""
"sentence-resp","215","402786","0.0-5.0-1.0-1.8","1","1","0ccoltklbhxelno","","10277","","","","","","","SWS-SENT-RESPONSE","","","{""Q0"":""we frown when events take a bad turn""}","We frown when events take a bad turn.","frown,events,take,bad,turn","WE FROWN WHEN EVENTS TAKE A BAD TURN","1","1","1","1","1","5","1","","","","",""
"html-keyboard-response","216","404039","0.0-5.0-1.0-2.8","1","1","0ccoltklbhxelno","","null","","","","null","","","","","","","","","","","","","","","","","","","","",""
"audio-keyboard-response","217","406268","0.0-5.0-1.0-3.8","1","1","0ccoltklbhxelno","","null","","sounds/sentences/right/14_09_cfSWS.wav","","null","","","","","","","","","","","","","","","","","","","","",""
"html-keyboard-response","218","407269","0.0-5.0-1.0-4.8","1","1","0ccoltklbhxelno","","null","","","","null","","","","","","","","","","","","","","","","","","","","",""
"html-button-response","219","409566","0.0-5.0-1.0-5.8","1","1","0ccoltklbhxelno","","1794.9999999999418","","<p>Press the button below when you are ready to continue.</p>","0","","","","","","","","","","","","","","","","","","","","","",""
"audio-keyboard-response","220","412689","0.0-5.0-1.0-0.9","1","1","0ccoltklbhxelno","","null","","sounds/sentences/left/14_01_cfSWS.wav","","null","","","","","","","","","","","","","","","","","","","","",""
"sentence-resp","221","426474","0.0-5.0-1.0-1.9","1","1","0ccoltklbhxelno","","13784","","","","","","","SWS-SENT-RESPONSE","","","{""Q0"":""a crown is no small danger on a small swim""}","A cramp is no small danger on a swim.","cramp,no,small,danger,swim","A CROWN IS NO SMALL DANGER ON A SMALL SWIM","0","1","1","1","1","4","0.8","","","","",""
"html-keyboard-response","222","427728","0.0-5.0-1.0-2.9","1","1","0ccoltklbhxelno","","null","","","","null","","","","","","","","","","","","","","","","","","","","",""
"audio-keyboard-response","223","430353","0.0-5.0-1.0-3.9","1","1","0ccoltklbhxelno","","null","","sounds/sentences/left/14_01_cfSWS.wav","","null","","","","","","","","","","","","","","","","","","","","",""
"html-keyboard-response","224","431355","0.0-5.0-1.0-4.9","1","1","0ccoltklbhxelno","","null","","","","null","","","","","","","","","","","","","","","","","","","","",""
"html-button-response","225","432648","0.0-5.0-1.0-5.9","1","1","0ccoltklbhxelno","","791","","<p>Press the button below when you are ready to continue.</p>","0","","","","","","","","","","","","","","","","","","","","","",""
"html-keyboard-response","226","445977","0.0-6.0-0.0","1","1","0ccoltklbhxelno","","12826","","<p>In this part of the study, you will hear sounds similar to those you just heard.</p><p>Please focus on these sounds, as you may be asked questions about them later.</p><p>Occasionally, the sounds will pause for up to two seconds. When this happens, please press SPACEBAR as quickly as you can.</br>This helps ensure that you are paying attention to the sounds.</p><p>This part of the study will take about 12 minutes to complete, and you will be given the opportunity to take a couple of short breaks every few minutes.</p><p><strong>Press SPACEBAR to begin</strong></p>","","32","","","","","","","","","","","","","","","","","","","","",""
"html-keyboard-response","227","446979","0.0-6.0-1.0-0.0","1","1","0ccoltklbhxelno","","null","","<p style=""font-size: 40px;"">+</p>","","null","","","","","","","","","","","","","","","","","","","","",""
"html-keyboard-response","228","631980","0.0-6.0-1.0-1.0","1","1","0ccoltklbhxelno","","null","","","","null","","","SL-TRAIN","","","","","","","","","","","","","","2","null","null","sounds/A/TRAIN/SEQ__03.mp3","1"
"html-button-response","229","678900","0.0-6.0-1.0-2.0","1","1","0ccoltklbhxelno","","46918","","<p>You may take a short break if you wish.</p>","0","","","","","","","","","","","","","","","","","","","","","",""
"html-keyboard-response","230","679902","0.0-6.0-1.0-3.0","1","1","0ccoltklbhxelno","","null","","<p style=""font-size: 40px;"">+</p>","","null","","","","","","","","","","","","","","","","","","","","",""
"html-keyboard-response","231","864902","0.0-6.0-1.0-4.0","1","1","0ccoltklbhxelno","","null","","","","null","","","SL-TRAIN","","","","","","","","","","","","","","2","null","null","sounds/A/TRAIN/SEQ__10.mp3","4"
"html-button-response","232","868836","0.0-6.0-1.0-5.0","1","1","0ccoltklbhxelno","","3932","","<p>You may take a short break if you wish.</p>","0","","","","","","","","","","","","","","","","","","","","","",""
"html-keyboard-response","233","869838","0.0-6.0-1.0-6.0","1","1","0ccoltklbhxelno","","null","","<p style=""font-size: 40px;"">+</p>","","null","","","","","","","","","","","","","","","","","","","","",""
