"trial_type","trial_index","time_elapsed","internal_node_id","counterbalance","lang_instruct","ParticipantID","view_history","rt","url","stimulus","button_pressed","key_press","correctRESP","correct","designation","location","correctanswer","responses","sentence","keywords","typed_resp","keyword1_acc","keyword2_acc","keyword3_acc","keyword4_acc","keyword5_acc","total_acc","prop_acc","timeouts","pause_rt01","pause_rt02","train_file","numKeyPress","sound","fam_type","SYLLABLE","EXEMPLAR","TD_LOCS","TD_TYPE","TDLOC_01","TDLOC_02","TDLOC_03","TDLOC_04","TD_RT_01","TD_RT_02","TD_RT_03","TD_RT_04","TD_SUBJ_RTs","number_of_plays","slider_start","response","question_order","syllable","syllable_type"
"pavlovia","0","5","0.0-0.0","2","1","lod640l38mbgvlz","","","","","","","","","","","","","","","","","","","","","","","","","","","","","","","","","","","","","","","","","","","","","","","",""
"instructions","1","70653","0.0-1.0","2","1","lod640l38mbgvlz","[{""page_index"":0,""viewing_time"":67689.60000002384},{""page_index"":1,""viewing_time"":2951.300000011921}]","70645.69999998808","","","","","","","","","","","","","","","","","","","","","","","","","","","","","","","","","","","","","","","","","","","","","",""
"external-html","2","73516","0.0-2.0","2","1","lod640l38mbgvlz","","2837.699999988079","consent/consent.html","","","","","","","","","","","","","","","","","","","","","","","","","","","","","","","","","","","","","","","","","","","","",""
"html-button-response","3","75884","0.0-3.0-0.0-0.0","2","1","lod640l38mbgvlz","","2365.399999976158","","<p>Welcome to the study. You will first complete a short volume calibration and headphone check.</p><p>Please make sure you are in a quiet listening environment, that you are wearing headphones, and that your computer's volume is turned on.<p></p>","0","","","","","","","","","","","","","","","","","","","","","","","","","","","","","","","","","","","","","","","","","","",""
"html-button-response","4","76992","0.0-3.0-0.0-1.0","2","1","lod640l38mbgvlz","","856.1000000238419","","<p>The volume calibration will be first.</p><p>You will hear a thirty-second noise. Please adjust your computer's volume so that this noise is being presented at a comfortable level.<p></p>","0","","","","","","","","","","","","","","","","","","","","","","","","","","","","","","","","","","","","","","","","","","",""
"audio-button-response","5","78643","0.0-3.0-0.0-2.0","2","1","lod640l38mbgvlz","","816","","audCalib/volumetest.mp3","0","","","","","","","","","","","","","","","","","","","","","","","","","","","","","","","","","","","","","","","","","","",""
"html-button-response","6","80109","0.0-3.0-1.0-0.0","2","1","lod640l38mbgvlz","","1463.5999999642372","","<p>You will now complete a short headphone check.</p><p>On each trial, you will hear three tones. One of these tones will be quieter than the others. Your task is to identify whether the quiet tone occured first, second, or third.</p><p>There are six trials in total.<p></p>","0","","","","","","","","","","","","","","","","","","","","","","","","","","","","","","","","","","","","","","","","","","",""
"html-keyboard-response","7","80863","0.0-3.0-1.0-1.0-0.0","2","1","lod640l38mbgvlz","","null","","<div style=""font-size:60px;"">+</div>","","null","","","","","","","","","","","","","","","","","","","","","","","","","","","","","","","","","","","","","","","","","",""
"audio-button-response","8","86299","0.0-3.0-1.0-1.0-1.0","2","1","lod640l38mbgvlz","","5435","","audCalib/t2_2.mp3","1","","1","1","headphone-test","","","","","","","","","","","","","","","","","","","","","","","","","","","","","","","","","","","","","","",""
"html-keyboard-response","9","87054","0.0-3.0-1.0-1.0-0.1","2","1","lod640l38mbgvlz","","null","","<div style=""font-size:60px;"">+</div>","","null","","","","","","","","","","","","","","","","","","","","","","","","","","","","","","","","","","","","","","","","","",""
"audio-button-response","10","90768","0.0-3.0-1.0-1.0-1.1","2","1","lod640l38mbgvlz","","3712","","audCalib/t3_2.mp3","2","","2","1","headphone-test","","","","","","","","","","","","","","","","","","","","","","","","","","","","","","","","","","","","","","",""
"html-keyboard-response","11","91524","0.0-3.0-1.0-1.0-0.2","2","1","lod640l38mbgvlz","","null","","<div style=""font-size:60px;"">+</div>","","null","","","","","","","","","","","","","","","","","","","","","","","","","","","","","","","","","","","","","","","","","",""
"audio-button-response","12","95305","0.0-3.0-1.0-1.0-1.2","2","1","lod640l38mbgvlz","","3776","","audCalib/t1_1.mp3","0","","0","1","headphone-test","","","","","","","","","","","","","","","","","","","","","","","","","","","","","","","","","","","","","","",""
"html-keyboard-response","13","96066","0.0-3.0-1.0-1.0-0.3","2","1","lod640l38mbgvlz","","null","","<div style=""font-size:60px;"">+</div>","","null","","","","","","","","","","","","","","","","","","","","","","","","","","","","","","","","","","","","","","","","","",""
"audio-button-response","14","100175","0.0-3.0-1.0-1.0-1.3","2","1","lod640l38mbgvlz","","4107","","audCalib/t2_1.mp3","1","","1","1","headphone-test","","","","","","","","","","","","","","","","","","","","","","","","","","","","","","","","","","","","","","",""
"html-keyboard-response","15","100929","0.0-3.0-1.0-1.0-0.4","2","1","lod640l38mbgvlz","","null","","<div style=""font-size:60px;"">+</div>","","null","","","","","","","","","","","","","","","","","","","","","","","","","","","","","","","","","","","","","","","","","",""
"audio-button-response","16","104590","0.0-3.0-1.0-1.0-1.4","2","1","lod640l38mbgvlz","","3659","","audCalib/t3_1.mp3","2","","2","1","headphone-test","","","","","","","","","","","","","","","","","","","","","","","","","","","","","","","","","","","","","","",""
"html-keyboard-response","17","105344","0.0-3.0-1.0-1.0-0.5","2","1","lod640l38mbgvlz","","null","","<div style=""font-size:60px;"">+</div>","","null","","","","","","","","","","","","","","","","","","","","","","","","","","","","","","","","","","","","","","","","","",""
"audio-button-response","18","109016","0.0-3.0-1.0-1.0-1.5","2","1","lod640l38mbgvlz","","3669","","audCalib/t1_2.mp3","0","","0","1","headphone-test","","","","","","","","","","","","","","","","","","","","","","","","","","","","","","","","","","","","","","",""
"html-button-response","19","110508","0.0-3.0-2.0","2","1","lod640l38mbgvlz","","1237.5","","<p>The volume calibration and headphone check are now complete.</p>","0","","","","","","","","","","","","","","","","","","","","","","","","","","","","","","","","","","","","","","","","","","",""
"instructions","20","142640","0.0-4.0-0.0","2","1","lod640l38mbgvlz","[{""page_index"":0,""viewing_time"":1067.5999999642372},{""page_index"":1,""viewing_time"":29791.30000001192},{""page_index"":2,""viewing_time"":1269.4000000357628}]","32129.5","","","","","","","","","","","","","","","","","","","","","","","","","","","","","","","","","","","","","","","","","","","","","",""
"audio-keyboard-response","21","143208","0.0-4.0-1.0-0.0","2","1","lod640l38mbgvlz","","null","","sounds/induction/left/ti_SWS.wav","","null","","","","","","","","","","","","","","","","","","","","","","","","","","","","","","","","","","","","","","","","","",""
"html-button-response","22","144890","0.0-4.0-1.0-1.0","2","1","lod640l38mbgvlz","","1680.8999999761581","","What sound did you hear?","0","","","1","INDUCTION-JUDGMENT","left","0","","","","","","","","","","","","","","","","","","","","","","","","","","","","","","","","","","","","",""
"html-keyboard-response","23","145892","0.0-4.0-1.0-2.0","2","1","lod640l38mbgvlz","","null","","<p style=""color:green;""><b>Correct!</b></p>","","null","","","","","","","","","","","","","","","","","","","","","","","","","","","","","","","","","","","","","","","","","",""
"audio-keyboard-response","24","146697","0.0-4.0-1.0-0.1","2","1","lod640l38mbgvlz","","null","","sounds/induction/left/ko_SWS.wav","","null","","","","","","","","","","","","","","","","","","","","","","","","","","","","","","","","","","","","","","","","","",""
"html-button-response","25","148560","0.0-4.0-1.0-1.1","2","1","lod640l38mbgvlz","","1861.4000000357628","","What sound did you hear?","1","","","1","INDUCTION-JUDGMENT","left","1","","","","","","","","","","","","","","","","","","","","","","","","","","","","","","","","","","","","",""
"html-keyboard-response","26","149572","0.0-4.0-1.0-2.1","2","1","lod640l38mbgvlz","","null","","<p style=""color:green;""><b>Correct!</b></p>","","null","","","","","","","","","","","","","","","","","","","","","","","","","","","","","","","","","","","","","","","","","",""
"audio-keyboard-response","27","150379","0.0-4.0-1.0-0.2","2","1","lod640l38mbgvlz","","null","","sounds/induction/right/ni_SWS.wav","","null","","","","","","","","","","","","","","","","","","","","","","","","","","","","","","","","","","","","","","","","","",""
"html-button-response","28","151790","0.0-4.0-1.0-1.2","2","1","lod640l38mbgvlz","","1410.199999988079","","What sound did you hear?","0","","","1","INDUCTION-JUDGMENT","right","0","","","","","","","","","","","","","","","","","","","","","","","","","","","","","","","","","","","","",""
"html-keyboard-response","29","152793","0.0-4.0-1.0-2.2","2","1","lod640l38mbgvlz","","null","","<p style=""color:green;""><b>Correct!</b></p>","","null","","","","","","","","","","","","","","","","","","","","","","","","","","","","","","","","","","","","","","","","","",""
"audio-keyboard-response","30","153598","0.0-4.0-1.0-0.3","2","1","lod640l38mbgvlz","","null","","sounds/induction/left/fe_SWS.wav","","null","","","","","","","","","","","","","","","","","","","","","","","","","","","","","","","","","","","","","","","","","",""
"html-button-response","31","154453","0.0-4.0-1.0-1.3","2","1","lod640l38mbgvlz","","853.0999999642372","","What sound did you hear?","0","","","0","INDUCTION-JUDGMENT","left","1","","","","","","","","","","","","","","","","","","","","","","","","","","","","","","","","","","","","",""
"html-keyboard-response","32","155456","0.0-4.0-1.0-2.3","2","1","lod640l38mbgvlz","","null","","<p style=""color:red;""><b>Incorrect!</b></p>","","null","","","","","","","","","","","","","","","","","","","","","","","","","","","","","","","","","","","","","","","","","",""
"audio-keyboard-response","33","156259","0.0-4.0-1.0-0.4","2","1","lod640l38mbgvlz","","null","","sounds/induction/left/ni_SWS.wav","","null","","","","","","","","","","","","","","","","","","","","","","","","","","","","","","","","","","","","","","","","","",""
"html-button-response","34","157818","0.0-4.0-1.0-1.4","2","1","lod640l38mbgvlz","","1557","","What sound did you hear?","1","","","1","INDUCTION-JUDGMENT","left","1","","","","","","","","","","","","","","","","","","","","","","","","","","","","","","","","","","","","",""
"html-keyboard-response","35","158819","0.0-4.0-1.0-2.4","2","1","lod640l38mbgvlz","","null","","<p style=""color:green;""><b>Correct!</b></p>","","null","","","","","","","","","","","","","","","","","","","","","","","","","","","","","","","","","","","","","","","","","",""
"audio-keyboard-response","36","159624","0.0-4.0-1.0-0.5","2","1","lod640l38mbgvlz","","null","","sounds/induction/right/ti_SWS.wav","","null","","","","","","","","","","","","","","","","","","","","","","","","","","","","","","","","","","","","","","","","","",""
"html-button-response","37","160713","0.0-4.0-1.0-1.5","2","1","lod640l38mbgvlz","","1087.5999999642372","","What sound did you hear?","1","","","1","INDUCTION-JUDGMENT","right","1","","","","","","","","","","","","","","","","","","","","","","","","","","","","","","","","","","","","",""
"html-keyboard-response","38","161717","0.0-4.0-1.0-2.5","2","1","lod640l38mbgvlz","","null","","<p style=""color:green;""><b>Correct!</b></p>","","null","","","","","","","","","","","","","","","","","","","","","","","","","","","","","","","","","","","","","","","","","",""
"audio-keyboard-response","39","162520","0.0-4.0-1.0-0.6","2","1","lod640l38mbgvlz","","null","","sounds/induction/left/ge_SWS.wav","","null","","","","","","","","","","","","","","","","","","","","","","","","","","","","","","","","","","","","","","","","","",""
"html-button-response","40","163499","0.0-4.0-1.0-1.6","2","1","lod640l38mbgvlz","","976.1000000238419","","What sound did you hear?","0","","","0","INDUCTION-JUDGMENT","left","1","","","","","","","","","","","","","","","","","","","","","","","","","","","","","","","","","","","","",""
"html-keyboard-response","41","164503","0.0-4.0-1.0-2.6","2","1","lod640l38mbgvlz","","null","","<p style=""color:red;""><b>Incorrect!</b></p>","","null","","","","","","","","","","","","","","","","","","","","","","","","","","","","","","","","","","","","","","","","","",""
"audio-keyboard-response","42","165305","0.0-4.0-1.0-0.7","2","1","lod640l38mbgvlz","","null","","sounds/induction/right/fe_SWS.wav","","null","","","","","","","","","","","","","","","","","","","","","","","","","","","","","","","","","","","","","","","","","",""
"html-button-response","43","166350","0.0-4.0-1.0-1.7","2","1","lod640l38mbgvlz","","1043.699999988079","","What sound did you hear?","0","","","1","INDUCTION-JUDGMENT","right","0","","","","","","","","","","","","","","","","","","","","","","","","","","","","","","","","","","","","",""
"html-keyboard-response","44","167352","0.0-4.0-1.0-2.7","2","1","lod640l38mbgvlz","","null","","<p style=""color:green;""><b>Correct!</b></p>","","null","","","","","","","","","","","","","","","","","","","","","","","","","","","","","","","","","","","","","","","","","",""
"audio-keyboard-response","45","168153","0.0-4.0-1.0-0.8","2","1","lod640l38mbgvlz","","null","","sounds/induction/left/fe_SWS.wav","","null","","","","","","","","","","","","","","","","","","","","","","","","","","","","","","","","","","","","","","","","","",""
"html-button-response","46","169243","0.0-4.0-1.0-1.8","2","1","lod640l38mbgvlz","","1088","","What sound did you hear?","1","","","1","INDUCTION-JUDGMENT","left","1","","","","","","","","","","","","","","","","","","","","","","","","","","","","","","","","","","","","",""
"html-keyboard-response","47","170245","0.0-4.0-1.0-2.8","2","1","lod640l38mbgvlz","","null","","<p style=""color:green;""><b>Correct!</b></p>","","null","","","","","","","","","","","","","","","","","","","","","","","","","","","","","","","","","","","","","","","","","",""
"audio-keyboard-response","48","171049","0.0-4.0-1.0-0.9","2","1","lod640l38mbgvlz","","null","","sounds/induction/right/fu_SWS.wav","","null","","","","","","","","","","","","","","","","","","","","","","","","","","","","","","","","","","","","","","","","","",""
"html-button-response","49","172384","0.0-4.0-1.0-1.9","2","1","lod640l38mbgvlz","","1332.8999999761581","","What sound did you hear?","0","","","1","INDUCTION-JUDGMENT","right","0","","","","","","","","","","","","","","","","","","","","","","","","","","","","","","","","","","","","",""
"html-keyboard-response","50","173385","0.0-4.0-1.0-2.9","2","1","lod640l38mbgvlz","","null","","<p style=""color:green;""><b>Correct!</b></p>","","null","","","","","","","","","","","","","","","","","","","","","","","","","","","","","","","","","","","","","","","","","",""
"audio-keyboard-response","51","174190","0.0-4.0-1.0-0.10","2","1","lod640l38mbgvlz","","null","","sounds/induction/right/me_SWS.wav","","null","","","","","","","","","","","","","","","","","","","","","","","","","","","","","","","","","","","","","","","","","",""
"html-button-response","52","175307","0.0-4.0-1.0-1.10","2","1","lod640l38mbgvlz","","1114.800000011921","","What sound did you hear?","1","","","0","INDUCTION-JUDGMENT","right","0","","","","","","","","","","","","","","","","","","","","","","","","","","","","","","","","","","","","",""
"html-keyboard-response","53","176310","0.0-4.0-1.0-2.10","2","1","lod640l38mbgvlz","","null","","<p style=""color:red;""><b>Incorrect!</b></p>","","null","","","","","","","","","","","","","","","","","","","","","","","","","","","","","","","","","","","","","","","","","",""
"audio-keyboard-response","54","177113","0.0-4.0-1.0-0.11","2","1","lod640l38mbgvlz","","null","","sounds/induction/right/re_SWS.wav","","null","","","","","","","","","","","","","","","","","","","","","","","","","","","","","","","","","","","","","","","","","",""
"html-button-response","55","179337","0.0-4.0-1.0-1.11","2","1","lod640l38mbgvlz","","2222.199999988079","","What sound did you hear?","1","","","1","INDUCTION-JUDGMENT","right","1","","","","","","","","","","","","","","","","","","","","","","","","","","","","","","","","","","","","",""
"html-keyboard-response","56","180339","0.0-4.0-1.0-2.11","2","1","lod640l38mbgvlz","","null","","<p style=""color:green;""><b>Correct!</b></p>","","null","","","","","","","","","","","","","","","","","","","","","","","","","","","","","","","","","","","","","","","","","",""
"audio-keyboard-response","57","181145","0.0-4.0-1.0-0.12","2","1","lod640l38mbgvlz","","null","","sounds/induction/left/me_SWS.wav","","null","","","","","","","","","","","","","","","","","","","","","","","","","","","","","","","","","","","","","","","","","",""
"html-button-response","58","182334","0.0-4.0-1.0-1.12","2","1","lod640l38mbgvlz","","1186.800000011921","","What sound did you hear?","1","","","1","INDUCTION-JUDGMENT","left","1","","","","","","","","","","","","","","","","","","","","","","","","","","","","","","","","","","","","",""
"html-keyboard-response","59","183336","0.0-4.0-1.0-2.12","2","1","lod640l38mbgvlz","","null","","<p style=""color:green;""><b>Correct!</b></p>","","null","","","","","","","","","","","","","","","","","","","","","","","","","","","","","","","","","","","","","","","","","",""
"audio-keyboard-response","60","184141","0.0-4.0-1.0-0.13","2","1","lod640l38mbgvlz","","null","","sounds/induction/right/fe_SWS.wav","","null","","","","","","","","","","","","","","","","","","","","","","","","","","","","","","","","","","","","","","","","","",""
"html-button-response","61","185239","0.0-4.0-1.0-1.13","2","1","lod640l38mbgvlz","","1096.699999988079","","What sound did you hear?","0","","","1","INDUCTION-JUDGMENT","right","0","","","","","","","","","","","","","","","","","","","","","","","","","","","","","","","","","","","","",""
"html-keyboard-response","62","186241","0.0-4.0-1.0-2.13","2","1","lod640l38mbgvlz","","null","","<p style=""color:green;""><b>Correct!</b></p>","","null","","","","","","","","","","","","","","","","","","","","","","","","","","","","","","","","","","","","","","","","","",""
"audio-keyboard-response","63","187049","0.0-4.0-1.0-0.14","2","1","lod640l38mbgvlz","","null","","sounds/induction/right/ge_SWS.wav","","null","","","","","","","","","","","","","","","","","","","","","","","","","","","","","","","","","","","","","","","","","",""
"html-button-response","64","188234","0.0-4.0-1.0-1.14","2","1","lod640l38mbgvlz","","1184","","What sound did you hear?","0","","","1","INDUCTION-JUDGMENT","right","0","","","","","","","","","","","","","","","","","","","","","","","","","","","","","","","","","","","","",""
"html-keyboard-response","65","189236","0.0-4.0-1.0-2.14","2","1","lod640l38mbgvlz","","null","","<p style=""color:green;""><b>Correct!</b></p>","","null","","","","","","","","","","","","","","","","","","","","","","","","","","","","","","","","","","","","","","","","","",""
"audio-keyboard-response","66","190036","0.0-4.0-1.0-0.15","2","1","lod640l38mbgvlz","","null","","sounds/induction/right/pu_SWS.wav","","null","","","","","","","","","","","","","","","","","","","","","","","","","","","","","","","","","","","","","","","","","",""
"html-button-response","67","191165","0.0-4.0-1.0-1.15","2","1","lod640l38mbgvlz","","1126.3999999761581","","What sound did you hear?","0","","","0","INDUCTION-JUDGMENT","right","1","","","","","","","","","","","","","","","","","","","","","","","","","","","","","","","","","","","","",""
"html-keyboard-response","68","192170","0.0-4.0-1.0-2.15","2","1","lod640l38mbgvlz","","null","","<p style=""color:red;""><b>Incorrect!</b></p>","","null","","","","","","","","","","","","","","","","","","","","","","","","","","","","","","","","","","","","","","","","","",""
"audio-keyboard-response","69","192975","0.0-4.0-1.0-0.16","2","1","lod640l38mbgvlz","","null","","sounds/induction/right/fu_SWS.wav","","null","","","","","","","","","","","","","","","","","","","","","","","","","","","","","","","","","","","","","","","","","",""
"html-button-response","70","193817","0.0-4.0-1.0-1.16","2","1","lod640l38mbgvlz","","837.8000000119209","","What sound did you hear?","0","","","1","INDUCTION-JUDGMENT","right","0","","","","","","","","","","","","","","","","","","","","","","","","","","","","","","","","","","","","",""
"html-keyboard-response","71","194820","0.0-4.0-1.0-2.16","2","1","lod640l38mbgvlz","","null","","<p style=""color:green;""><b>Correct!</b></p>","","null","","","","","","","","","","","","","","","","","","","","","","","","","","","","","","","","","","","","","","","","","",""
"audio-keyboard-response","72","195622","0.0-4.0-1.0-0.17","2","1","lod640l38mbgvlz","","null","","sounds/induction/left/ti_SWS.wav","","null","","","","","","","","","","","","","","","","","","","","","","","","","","","","","","","","","","","","","","","","","",""
"html-button-response","73","196609","0.0-4.0-1.0-1.17","2","1","lod640l38mbgvlz","","984.4000000357628","","What sound did you hear?","0","","","1","INDUCTION-JUDGMENT","left","0","","","","","","","","","","","","","","","","","","","","","","","","","","","","","","","","","","","","",""
"html-keyboard-response","74","197613","0.0-4.0-1.0-2.17","2","1","lod640l38mbgvlz","","null","","<p style=""color:green;""><b>Correct!</b></p>","","null","","","","","","","","","","","","","","","","","","","","","","","","","","","","","","","","","","","","","","","","","",""
"audio-keyboard-response","75","198420","0.0-4.0-1.0-0.18","2","1","lod640l38mbgvlz","","null","","sounds/induction/right/ge_SWS.wav","","null","","","","","","","","","","","","","","","","","","","","","","","","","","","","","","","","","","","","","","","","","",""
"html-button-response","76","199590","0.0-4.0-1.0-1.18","2","1","lod640l38mbgvlz","","1167.4000000357628","","What sound did you hear?","0","","","1","INDUCTION-JUDGMENT","right","0","","","","","","","","","","","","","","","","","","","","","","","","","","","","","","","","","","","","",""
"html-keyboard-response","77","200594","0.0-4.0-1.0-2.18","2","1","lod640l38mbgvlz","","null","","<p style=""color:green;""><b>Correct!</b></p>","","null","","","","","","","","","","","","","","","","","","","","","","","","","","","","","","","","","","","","","","","","","",""
"audio-keyboard-response","78","201396","0.0-4.0-1.0-0.19","2","1","lod640l38mbgvlz","","null","","sounds/induction/left/re_SWS.wav","","null","","","","","","","","","","","","","","","","","","","","","","","","","","","","","","","","","","","","","","","","","",""
"html-button-response","79","205226","0.0-4.0-1.0-1.19","2","1","lod640l38mbgvlz","","3827","","What sound did you hear?","0","","","1","INDUCTION-JUDGMENT","left","0","","","","","","","","","","","","","","","","","","","","","","","","","","","","","","","","","","","","",""
"html-keyboard-response","80","206229","0.0-4.0-1.0-2.19","2","1","lod640l38mbgvlz","","null","","<p style=""color:green;""><b>Correct!</b></p>","","null","","","","","","","","","","","","","","","","","","","","","","","","","","","","","","","","","","","","","","","","","",""
"audio-keyboard-response","81","207036","0.0-4.0-1.0-0.20","2","1","lod640l38mbgvlz","","null","","sounds/induction/right/pu_SWS.wav","","null","","","","","","","","","","","","","","","","","","","","","","","","","","","","","","","","","","","","","","","","","",""
"html-button-response","82","208609","0.0-4.0-1.0-1.20","2","1","lod640l38mbgvlz","","1570.5999999642372","","What sound did you hear?","0","","","0","INDUCTION-JUDGMENT","right","1","","","","","","","","","","","","","","","","","","","","","","","","","","","","","","","","","","","","",""
"html-keyboard-response","83","209610","0.0-4.0-1.0-2.20","2","1","lod640l38mbgvlz","","null","","<p style=""color:red;""><b>Incorrect!</b></p>","","null","","","","","","","","","","","","","","","","","","","","","","","","","","","","","","","","","","","","","","","","","",""
"audio-keyboard-response","84","210412","0.0-4.0-1.0-0.21","2","1","lod640l38mbgvlz","","null","","sounds/induction/right/ti_SWS.wav","","null","","","","","","","","","","","","","","","","","","","","","","","","","","","","","","","","","","","","","","","","","",""
"html-button-response","85","212749","0.0-4.0-1.0-1.21","2","1","lod640l38mbgvlz","","2336.399999976158","","What sound did you hear?","1","","","1","INDUCTION-JUDGMENT","right","1","","","","","","","","","","","","","","","","","","","","","","","","","","","","","","","","","","","","",""
"html-keyboard-response","86","213750","0.0-4.0-1.0-2.21","2","1","lod640l38mbgvlz","","null","","<p style=""color:green;""><b>Correct!</b></p>","","null","","","","","","","","","","","","","","","","","","","","","","","","","","","","","","","","","","","","","","","","","",""
"audio-keyboard-response","87","214554","0.0-4.0-1.0-0.22","2","1","lod640l38mbgvlz","","null","","sounds/induction/left/pu_SWS.wav","","null","","","","","","","","","","","","","","","","","","","","","","","","","","","","","","","","","","","","","","","","","",""
"html-button-response","88","218546","0.0-4.0-1.0-1.22","2","1","lod640l38mbgvlz","","3990.399999976158","","What sound did you hear?","0","","","1","INDUCTION-JUDGMENT","left","0","","","","","","","","","","","","","","","","","","","","","","","","","","","","","","","","","","","","",""
"html-keyboard-response","89","219547","0.0-4.0-1.0-2.22","2","1","lod640l38mbgvlz","","null","","<p style=""color:green;""><b>Correct!</b></p>","","null","","","","","","","","","","","","","","","","","","","","","","","","","","","","","","","","","","","","","","","","","",""
"audio-keyboard-response","90","220351","0.0-4.0-1.0-0.23","2","1","lod640l38mbgvlz","","null","","sounds/induction/left/fu_SWS.wav","","null","","","","","","","","","","","","","","","","","","","","","","","","","","","","","","","","","","","","","","","","","",""
"html-button-response","91","221385","0.0-4.0-1.0-1.23","2","1","lod640l38mbgvlz","","1031.7000000476837","","What sound did you hear?","0","","","0","INDUCTION-JUDGMENT","left","1","","","","","","","","","","","","","","","","","","","","","","","","","","","","","","","","","","","","",""
"html-keyboard-response","92","222389","0.0-4.0-1.0-2.23","2","1","lod640l38mbgvlz","","null","","<p style=""color:red;""><b>Incorrect!</b></p>","","null","","","","","","","","","","","","","","","","","","","","","","","","","","","","","","","","","","","","","","","","","",""
"audio-keyboard-response","93","223194","0.0-4.0-1.0-0.24","2","1","lod640l38mbgvlz","","null","","sounds/induction/right/re_SWS.wav","","null","","","","","","","","","","","","","","","","","","","","","","","","","","","","","","","","","","","","","","","","","",""
"html-button-response","94","224627","0.0-4.0-1.0-1.24","2","1","lod640l38mbgvlz","","1431.6000000238419","","What sound did you hear?","1","","","1","INDUCTION-JUDGMENT","right","1","","","","","","","","","","","","","","","","","","","","","","","","","","","","","","","","","","","","",""
"html-keyboard-response","95","225629","0.0-4.0-1.0-2.24","2","1","lod640l38mbgvlz","","null","","<p style=""color:green;""><b>Correct!</b></p>","","null","","","","","","","","","","","","","","","","","","","","","","","","","","","","","","","","","","","","","","","","","",""
"audio-keyboard-response","96","226431","0.0-4.0-1.0-0.25","2","1","lod640l38mbgvlz","","null","","sounds/induction/left/pu_SWS.wav","","null","","","","","","","","","","","","","","","","","","","","","","","","","","","","","","","","","","","","","","","","","",""
"html-button-response","97","227293","0.0-4.0-1.0-1.25","2","1","lod640l38mbgvlz","","860.8000000119209","","What sound did you hear?","0","","","1","INDUCTION-JUDGMENT","left","0","","","","","","","","","","","","","","","","","","","","","","","","","","","","","","","","","","","","",""
"html-keyboard-response","98","228296","0.0-4.0-1.0-2.25","2","1","lod640l38mbgvlz","","null","","<p style=""color:green;""><b>Correct!</b></p>","","null","","","","","","","","","","","","","","","","","","","","","","","","","","","","","","","","","","","","","","","","","",""
"audio-keyboard-response","99","229098","0.0-4.0-1.0-0.26","2","1","lod640l38mbgvlz","","null","","sounds/induction/right/ni_SWS.wav","","null","","","","","","","","","","","","","","","","","","","","","","","","","","","","","","","","","","","","","","","","","",""
"html-button-response","100","230471","0.0-4.0-1.0-1.26","2","1","lod640l38mbgvlz","","1371.1000000238419","","What sound did you hear?","0","","","1","INDUCTION-JUDGMENT","right","0","","","","","","","","","","","","","","","","","","","","","","","","","","","","","","","","","","","","",""
"html-keyboard-response","101","231474","0.0-4.0-1.0-2.26","2","1","lod640l38mbgvlz","","null","","<p style=""color:green;""><b>Correct!</b></p>","","null","","","","","","","","","","","","","","","","","","","","","","","","","","","","","","","","","","","","","","","","","",""
"audio-keyboard-response","102","232277","0.0-4.0-1.0-0.27","2","1","lod640l38mbgvlz","","null","","sounds/induction/left/ni_SWS.wav","","null","","","","","","","","","","","","","","","","","","","","","","","","","","","","","","","","","","","","","","","","","",""
"html-button-response","103","233407","0.0-4.0-1.0-1.27","2","1","lod640l38mbgvlz","","1128.5999999642372","","What sound did you hear?","1","","","1","INDUCTION-JUDGMENT","left","1","","","","","","","","","","","","","","","","","","","","","","","","","","","","","","","","","","","","",""
"html-keyboard-response","104","234410","0.0-4.0-1.0-2.27","2","1","lod640l38mbgvlz","","null","","<p style=""color:green;""><b>Correct!</b></p>","","null","","","","","","","","","","","","","","","","","","","","","","","","","","","","","","","","","","","","","","","","","",""
"audio-keyboard-response","105","235210","0.0-4.0-1.0-0.28","2","1","lod640l38mbgvlz","","null","","sounds/induction/right/su_SWS.wav","","null","","","","","","","","","","","","","","","","","","","","","","","","","","","","","","","","","","","","","","","","","",""
"html-button-response","106","237378","0.0-4.0-1.0-1.28","2","1","lod640l38mbgvlz","","2166.900000035763","","What sound did you hear?","0","","","0","INDUCTION-JUDGMENT","right","1","","","","","","","","","","","","","","","","","","","","","","","","","","","","","","","","","","","","",""
"html-keyboard-response","107","238380","0.0-4.0-1.0-2.28","2","1","lod640l38mbgvlz","","null","","<p style=""color:red;""><b>Incorrect!</b></p>","","null","","","","","","","","","","","","","","","","","","","","","","","","","","","","","","","","","","","","","","","","","",""
"audio-keyboard-response","108","239184","0.0-4.0-1.0-0.29","2","1","lod640l38mbgvlz","","null","","sounds/induction/right/ta_SWS.wav","","null","","","","","","","","","","","","","","","","","","","","","","","","","","","","","","","","","","","","","","","","","",""
"html-button-response","109","240950","0.0-4.0-1.0-1.29","2","1","lod640l38mbgvlz","","1764.3999999761581","","What sound did you hear?","0","","","0","INDUCTION-JUDGMENT","right","1","","","","","","","","","","","","","","","","","","","","","","","","","","","","","","","","","","","","",""
"html-keyboard-response","110","241952","0.0-4.0-1.0-2.29","2","1","lod640l38mbgvlz","","null","","<p style=""color:red;""><b>Incorrect!</b></p>","","null","","","","","","","","","","","","","","","","","","","","","","","","","","","","","","","","","","","","","","","","","",""
"audio-keyboard-response","111","242758","0.0-4.0-1.0-0.30","2","1","lod640l38mbgvlz","","null","","sounds/induction/right/ko_SWS.wav","","null","","","","","","","","","","","","","","","","","","","","","","","","","","","","","","","","","","","","","","","","","",""
"html-button-response","112","243902","0.0-4.0-1.0-1.30","2","1","lod640l38mbgvlz","","1142.5","","What sound did you hear?","0","","","1","INDUCTION-JUDGMENT","right","0","","","","","","","","","","","","","","","","","","","","","","","","","","","","","","","","","","","","",""
"html-keyboard-response","113","244906","0.0-4.0-1.0-2.30","2","1","lod640l38mbgvlz","","null","","<p style=""color:green;""><b>Correct!</b></p>","","null","","","","","","","","","","","","","","","","","","","","","","","","","","","","","","","","","","","","","","","","","",""
"audio-keyboard-response","114","245712","0.0-4.0-1.0-0.31","2","1","lod640l38mbgvlz","","null","","sounds/induction/right/ru_SWS.wav","","null","","","","","","","","","","","","","","","","","","","","","","","","","","","","","","","","","","","","","","","","","",""
"html-button-response","115","247191","0.0-4.0-1.0-1.31","2","1","lod640l38mbgvlz","","1477.300000011921","","What sound did you hear?","1","","","1","INDUCTION-JUDGMENT","right","1","","","","","","","","","","","","","","","","","","","","","","","","","","","","","","","","","","","","",""
"html-keyboard-response","116","248192","0.0-4.0-1.0-2.31","2","1","lod640l38mbgvlz","","null","","<p style=""color:green;""><b>Correct!</b></p>","","null","","","","","","","","","","","","","","","","","","","","","","","","","","","","","","","","","","","","","","","","","",""
"audio-keyboard-response","117","249000","0.0-4.0-1.0-0.32","2","1","lod640l38mbgvlz","","null","","sounds/induction/left/ko_SWS.wav","","null","","","","","","","","","","","","","","","","","","","","","","","","","","","","","","","","","","","","","","","","","",""
"html-button-response","118","250458","0.0-4.0-1.0-1.32","2","1","lod640l38mbgvlz","","1455.699999988079","","What sound did you hear?","1","","","1","INDUCTION-JUDGMENT","left","1","","","","","","","","","","","","","","","","","","","","","","","","","","","","","","","","","","","","",""
"html-keyboard-response","119","251459","0.0-4.0-1.0-2.32","2","1","lod640l38mbgvlz","","null","","<p style=""color:green;""><b>Correct!</b></p>","","null","","","","","","","","","","","","","","","","","","","","","","","","","","","","","","","","","","","","","","","","","",""
"audio-keyboard-response","120","252261","0.0-4.0-1.0-0.33","2","1","lod640l38mbgvlz","","null","","sounds/induction/left/ge_SWS.wav","","null","","","","","","","","","","","","","","","","","","","","","","","","","","","","","","","","","","","","","","","","","",""
"html-button-response","121","253214","0.0-4.0-1.0-1.33","2","1","lod640l38mbgvlz","","949.2999999523163","","What sound did you hear?","0","","","0","INDUCTION-JUDGMENT","left","1","","","","","","","","","","","","","","","","","","","","","","","","","","","","","","","","","","","","",""
"html-keyboard-response","122","254217","0.0-4.0-1.0-2.33","2","1","lod640l38mbgvlz","","null","","<p style=""color:red;""><b>Incorrect!</b></p>","","null","","","","","","","","","","","","","","","","","","","","","","","","","","","","","","","","","","","","","","","","","",""
"audio-keyboard-response","123","255019","0.0-4.0-1.0-0.34","2","1","lod640l38mbgvlz","","null","","sounds/induction/left/su_SWS.wav","","null","","","","","","","","","","","","","","","","","","","","","","","","","","","","","","","","","","","","","","","","","",""
"html-button-response","124","256300","0.0-4.0-1.0-1.34","2","1","lod640l38mbgvlz","","1279.0999999642372","","What sound did you hear?","0","","","1","INDUCTION-JUDGMENT","left","0","","","","","","","","","","","","","","","","","","","","","","","","","","","","","","","","","","","","",""
"html-keyboard-response","125","257301","0.0-4.0-1.0-2.34","2","1","lod640l38mbgvlz","","null","","<p style=""color:green;""><b>Correct!</b></p>","","null","","","","","","","","","","","","","","","","","","","","","","","","","","","","","","","","","","","","","","","","","",""
"audio-keyboard-response","126","258104","0.0-4.0-1.0-0.35","2","1","lod640l38mbgvlz","","null","","sounds/induction/right/ru_SWS.wav","","null","","","","","","","","","","","","","","","","","","","","","","","","","","","","","","","","","","","","","","","","","",""
"html-button-response","127","259199","0.0-4.0-1.0-1.35","2","1","lod640l38mbgvlz","","1091.699999988079","","What sound did you hear?","1","","","1","INDUCTION-JUDGMENT","right","1","","","","","","","","","","","","","","","","","","","","","","","","","","","","","","","","","","","","",""
"html-keyboard-response","128","260203","0.0-4.0-1.0-2.35","2","1","lod640l38mbgvlz","","null","","<p style=""color:green;""><b>Correct!</b></p>","","null","","","","","","","","","","","","","","","","","","","","","","","","","","","","","","","","","","","","","","","","","",""
"audio-keyboard-response","129","261009","0.0-4.0-1.0-0.36","2","1","lod640l38mbgvlz","","null","","sounds/induction/left/su_SWS.wav","","null","","","","","","","","","","","","","","","","","","","","","","","","","","","","","","","","","","","","","","","","","",""
"html-button-response","130","262055","0.0-4.0-1.0-1.36","2","1","lod640l38mbgvlz","","1043.300000011921","","What sound did you hear?","0","","","1","INDUCTION-JUDGMENT","left","0","","","","","","","","","","","","","","","","","","","","","","","","","","","","","","","","","","","","",""
"html-keyboard-response","131","263060","0.0-4.0-1.0-2.36","2","1","lod640l38mbgvlz","","null","","<p style=""color:green;""><b>Correct!</b></p>","","null","","","","","","","","","","","","","","","","","","","","","","","","","","","","","","","","","","","","","","","","","",""
"audio-keyboard-response","132","263862","0.0-4.0-1.0-0.37","2","1","lod640l38mbgvlz","","null","","sounds/induction/right/ta_SWS.wav","","null","","","","","","","","","","","","","","","","","","","","","","","","","","","","","","","","","","","","","","","","","",""
"html-button-response","133","265667","0.0-4.0-1.0-1.37","2","1","lod640l38mbgvlz","","1802.6000000238419","","What sound did you hear?","1","","","1","INDUCTION-JUDGMENT","right","1","","","","","","","","","","","","","","","","","","","","","","","","","","","","","","","","","","","","",""
"html-keyboard-response","134","266670","0.0-4.0-1.0-2.37","2","1","lod640l38mbgvlz","","null","","<p style=""color:green;""><b>Correct!</b></p>","","null","","","","","","","","","","","","","","","","","","","","","","","","","","","","","","","","","","","","","","","","","",""
"audio-keyboard-response","135","267474","0.0-4.0-1.0-0.38","2","1","lod640l38mbgvlz","","null","","sounds/induction/left/me_SWS.wav","","null","","","","","","","","","","","","","","","","","","","","","","","","","","","","","","","","","","","","","","","","","",""
"html-button-response","136","268593","0.0-4.0-1.0-1.38","2","1","lod640l38mbgvlz","","1116.8999999761581","","What sound did you hear?","1","","","1","INDUCTION-JUDGMENT","left","1","","","","","","","","","","","","","","","","","","","","","","","","","","","","","","","","","","","","",""
"html-keyboard-response","137","269595","0.0-4.0-1.0-2.38","2","1","lod640l38mbgvlz","","null","","<p style=""color:green;""><b>Correct!</b></p>","","null","","","","","","","","","","","","","","","","","","","","","","","","","","","","","","","","","","","","","","","","","",""
"audio-keyboard-response","138","270401","0.0-4.0-1.0-0.39","2","1","lod640l38mbgvlz","","null","","sounds/induction/left/ta_SWS.wav","","null","","","","","","","","","","","","","","","","","","","","","","","","","","","","","","","","","","","","","","","","","",""
"html-button-response","139","271233","0.0-4.0-1.0-1.39","2","1","lod640l38mbgvlz","","830.1999999880791","","What sound did you hear?","0","","","1","INDUCTION-JUDGMENT","left","0","","","","","","","","","","","","","","","","","","","","","","","","","","","","","","","","","","","","",""
"html-keyboard-response","140","272235","0.0-4.0-1.0-2.39","2","1","lod640l38mbgvlz","","null","","<p style=""color:green;""><b>Correct!</b></p>","","null","","","","","","","","","","","","","","","","","","","","","","","","","","","","","","","","","","","","","","","","","",""
"audio-keyboard-response","141","273041","0.0-4.0-1.0-0.40","2","1","lod640l38mbgvlz","","null","","sounds/induction/left/ru_SWS.wav","","null","","","","","","","","","","","","","","","","","","","","","","","","","","","","","","","","","","","","","","","","","",""
"html-button-response","142","273793","0.0-4.0-1.0-1.40","2","1","lod640l38mbgvlz","","751.5","","What sound did you hear?","0","","","1","INDUCTION-JUDGMENT","left","0","","","","","","","","","","","","","","","","","","","","","","","","","","","","","","","","","","","","",""
"html-keyboard-response","143","274794","0.0-4.0-1.0-2.40","2","1","lod640l38mbgvlz","","null","","<p style=""color:green;""><b>Correct!</b></p>","","null","","","","","","","","","","","","","","","","","","","","","","","","","","","","","","","","","","","","","","","","","",""
"audio-keyboard-response","144","275595","0.0-4.0-1.0-0.41","2","1","lod640l38mbgvlz","","null","","sounds/induction/right/su_SWS.wav","","null","","","","","","","","","","","","","","","","","","","","","","","","","","","","","","","","","","","","","","","","","",""
"html-button-response","145","276748","0.0-4.0-1.0-1.41","2","1","lod640l38mbgvlz","","1151.6000000238419","","What sound did you hear?","1","","","1","INDUCTION-JUDGMENT","right","1","","","","","","","","","","","","","","","","","","","","","","","","","","","","","","","","","","","","",""
"html-keyboard-response","146","277750","0.0-4.0-1.0-2.41","2","1","lod640l38mbgvlz","","null","","<p style=""color:green;""><b>Correct!</b></p>","","null","","","","","","","","","","","","","","","","","","","","","","","","","","","","","","","","","","","","","","","","","",""
"audio-keyboard-response","147","278555","0.0-4.0-1.0-0.42","2","1","lod640l38mbgvlz","","null","","sounds/induction/left/ru_SWS.wav","","null","","","","","","","","","","","","","","","","","","","","","","","","","","","","","","","","","","","","","","","","","",""
"html-button-response","148","279366","0.0-4.0-1.0-1.42","2","1","lod640l38mbgvlz","","808.5","","What sound did you hear?","0","","","1","INDUCTION-JUDGMENT","left","0","","","","","","","","","","","","","","","","","","","","","","","","","","","","","","","","","","","","",""
"html-keyboard-response","149","280369","0.0-4.0-1.0-2.42","2","1","lod640l38mbgvlz","","null","","<p style=""color:green;""><b>Correct!</b></p>","","null","","","","","","","","","","","","","","","","","","","","","","","","","","","","","","","","","","","","","","","","","",""
"audio-keyboard-response","150","281174","0.0-4.0-1.0-0.43","2","1","lod640l38mbgvlz","","null","","sounds/induction/left/re_SWS.wav","","null","","","","","","","","","","","","","","","","","","","","","","","","","","","","","","","","","","","","","","","","","",""
"html-button-response","151","282191","0.0-4.0-1.0-1.43","2","1","lod640l38mbgvlz","","1015.6000000238419","","What sound did you hear?","0","","","1","INDUCTION-JUDGMENT","left","0","","","","","","","","","","","","","","","","","","","","","","","","","","","","","","","","","","","","",""
"html-keyboard-response","152","283195","0.0-4.0-1.0-2.43","2","1","lod640l38mbgvlz","","null","","<p style=""color:green;""><b>Correct!</b></p>","","null","","","","","","","","","","","","","","","","","","","","","","","","","","","","","","","","","","","","","","","","","",""
"audio-keyboard-response","153","283996","0.0-4.0-1.0-0.44","2","1","lod640l38mbgvlz","","null","","sounds/induction/right/me_SWS.wav","","null","","","","","","","","","","","","","","","","","","","","","","","","","","","","","","","","","","","","","","","","","",""
"html-button-response","154","286049","0.0-4.0-1.0-1.44","2","1","lod640l38mbgvlz","","2052","","What sound did you hear?","1","","","0","INDUCTION-JUDGMENT","right","0","","","","","","","","","","","","","","","","","","","","","","","","","","","","","","","","","","","","",""
"html-keyboard-response","155","287051","0.0-4.0-1.0-2.44","2","1","lod640l38mbgvlz","","null","","<p style=""color:red;""><b>Incorrect!</b></p>","","null","","","","","","","","","","","","","","","","","","","","","","","","","","","","","","","","","","","","","","","","","",""
"audio-keyboard-response","156","287857","0.0-4.0-1.0-0.45","2","1","lod640l38mbgvlz","","null","","sounds/induction/right/ko_SWS.wav","","null","","","","","","","","","","","","","","","","","","","","","","","","","","","","","","","","","","","","","","","","","",""
"html-button-response","157","288701","0.0-4.0-1.0-1.45","2","1","lod640l38mbgvlz","","842.6000000238419","","What sound did you hear?","0","","","1","INDUCTION-JUDGMENT","right","0","","","","","","","","","","","","","","","","","","","","","","","","","","","","","","","","","","","","",""
"html-keyboard-response","158","289703","0.0-4.0-1.0-2.45","2","1","lod640l38mbgvlz","","null","","<p style=""color:green;""><b>Correct!</b></p>","","null","","","","","","","","","","","","","","","","","","","","","","","","","","","","","","","","","","","","","","","","","",""
"audio-keyboard-response","159","290509","0.0-4.0-1.0-0.46","2","1","lod640l38mbgvlz","","null","","sounds/induction/left/fu_SWS.wav","","null","","","","","","","","","","","","","","","","","","","","","","","","","","","","","","","","","","","","","","","","","",""
"html-button-response","160","291837","0.0-4.0-1.0-1.46","2","1","lod640l38mbgvlz","","1327.699999988079","","What sound did you hear?","0","","","0","INDUCTION-JUDGMENT","left","1","","","","","","","","","","","","","","","","","","","","","","","","","","","","","","","","","","","","",""
"html-keyboard-response","161","292840","0.0-4.0-1.0-2.46","2","1","lod640l38mbgvlz","","null","","<p style=""color:red;""><b>Incorrect!</b></p>","","null","","","","","","","","","","","","","","","","","","","","","","","","","","","","","","","","","","","","","","","","","",""
"audio-keyboard-response","162","293649","0.0-4.0-1.0-0.47","2","1","lod640l38mbgvlz","","null","","sounds/induction/left/ta_SWS.wav","","null","","","","","","","","","","","","","","","","","","","","","","","","","","","","","","","","","","","","","","","","","",""
"html-button-response","163","294608","0.0-4.0-1.0-1.47","2","1","lod640l38mbgvlz","","957.1999999880791","","What sound did you hear?","0","","","1","INDUCTION-JUDGMENT","left","0","","","","","","","","","","","","","","","","","","","","","","","","","","","","","","","","","","","","",""
"html-keyboard-response","164","295609","0.0-4.0-1.0-2.47","2","1","lod640l38mbgvlz","","null","","<p style=""color:green;""><b>Correct!</b></p>","","null","","","","","","","","","","","","","","","","","","","","","","","","","","","","","","","","","","","","","","","","","",""
"html-button-response","165","308490","0.0-5.0-0.0","2","1","lod640l38mbgvlz","","12375.300000011921","","<p>Thank you for your answers.</p><p>You will now listen to similar sounds. The main difference is that the sounds will be longer and will make up complete sentences.</p><p>Please listen carefully to each sentence. After each sentence, you will be asked to type back what you heard to the best of your ability. After you provide your response, you will be given feedback about the correct answer.</p><p>There are 10 sentences in total.","0","","","","","","","","","","","","","","","","","","","","","","","","","","","","","","","","","","","","","","","","","","",""
"audio-keyboard-response","166","311074","0.0-5.0-1.0-0.0","2","1","lod640l38mbgvlz","","null","","sounds/sentences/left/14_03_cfSWS.wav","","null","","","","","","","","","","","","","","","","","","","","","","","","","","","","","","","","","","","","","","","","","",""
"sentence-resp","167","335533","0.0-5.0-1.0-1.0","2","1","lod640l38mbgvlz","","24455","","","","","","","SWS-SENT-RESPONSE","","","{""Q0"":""i like to go the store\n""}","Pluck the bright rose without leaves.","pluck,bright,rose,without,leaves","I LIKE TO GO THE STORE ","0","0","0","0","0","0","0","","","","","","","","","","","","","","","","","","","","","","","","","",""
"html-keyboard-response","168","336789","0.0-5.0-1.0-2.0","2","1","lod640l38mbgvlz","","null","","","","null","","","","","","","","","","","","","","","","","","","","","","","","","","","","","","","","","","","","","","","","","",""
"audio-keyboard-response","169","338871","0.0-5.0-1.0-3.0","2","1","lod640l38mbgvlz","","null","","sounds/sentences/left/14_03_cfSWS.wav","","null","","","","","","","","","","","","","","","","","","","","","","","","","","","","","","","","","","","","","","","","","",""
"html-keyboard-response","170","339873","0.0-5.0-1.0-4.0","2","1","lod640l38mbgvlz","","null","","","","null","","","","","","","","","","","","","","","","","","","","","","","","","","","","","","","","","","","","","","","","","",""
"html-button-response","171","345072","0.0-5.0-1.0-5.0","2","1","lod640l38mbgvlz","","4695.200000047684","","<p>Press the button below when you are ready to continue.</p>","0","","","","","","","","","","","","","","","","","","","","","","","","","","","","","","","","","","","","","","","","","","",""
"audio-keyboard-response","172","347816","0.0-5.0-1.0-0.1","2","1","lod640l38mbgvlz","","null","","sounds/sentences/right/14_06_cfSWS.wav","","null","","","","","","","","","","","","","","","","","","","","","","","","","","","","","","","","","","","","","","","","","",""
"sentence-resp","173","381375","0.0-5.0-1.0-1.1","2","1","lod640l38mbgvlz","","33557","","","","","","","SWS-SENT-RESPONSE","","","{""Q0"":""three years feels like thirty weeks\n""}","Bring your problems to the wise chief.","bring,your,problems,wise,chief","THREE YEARS FEELS LIKE THIRTY WEEKS ","0","0","0","0","0","0","0","","","","","","","","","","","","","","","","","","","","","","","","","",""
"html-keyboard-response","174","382629","0.0-5.0-1.0-2.1","2","1","lod640l38mbgvlz","","null","","","","null","","","","","","","","","","","","","","","","","","","","","","","","","","","","","","","","","","","","","","","","","",""
"audio-keyboard-response","175","385157","0.0-5.0-1.0-3.1","2","1","lod640l38mbgvlz","","null","","sounds/sentences/right/14_06_cfSWS.wav","","null","","","","","","","","","","","","","","","","","","","","","","","","","","","","","","","","","","","","","","","","","",""
"html-keyboard-response","176","386160","0.0-5.0-1.0-4.1","2","1","lod640l38mbgvlz","","null","","","","null","","","","","","","","","","","","","","","","","","","","","","","","","","","","","","","","","","","","","","","","","",""
"html-button-response","177","387901","0.0-5.0-1.0-5.1","2","1","lod640l38mbgvlz","","1236.800000011921","","<p>Press the button below when you are ready to continue.</p>","0","","","","","","","","","","","","","","","","","","","","","","","","","","","","","","","","","","","","","","","","","","",""
"audio-keyboard-response","178","390629","0.0-5.0-1.0-0.2","2","1","lod640l38mbgvlz","","null","","sounds/sentences/right/14_09_cfSWS.wav","","null","","","","","","","","","","","","","","","","","","","","","","","","","","","","","","","","","","","","","","","","","",""
"sentence-resp","179","440123","0.0-5.0-1.0-1.2","2","1","lod640l38mbgvlz","","49491","","","","","","","SWS-SENT-RESPONSE","","","{""Q0"":""we really need to go pee""}","We frown when events take a bad turn.","frown,events,take,bad,turn","WE REALLY NEED TO GO PEE","0","0","0","0","0","0","0","","","","","","","","","","","","","","","","","","","","","","","","","",""
"html-keyboard-response","180","441378","0.0-5.0-1.0-2.2","2","1","lod640l38mbgvlz","","null","","","","null","","","","","","","","","","","","","","","","","","","","","","","","","","","","","","","","","","","","","","","","","",""
"audio-keyboard-response","181","444193","0.0-5.0-1.0-3.2","2","1","lod640l38mbgvlz","","null","","sounds/sentences/right/14_09_cfSWS.wav","","null","","","","","","","","","","","","","","","","","","","","","","","","","","","","","","","","","","","","","","","","","",""
"html-keyboard-response","182","445194","0.0-5.0-1.0-4.2","2","1","lod640l38mbgvlz","","null","","","","null","","","","","","","","","","","","","","","","","","","","","","","","","","","","","","","","","","","","","","","","","",""
"html-button-response","183","450776","0.0-5.0-1.0-5.2","2","1","lod640l38mbgvlz","","5078.900000035763","","<p>Press the button below when you are ready to continue.</p>","0","","","","","","","","","","","","","","","","","","","","","","","","","","","","","","","","","","","","","","","","","","",""
"audio-keyboard-response","184","453793","0.0-5.0-1.0-0.3","2","1","lod640l38mbgvlz","","null","","sounds/sentences/right/14_10_cfSWS.wav","","null","","","","","","","","","","","","","","","","","","","","","","","","","","","","","","","","","","","","","","","","","",""
"sentence-resp","185","464072","0.0-5.0-1.0-1.3","2","1","lod640l38mbgvlz","","10276","","","","","","","SWS-SENT-RESPONSE","","","{""Q0"":""you really want to go to the forest""}","Port is a strong wine with a smoky taste.","port,strong,wine,smoky,taste","YOU REALLY WANT TO GO TO THE FOREST","0","0","0","0","0","0","0","","","","","","","","","","","","","","","","","","","","","","","","","",""
"html-keyboard-response","186","465329","0.0-5.0-1.0-2.3","2","1","lod640l38mbgvlz","","null","","","","null","","","","","","","","","","","","","","","","","","","","","","","","","","","","","","","","","","","","","","","","","",""
"audio-keyboard-response","187","467847","0.0-5.0-1.0-3.3","2","1","lod640l38mbgvlz","","null","","sounds/sentences/right/14_10_cfSWS.wav","","null","","","","","","","","","","","","","","","","","","","","","","","","","","","","","","","","","","","","","","","","","",""
"html-keyboard-response","188","468849","0.0-5.0-1.0-4.3","2","1","lod640l38mbgvlz","","null","","","","null","","","","","","","","","","","","","","","","","","","","","","","","","","","","","","","","","","","","","","","","","",""
"html-button-response","189","476501","0.0-5.0-1.0-5.3","2","1","lod640l38mbgvlz","","7149.199999988079","","<p>Press the button below when you are ready to continue.</p>","0","","","","","","","","","","","","","","","","","","","","","","","","","","","","","","","","","","","","","","","","","","",""
"audio-keyboard-response","190","479255","0.0-5.0-1.0-0.4","2","1","lod640l38mbgvlz","","null","","sounds/sentences/right/14_08_cfSWS.wav","","null","","","","","","","","","","","","","","","","","","","","","","","","","","","","","","","","","","","","","","","","","",""
"sentence-resp","191","499107","0.0-5.0-1.0-1.4","2","1","lod640l38mbgvlz","","19849","","","","","","","SWS-SENT-RESPONSE","","","{""Q0"":""roses are like a thorn of bushes""}","Clothes and lodging are free to new men.","clothes,lodging,free,new,men","ROSES ARE LIKE A THORN OF BUSHES","0","0","0","0","0","0","0","","","","","","","","","","","","","","","","","","","","","","","","","",""
"html-keyboard-response","192","500363","0.0-5.0-1.0-2.4","2","1","lod640l38mbgvlz","","null","","","","null","","","","","","","","","","","","","","","","","","","","","","","","","","","","","","","","","","","","","","","","","",""
"audio-keyboard-response","193","502616","0.0-5.0-1.0-3.4","2","1","lod640l38mbgvlz","","null","","sounds/sentences/right/14_08_cfSWS.wav","","null","","","","","","","","","","","","","","","","","","","","","","","","","","","","","","","","","","","","","","","","","",""
"html-keyboard-response","194","503673","0.0-5.0-1.0-4.4","2","1","lod640l38mbgvlz","","null","","","","null","","","","","","","","","","","","","","","","","","","","","","","","","","","","","","","","","","","","","","","","","",""
"html-button-response","195","505287","0.0-5.0-1.0-5.4","2","1","lod640l38mbgvlz","","1110.5","","<p>Press the button below when you are ready to continue.</p>","0","","","","","","","","","","","","","","","","","","","","","","","","","","","","","","","","","","","","","","","","","","",""
"audio-keyboard-response","196","508408","0.0-5.0-1.0-0.5","2","1","lod640l38mbgvlz","","null","","sounds/sentences/left/14_01_cfSWS.wav","","null","","","","","","","","","","","","","","","","","","","","","","","","","","","","","","","","","","","","","","","","","",""
"sentence-resp","197","540301","0.0-5.0-1.0-1.5","2","1","lod640l38mbgvlz","","31892","","","","","","","SWS-SENT-RESPONSE","","","{""Q0"":""i like to go to the bed  ""}","A cramp is no small danger on a swim.","cramp,no,small,danger,swim","I LIKE TO GO TO THE BED  ","0","0","0","0","0","0","0","","","","","","","","","","","","","","","","","","","","","","","","","",""
"html-keyboard-response","198","541557","0.0-5.0-1.0-2.5","2","1","lod640l38mbgvlz","","null","","","","null","","","","","","","","","","","","","","","","","","","","","","","","","","","","","","","","","","","","","","","","","",""
"audio-keyboard-response","199","544493","0.0-5.0-1.0-3.5","2","1","lod640l38mbgvlz","","null","","sounds/sentences/left/14_01_cfSWS.wav","","null","","","","","","","","","","","","","","","","","","","","","","","","","","","","","","","","","","","","","","","","","",""
"html-keyboard-response","200","545498","0.0-5.0-1.0-4.5","2","1","lod640l38mbgvlz","","null","","","","null","","","","","","","","","","","","","","","","","","","","","","","","","","","","","","","","","","","","","","","","","",""
"html-button-response","201","546971","0.0-5.0-1.0-5.5","2","1","lod640l38mbgvlz","","966.6999999880791","","<p>Press the button below when you are ready to continue.</p>","0","","","","","","","","","","","","","","","","","","","","","","","","","","","","","","","","","","","","","","","","","","",""
"audio-keyboard-response","202","549529","0.0-5.0-1.0-0.6","2","1","lod640l38mbgvlz","","null","","sounds/sentences/left/14_04_cfSWS.wav","","null","","","","","","","","","","","","","","","","","","","","","","","","","","","","","","","","","","","","","","","","","",""
"sentence-resp","203","561284","0.0-5.0-1.0-1.6","2","1","lod640l38mbgvlz","","11753","","","","","","","SWS-SENT-RESPONSE","","","{""Q0"":""it is a swimming eel ""}","Two plus seven is less than ten.","two,plus,seven,less,ten","IT IS A SWIMMING EEL ","0","0","0","0","0","0","0","","","","","","","","","","","","","","","","","","","","","","","","","",""
"html-keyboard-response","204","562538","0.0-5.0-1.0-2.6","2","1","lod640l38mbgvlz","","null","","","","null","","","","","","","","","","","","","","","","","","","","","","","","","","","","","","","","","","","","","","","","","",""
"audio-keyboard-response","205","564591","0.0-5.0-1.0-3.6","2","1","lod640l38mbgvlz","","null","","sounds/sentences/left/14_04_cfSWS.wav","","null","","","","","","","","","","","","","","","","","","","","","","","","","","","","","","","","","","","","","","","","","",""
"html-keyboard-response","206","565593","0.0-5.0-1.0-4.6","2","1","lod640l38mbgvlz","","null","","","","null","","","","","","","","","","","","","","","","","","","","","","","","","","","","","","","","","","","","","","","","","",""
"html-button-response","207","569662","0.0-5.0-1.0-5.6","2","1","lod640l38mbgvlz","","3555.800000011921","","<p>Press the button below when you are ready to continue.</p>","0","","","","","","","","","","","","","","","","","","","","","","","","","","","","","","","","","","","","","","","","","","",""
"audio-keyboard-response","208","572558","0.0-5.0-1.0-0.7","2","1","lod640l38mbgvlz","","null","","sounds/sentences/right/14_07_cfSWS.wav","","null","","","","","","","","","","","","","","","","","","","","","","","","","","","","","","","","","","","","","","","","","",""
"sentence-resp","209","583561","0.0-5.0-1.0-1.7","2","1","lod640l38mbgvlz","","10999","","","","","","","SWS-SENT-RESPONSE","","","{""Q0"":""it is thirty weeks here""}","Write a fond note to the friend you cherish.","write,fond,note,friend,cherish","IT IS THIRTY WEEKS HERE","0","0","0","0","0","0","0","","","","","","","","","","","","","","","","","","","","","","","","","",""
"html-keyboard-response","210","584819","0.0-5.0-1.0-2.7","2","1","lod640l38mbgvlz","","null","","","","null","","","","","","","","","","","","","","","","","","","","","","","","","","","","","","","","","","","","","","","","","",""
"audio-keyboard-response","211","587267","0.0-5.0-1.0-3.7","2","1","lod640l38mbgvlz","","null","","sounds/sentences/right/14_07_cfSWS.wav","","null","","","","","","","","","","","","","","","","","","","","","","","","","","","","","","","","","","","","","","","","","",""
"html-keyboard-response","212","588268","0.0-5.0-1.0-4.7","2","1","lod640l38mbgvlz","","null","","","","null","","","","","","","","","","","","","","","","","","","","","","","","","","","","","","","","","","","","","","","","","",""
"html-button-response","213","590043","0.0-5.0-1.0-5.7","2","1","lod640l38mbgvlz","","1271.9000000357628","","<p>Press the button below when you are ready to continue.</p>","0","","","","","","","","","","","","","","","","","","","","","","","","","","","","","","","","","","","","","","","","","","",""
"audio-keyboard-response","214","592862","0.0-5.0-1.0-0.8","2","1","lod640l38mbgvlz","","null","","sounds/sentences/left/14_02_cfSWS.wav","","null","","","","","","","","","","","","","","","","","","","","","","","","","","","","","","","","","","","","","","","","","",""
"sentence-resp","215","604571","0.0-5.0-1.0-1.8","2","1","lod640l38mbgvlz","","11708","","","","","","","SWS-SENT-RESPONSE","","","{""Q0"":""thirty plus five equals fifty""}","He said the same phrase thirty times.","said,same,phrase,thirty,times","THIRTY PLUS FIVE EQUALS FIFTY","0","0","0","1","0","1","0.2","","","","","","","","","","","","","","","","","","","","","","","","","",""
"html-keyboard-response","216","605832","0.0-5.0-1.0-2.8","2","1","lod640l38mbgvlz","","null","","","","null","","","","","","","","","","","","","","","","","","","","","","","","","","","","","","","","","","","","","","","","","",""
"audio-keyboard-response","217","608157","0.0-5.0-1.0-3.8","2","1","lod640l38mbgvlz","","null","","sounds/sentences/left/14_02_cfSWS.wav","","null","","","","","","","","","","","","","","","","","","","","","","","","","","","","","","","","","","","","","","","","","",""
"html-keyboard-response","218","609161","0.0-5.0-1.0-4.8","2","1","lod640l38mbgvlz","","null","","","","null","","","","","","","","","","","","","","","","","","","","","","","","","","","","","","","","","","","","","","","","","",""
"html-button-response","219","611008","0.0-5.0-1.0-5.8","2","1","lod640l38mbgvlz","","1340.300000011921","","<p>Press the button below when you are ready to continue.</p>","0","","","","","","","","","","","","","","","","","","","","","","","","","","","","","","","","","","","","","","","","","","",""
"audio-keyboard-response","220","614067","0.0-5.0-1.0-0.9","2","1","lod640l38mbgvlz","","null","","sounds/sentences/left/14_05_cfSWS.wav","","null","","","","","","","","","","","","","","","","","","","","","","","","","","","","","","","","","","","","","","","","","",""
"sentence-resp","221","622832","0.0-5.0-1.0-1.9","2","1","lod640l38mbgvlz","","8763","","","","","","","SWS-SENT-RESPONSE","","","{""Q0"":""he wanted to go date the girl""}","The glow deepened in the eyes of the sweet girl.","glow,deepened,eyes,sweet,girl","HE WANTED TO GO DATE THE GIRL","0","0","0","0","1","1","0.2","","","","","","","","","","","","","","","","","","","","","","","","","",""
"html-keyboard-response","222","624088","0.0-5.0-1.0-2.9","2","1","lod640l38mbgvlz","","null","","","","null","","","","","","","","","","","","","","","","","","","","","","","","","","","","","","","","","","","","","","","","","",""
"audio-keyboard-response","223","626580","0.0-5.0-1.0-3.9","2","1","lod640l38mbgvlz","","null","","sounds/sentences/left/14_05_cfSWS.wav","","null","","","","","","","","","","","","","","","","","","","","","","","","","","","","","","","","","","","","","","","","","",""
"html-keyboard-response","224","627583","0.0-5.0-1.0-4.9","2","1","lod640l38mbgvlz","","null","","","","null","","","","","","","","","","","","","","","","","","","","","","","","","","","","","","","","","","","","","","","","","",""
"html-button-response","225","631308","0.0-5.0-1.0-5.9","2","1","lod640l38mbgvlz","","3220.899999976158","","<p>Press the button below when you are ready to continue.</p>","0","","","","","","","","","","","","","","","","","","","","","","","","","","","","","","","","","","","","","","","","","","",""
"html-keyboard-response","226","670726","0.0-6.0-0.0","2","1","lod640l38mbgvlz","","38914.90000003576","","<p>In this part of the study, you will hear sounds similar to those you just heard.</p><p>Please focus on these sounds, as you may be asked questions about them later.</p><p>Occasionally, the sounds will pause for up to two seconds. When this happens, please press SPACEBAR as quickly as you can.</br>This helps ensure that you are paying attention to the sounds.</p><p>This part of the study will take about 12 minutes to complete, and you will be given the opportunity to take a couple of short breaks every few minutes.</p><p><strong>Press SPACEBAR to begin</strong></p>","","32","","","","","","","","","","","","","","","","","","","","","","","","","","","","","","","","","","","","","","","","","",""
"html-keyboard-response","227","671729","0.0-6.0-1.0-0.0","2","1","lod640l38mbgvlz","","null","","<p style=""font-size: 40px;"">+</p>","","null","","","","","","","","","","","","","","","","","","","","","","","","","","","","","","","","","","","","","","","","","",""
"html-keyboard-response","228","856743","0.0-6.0-1.0-1.0","2","1","lod640l38mbgvlz","","null","","","","null","","","SL-TRAIN","","","","","","","","","","","","","","0","1823.800000011921","1802.4000000357628","sounds/B/TRAIN/SEQ__12.mp3","14","","","","","","","","","","","","","","","","","","","","",""
"html-button-response","229","859007","0.0-6.0-1.0-2.0","2","1","lod640l38mbgvlz","","2262.400000035763","","<p>You may take a short break if you wish.</p>","0","","","","","","","","","","","","","","","","","","","","","","","","","","","","","","","","","","","","","","","","","","",""
"html-keyboard-response","230","860008","0.0-6.0-1.0-3.0","2","1","lod640l38mbgvlz","","null","","<p style=""font-size: 40px;"">+</p>","","null","","","","","","","","","","","","","","","","","","","","","","","","","","","","","","","","","","","","","","","","","",""
"html-keyboard-response","231","1045020","0.0-6.0-1.0-4.0","2","1","lod640l38mbgvlz","","null","","","","null","","","SL-TRAIN","","","","","","","","","","","","","","0","1866.5","1894.5","sounds/B/TRAIN/SEQ__07.mp3","32","","","","","","","","","","","","","","","","","","","","",""
"html-button-response","232","1047069","0.0-6.0-1.0-5.0","2","1","lod640l38mbgvlz","","2044.800000011921","","<p>You may take a short break if you wish.</p>","0","","","","","","","","","","","","","","","","","","","","","","","","","","","","","","","","","","","","","","","","","","",""
"html-keyboard-response","233","1048076","0.0-6.0-1.0-6.0","2","1","lod640l38mbgvlz","","null","","<p style=""font-size: 40px;"">+</p>","","null","","","","","","","","","","","","","","","","","","","","","","","","","","","","","","","","","","","","","","","","","",""
"html-keyboard-response","234","1233111","0.0-6.0-1.0-7.0","2","1","lod640l38mbgvlz","","null","","","","null","","","SL-TRAIN","","","","","","","","","","","","","","1","1998.8999999761581","null","sounds/B/TRAIN/SEQ__03.mp3","27","","","","","","","","","","","","","","","","","","","","",""
"html-button-response","235","1239607","0.0-6.0-1.0-8.0","2","1","lod640l38mbgvlz","","6491.800000011921","","<p>You may take a short break if you wish.</p>","0","","","","","","","","","","","","","","","","","","","","","","","","","","","","","","","","","","","","","","","","","","",""
"html-keyboard-response","236","1240611","0.0-6.0-1.0-9.0","2","1","lod640l38mbgvlz","","null","","<p style=""font-size: 40px;"">+</p>","","null","","","","","","","","","","","","","","","","","","","","","","","","","","","","","","","","","","","","","","","","","",""
"html-keyboard-response","237","1425637","0.0-6.0-1.0-10.0","2","1","lod640l38mbgvlz","","null","","","","null","","","SL-TRAIN","","","","","","","","","","","","","","1","1970.6000000238419","null","sounds/B/TRAIN/SEQ__09.mp3","39","","","","","","","","","","","","","","","","","","","","",""
"html-button-response","238","1427768","0.0-6.0-1.0-11.0","2","1","lod640l38mbgvlz","","2126.699999988079","","<p>You may take a short break if you wish.</p>","0","","","","","","","","","","","","","","","","","","","","","","","","","","","","","","","","","","","","","","","","","","",""
"html-button-response","239","1429967","0.0-7.0-0.0","2","1","lod640l38mbgvlz","","2192.600000023842","","<p>Welcome to the second part of the study. This is a <u>familiarity task</u>.</p><p>You will now hear short sounds and will be asked to rate how familiar they sound to you <b>based on what you heard in the previous part of the study</b>.</p><p>You will rate 12 sounds in total.</p>","0","","","","","","","","","","","","","","","","","","","","","","","","","","","","","","","","","","","","","","","","","","",""
"html-keyboard-response","240","1430973","0.0-7.0-1.0-0.0","2","1","lod640l38mbgvlz","","null","","","","null","","","","","","","","","","","","","","","","","","","","","","","","","","","","","","","","","","","","","","","","","",""
"audio-keyboard-response","241","1431978","0.0-7.0-1.0-1.0","2","1","lod640l38mbgvlz","","null","","sounds/B/FAM/N001.mp3","","null","","","","","","","","","","","","","","","","","","","","","","","","","","","","","","","","","","","","","","","","","",""
"html-keyboard-response","242","1433104","0.0-7.0-1.0-2.0","2","1","lod640l38mbgvlz","","623.1999999880791","","<p>How familiar did this sound to you?</p><p>1&nbsp;&nbsp;&nbsp;&nbsp;&nbsp;&nbsp;&nbsp;&nbsp;&nbsp;&nbsp;&nbsp;&nbsp;&nbsp;&nbsp;&nbsp;&nbsp;&nbsp;&nbsp;&nbsp;2&nbsp;&nbsp;&nbsp;&nbsp;&nbsp;&nbsp;&nbsp;&nbsp;&nbsp;&nbsp;&nbsp;&nbsp;&nbsp;&nbsp;&nbsp;&nbsp;&nbsp;&nbsp;&nbsp;3&nbsp;&nbsp;&nbsp;&nbsp;&nbsp;&nbsp;&nbsp;&nbsp;&nbsp;&nbsp;&nbsp;&nbsp;&nbsp;&nbsp;&nbsp;&nbsp;&nbsp;&nbsp;&nbsp;4</p><p style=""font-size:14px"">Not at all familiar&nbsp;&nbsp;&nbsp;&nbsp;A little familiar&nbsp;&nbsp;&nbsp;Moderately familiar&nbsp;&nbsp;&nbsp;Extremely familiar</p><p>(press the corresponding number on your keyboard)</p>","","50","","","FAM-RESPONSE","","","","","","","","","","","","","","","","","","","sounds/B/FAM/N001.mp3","nonword","","","","","","","","","","","","","","","","","","",""
"html-keyboard-response","243","1435114","0.0-7.0-1.0-0.1","2","1","lod640l38mbgvlz","","null","","","","null","","","","","","","","","","","","","","","","","","","","","","","","","","","","","","","","","","","","","","","","","",""
"audio-keyboard-response","244","1436059","0.0-7.0-1.0-1.1","2","1","lod640l38mbgvlz","","null","","sounds/B/FAM/W003.mp3","","null","","","","","","","","","","","","","","","","","","","","","","","","","","","","","","","","","","","","","","","","","",""
"html-keyboard-response","245","1436610","0.0-7.0-1.0-2.1","2","1","lod640l38mbgvlz","","47.89999997615814","","<p>How familiar did this sound to you?</p><p>1&nbsp;&nbsp;&nbsp;&nbsp;&nbsp;&nbsp;&nbsp;&nbsp;&nbsp;&nbsp;&nbsp;&nbsp;&nbsp;&nbsp;&nbsp;&nbsp;&nbsp;&nbsp;&nbsp;2&nbsp;&nbsp;&nbsp;&nbsp;&nbsp;&nbsp;&nbsp;&nbsp;&nbsp;&nbsp;&nbsp;&nbsp;&nbsp;&nbsp;&nbsp;&nbsp;&nbsp;&nbsp;&nbsp;3&nbsp;&nbsp;&nbsp;&nbsp;&nbsp;&nbsp;&nbsp;&nbsp;&nbsp;&nbsp;&nbsp;&nbsp;&nbsp;&nbsp;&nbsp;&nbsp;&nbsp;&nbsp;&nbsp;4</p><p style=""font-size:14px"">Not at all familiar&nbsp;&nbsp;&nbsp;&nbsp;A little familiar&nbsp;&nbsp;&nbsp;Moderately familiar&nbsp;&nbsp;&nbsp;Extremely familiar</p><p>(press the corresponding number on your keyboard)</p>","","50","","","FAM-RESPONSE","","","","","","","","","","","","","","","","","","","sounds/B/FAM/W003.mp3","word","","","","","","","","","","","","","","","","","","",""
"html-keyboard-response","246","1438616","0.0-7.0-1.0-0.2","2","1","lod640l38mbgvlz","","null","","","","null","","","","","","","","","","","","","","","","","","","","","","","","","","","","","","","","","","","","","","","","","",""
"audio-keyboard-response","247","1439561","0.0-7.0-1.0-1.2","2","1","lod640l38mbgvlz","","null","","sounds/B/FAM/N002.mp3","","null","","","","","","","","","","","","","","","","","","","","","","","","","","","","","","","","","","","","","","","","","",""
"html-keyboard-response","248","1440510","0.0-7.0-1.0-2.2","2","1","lod640l38mbgvlz","","446.4000000357628","","<p>How familiar did this sound to you?</p><p>1&nbsp;&nbsp;&nbsp;&nbsp;&nbsp;&nbsp;&nbsp;&nbsp;&nbsp;&nbsp;&nbsp;&nbsp;&nbsp;&nbsp;&nbsp;&nbsp;&nbsp;&nbsp;&nbsp;2&nbsp;&nbsp;&nbsp;&nbsp;&nbsp;&nbsp;&nbsp;&nbsp;&nbsp;&nbsp;&nbsp;&nbsp;&nbsp;&nbsp;&nbsp;&nbsp;&nbsp;&nbsp;&nbsp;3&nbsp;&nbsp;&nbsp;&nbsp;&nbsp;&nbsp;&nbsp;&nbsp;&nbsp;&nbsp;&nbsp;&nbsp;&nbsp;&nbsp;&nbsp;&nbsp;&nbsp;&nbsp;&nbsp;4</p><p style=""font-size:14px"">Not at all familiar&nbsp;&nbsp;&nbsp;&nbsp;A little familiar&nbsp;&nbsp;&nbsp;Moderately familiar&nbsp;&nbsp;&nbsp;Extremely familiar</p><p>(press the corresponding number on your keyboard)</p>","","51","","","FAM-RESPONSE","","","","","","","","","","","","","","","","","","","sounds/B/FAM/N002.mp3","nonword","","","","","","","","","","","","","","","","","","",""
"html-keyboard-response","249","1442516","0.0-7.0-1.0-0.3","2","1","lod640l38mbgvlz","","null","","","","null","","","","","","","","","","","","","","","","","","","","","","","","","","","","","","","","","","","","","","","","","",""
"audio-keyboard-response","250","1443461","0.0-7.0-1.0-1.3","2","1","lod640l38mbgvlz","","null","","sounds/B/FAM/W002.mp3","","null","","","","","","","","","","","","","","","","","","","","","","","","","","","","","","","","","","","","","","","","","",""
"html-keyboard-response","251","1444335","0.0-7.0-1.0-2.3","2","1","lod640l38mbgvlz","","369.5","","<p>How familiar did this sound to you?</p><p>1&nbsp;&nbsp;&nbsp;&nbsp;&nbsp;&nbsp;&nbsp;&nbsp;&nbsp;&nbsp;&nbsp;&nbsp;&nbsp;&nbsp;&nbsp;&nbsp;&nbsp;&nbsp;&nbsp;2&nbsp;&nbsp;&nbsp;&nbsp;&nbsp;&nbsp;&nbsp;&nbsp;&nbsp;&nbsp;&nbsp;&nbsp;&nbsp;&nbsp;&nbsp;&nbsp;&nbsp;&nbsp;&nbsp;3&nbsp;&nbsp;&nbsp;&nbsp;&nbsp;&nbsp;&nbsp;&nbsp;&nbsp;&nbsp;&nbsp;&nbsp;&nbsp;&nbsp;&nbsp;&nbsp;&nbsp;&nbsp;&nbsp;4</p><p style=""font-size:14px"">Not at all familiar&nbsp;&nbsp;&nbsp;&nbsp;A little familiar&nbsp;&nbsp;&nbsp;Moderately familiar&nbsp;&nbsp;&nbsp;Extremely familiar</p><p>(press the corresponding number on your keyboard)</p>","","52","","","FAM-RESPONSE","","","","","","","","","","","","","","","","","","","sounds/B/FAM/W002.mp3","word","","","","","","","","","","","","","","","","","","",""
"html-keyboard-response","252","1446342","0.0-7.0-1.0-0.4","2","1","lod640l38mbgvlz","","null","","","","null","","","","","","","","","","","","","","","","","","","","","","","","","","","","","","","","","","","","","","","","","",""
"audio-keyboard-response","253","1447287","0.0-7.0-1.0-1.4","2","1","lod640l38mbgvlz","","null","","sounds/B/FAM/P002.mp3","","null","","","","","","","","","","","","","","","","","","","","","","","","","","","","","","","","","","","","","","","","","",""
"html-keyboard-response","254","1448067","0.0-7.0-1.0-2.4","2","1","lod640l38mbgvlz","","275.10000002384186","","<p>How familiar did this sound to you?</p><p>1&nbsp;&nbsp;&nbsp;&nbsp;&nbsp;&nbsp;&nbsp;&nbsp;&nbsp;&nbsp;&nbsp;&nbsp;&nbsp;&nbsp;&nbsp;&nbsp;&nbsp;&nbsp;&nbsp;2&nbsp;&nbsp;&nbsp;&nbsp;&nbsp;&nbsp;&nbsp;&nbsp;&nbsp;&nbsp;&nbsp;&nbsp;&nbsp;&nbsp;&nbsp;&nbsp;&nbsp;&nbsp;&nbsp;3&nbsp;&nbsp;&nbsp;&nbsp;&nbsp;&nbsp;&nbsp;&nbsp;&nbsp;&nbsp;&nbsp;&nbsp;&nbsp;&nbsp;&nbsp;&nbsp;&nbsp;&nbsp;&nbsp;4</p><p style=""font-size:14px"">Not at all familiar&nbsp;&nbsp;&nbsp;&nbsp;A little familiar&nbsp;&nbsp;&nbsp;Moderately familiar&nbsp;&nbsp;&nbsp;Extremely familiar</p><p>(press the corresponding number on your keyboard)</p>","","52","","","FAM-RESPONSE","","","","","","","","","","","","","","","","","","","sounds/B/FAM/P002.mp3","partword","","","","","","","","","","","","","","","","","","",""
"html-keyboard-response","255","1450075","0.0-7.0-1.0-0.5","2","1","lod640l38mbgvlz","","null","","","","null","","","","","","","","","","","","","","","","","","","","","","","","","","","","","","","","","","","","","","","","","",""
"audio-keyboard-response","256","1451023","0.0-7.0-1.0-1.5","2","1","lod640l38mbgvlz","","null","","sounds/B/FAM/W004.mp3","","null","","","","","","","","","","","","","","","","","","","","","","","","","","","","","","","","","","","","","","","","","",""
"html-keyboard-response","257","1452352","0.0-7.0-1.0-2.5","2","1","lod640l38mbgvlz","","822.5","","<p>How familiar did this sound to you?</p><p>1&nbsp;&nbsp;&nbsp;&nbsp;&nbsp;&nbsp;&nbsp;&nbsp;&nbsp;&nbsp;&nbsp;&nbsp;&nbsp;&nbsp;&nbsp;&nbsp;&nbsp;&nbsp;&nbsp;2&nbsp;&nbsp;&nbsp;&nbsp;&nbsp;&nbsp;&nbsp;&nbsp;&nbsp;&nbsp;&nbsp;&nbsp;&nbsp;&nbsp;&nbsp;&nbsp;&nbsp;&nbsp;&nbsp;3&nbsp;&nbsp;&nbsp;&nbsp;&nbsp;&nbsp;&nbsp;&nbsp;&nbsp;&nbsp;&nbsp;&nbsp;&nbsp;&nbsp;&nbsp;&nbsp;&nbsp;&nbsp;&nbsp;4</p><p style=""font-size:14px"">Not at all familiar&nbsp;&nbsp;&nbsp;&nbsp;A little familiar&nbsp;&nbsp;&nbsp;Moderately familiar&nbsp;&nbsp;&nbsp;Extremely familiar</p><p>(press the corresponding number on your keyboard)</p>","","51","","","FAM-RESPONSE","","","","","","","","","","","","","","","","","","","sounds/B/FAM/W004.mp3","word","","","","","","","","","","","","","","","","","","",""
"html-keyboard-response","258","1454358","0.0-7.0-1.0-0.6","2","1","lod640l38mbgvlz","","null","","","","null","","","","","","","","","","","","","","","","","","","","","","","","","","","","","","","","","","","","","","","","","",""
"audio-keyboard-response","259","1455302","0.0-7.0-1.0-1.6","2","1","lod640l38mbgvlz","","null","","sounds/B/FAM/P003.mp3","","null","","","","","","","","","","","","","","","","","","","","","","","","","","","","","","","","","","","","","","","","","",""
"html-keyboard-response","260","1456252","0.0-7.0-1.0-2.6","2","1","lod640l38mbgvlz","","445.10000002384186","","<p>How familiar did this sound to you?</p><p>1&nbsp;&nbsp;&nbsp;&nbsp;&nbsp;&nbsp;&nbsp;&nbsp;&nbsp;&nbsp;&nbsp;&nbsp;&nbsp;&nbsp;&nbsp;&nbsp;&nbsp;&nbsp;&nbsp;2&nbsp;&nbsp;&nbsp;&nbsp;&nbsp;&nbsp;&nbsp;&nbsp;&nbsp;&nbsp;&nbsp;&nbsp;&nbsp;&nbsp;&nbsp;&nbsp;&nbsp;&nbsp;&nbsp;3&nbsp;&nbsp;&nbsp;&nbsp;&nbsp;&nbsp;&nbsp;&nbsp;&nbsp;&nbsp;&nbsp;&nbsp;&nbsp;&nbsp;&nbsp;&nbsp;&nbsp;&nbsp;&nbsp;4</p><p style=""font-size:14px"">Not at all familiar&nbsp;&nbsp;&nbsp;&nbsp;A little familiar&nbsp;&nbsp;&nbsp;Moderately familiar&nbsp;&nbsp;&nbsp;Extremely familiar</p><p>(press the corresponding number on your keyboard)</p>","","49","","","FAM-RESPONSE","","","","","","","","","","","","","","","","","","","sounds/B/FAM/P003.mp3","partword","","","","","","","","","","","","","","","","","","",""
"html-keyboard-response","261","1458262","0.0-7.0-1.0-0.7","2","1","lod640l38mbgvlz","","null","","","","null","","","","","","","","","","","","","","","","","","","","","","","","","","","","","","","","","","","","","","","","","",""
"audio-keyboard-response","262","1459208","0.0-7.0-1.0-1.7","2","1","lod640l38mbgvlz","","null","","sounds/B/FAM/W001.mp3","","null","","","","","","","","","","","","","","","","","","","","","","","","","","","","","","","","","","","","","","","","","",""
"html-keyboard-response","263","1460025","0.0-7.0-1.0-2.7","2","1","lod640l38mbgvlz","","308.69999998807907","","<p>How familiar did this sound to you?</p><p>1&nbsp;&nbsp;&nbsp;&nbsp;&nbsp;&nbsp;&nbsp;&nbsp;&nbsp;&nbsp;&nbsp;&nbsp;&nbsp;&nbsp;&nbsp;&nbsp;&nbsp;&nbsp;&nbsp;2&nbsp;&nbsp;&nbsp;&nbsp;&nbsp;&nbsp;&nbsp;&nbsp;&nbsp;&nbsp;&nbsp;&nbsp;&nbsp;&nbsp;&nbsp;&nbsp;&nbsp;&nbsp;&nbsp;3&nbsp;&nbsp;&nbsp;&nbsp;&nbsp;&nbsp;&nbsp;&nbsp;&nbsp;&nbsp;&nbsp;&nbsp;&nbsp;&nbsp;&nbsp;&nbsp;&nbsp;&nbsp;&nbsp;4</p><p style=""font-size:14px"">Not at all familiar&nbsp;&nbsp;&nbsp;&nbsp;A little familiar&nbsp;&nbsp;&nbsp;Moderately familiar&nbsp;&nbsp;&nbsp;Extremely familiar</p><p>(press the corresponding number on your keyboard)</p>","","49","","","FAM-RESPONSE","","","","","","","","","","","","","","","","","","","sounds/B/FAM/W001.mp3","word","","","","","","","","","","","","","","","","","","",""
"html-keyboard-response","264","1462033","0.0-7.0-1.0-0.8","2","1","lod640l38mbgvlz","","null","","","","null","","","","","","","","","","","","","","","","","","","","","","","","","","","","","","","","","","","","","","","","","",""
"audio-keyboard-response","265","1462981","0.0-7.0-1.0-1.8","2","1","lod640l38mbgvlz","","null","","sounds/B/FAM/P001.mp3","","null","","","","","","","","","","","","","","","","","","","","","","","","","","","","","","","","","","","","","","","","","",""
"html-keyboard-response","266","1463783","0.0-7.0-1.0-2.8","2","1","lod640l38mbgvlz","","296.80000001192093","","<p>How familiar did this sound to you?</p><p>1&nbsp;&nbsp;&nbsp;&nbsp;&nbsp;&nbsp;&nbsp;&nbsp;&nbsp;&nbsp;&nbsp;&nbsp;&nbsp;&nbsp;&nbsp;&nbsp;&nbsp;&nbsp;&nbsp;2&nbsp;&nbsp;&nbsp;&nbsp;&nbsp;&nbsp;&nbsp;&nbsp;&nbsp;&nbsp;&nbsp;&nbsp;&nbsp;&nbsp;&nbsp;&nbsp;&nbsp;&nbsp;&nbsp;3&nbsp;&nbsp;&nbsp;&nbsp;&nbsp;&nbsp;&nbsp;&nbsp;&nbsp;&nbsp;&nbsp;&nbsp;&nbsp;&nbsp;&nbsp;&nbsp;&nbsp;&nbsp;&nbsp;4</p><p style=""font-size:14px"">Not at all familiar&nbsp;&nbsp;&nbsp;&nbsp;A little familiar&nbsp;&nbsp;&nbsp;Moderately familiar&nbsp;&nbsp;&nbsp;Extremely familiar</p><p>(press the corresponding number on your keyboard)</p>","","50","","","FAM-RESPONSE","","","","","","","","","","","","","","","","","","","sounds/B/FAM/P001.mp3","partword","","","","","","","","","","","","","","","","","","",""
"html-keyboard-response","267","1465789","0.0-7.0-1.0-0.9","2","1","lod640l38mbgvlz","","null","","","","null","","","","","","","","","","","","","","","","","","","","","","","","","","","","","","","","","","","","","","","","","",""
"audio-keyboard-response","268","1466733","0.0-7.0-1.0-1.9","2","1","lod640l38mbgvlz","","null","","sounds/B/FAM/N004.mp3","","null","","","","","","","","","","","","","","","","","","","","","","","","","","","","","","","","","","","","","","","","","",""
"html-keyboard-response","269","1467780","0.0-7.0-1.0-2.9","2","1","lod640l38mbgvlz","","542.6999999880791","","<p>How familiar did this sound to you?</p><p>1&nbsp;&nbsp;&nbsp;&nbsp;&nbsp;&nbsp;&nbsp;&nbsp;&nbsp;&nbsp;&nbsp;&nbsp;&nbsp;&nbsp;&nbsp;&nbsp;&nbsp;&nbsp;&nbsp;2&nbsp;&nbsp;&nbsp;&nbsp;&nbsp;&nbsp;&nbsp;&nbsp;&nbsp;&nbsp;&nbsp;&nbsp;&nbsp;&nbsp;&nbsp;&nbsp;&nbsp;&nbsp;&nbsp;3&nbsp;&nbsp;&nbsp;&nbsp;&nbsp;&nbsp;&nbsp;&nbsp;&nbsp;&nbsp;&nbsp;&nbsp;&nbsp;&nbsp;&nbsp;&nbsp;&nbsp;&nbsp;&nbsp;4</p><p style=""font-size:14px"">Not at all familiar&nbsp;&nbsp;&nbsp;&nbsp;A little familiar&nbsp;&nbsp;&nbsp;Moderately familiar&nbsp;&nbsp;&nbsp;Extremely familiar</p><p>(press the corresponding number on your keyboard)</p>","","51","","","FAM-RESPONSE","","","","","","","","","","","","","","","","","","","sounds/B/FAM/N004.mp3","nonword","","","","","","","","","","","","","","","","","","",""
"html-keyboard-response","270","1469787","0.0-7.0-1.0-0.10","2","1","lod640l38mbgvlz","","null","","","","null","","","","","","","","","","","","","","","","","","","","","","","","","","","","","","","","","","","","","","","","","",""
"audio-keyboard-response","271","1470729","0.0-7.0-1.0-1.10","2","1","lod640l38mbgvlz","","null","","sounds/B/FAM/N003.mp3","","null","","","","","","","","","","","","","","","","","","","","","","","","","","","","","","","","","","","","","","","","","",""
"html-keyboard-response","272","1471506","0.0-7.0-1.0-2.10","2","1","lod640l38mbgvlz","","270.30000001192093","","<p>How familiar did this sound to you?</p><p>1&nbsp;&nbsp;&nbsp;&nbsp;&nbsp;&nbsp;&nbsp;&nbsp;&nbsp;&nbsp;&nbsp;&nbsp;&nbsp;&nbsp;&nbsp;&nbsp;&nbsp;&nbsp;&nbsp;2&nbsp;&nbsp;&nbsp;&nbsp;&nbsp;&nbsp;&nbsp;&nbsp;&nbsp;&nbsp;&nbsp;&nbsp;&nbsp;&nbsp;&nbsp;&nbsp;&nbsp;&nbsp;&nbsp;3&nbsp;&nbsp;&nbsp;&nbsp;&nbsp;&nbsp;&nbsp;&nbsp;&nbsp;&nbsp;&nbsp;&nbsp;&nbsp;&nbsp;&nbsp;&nbsp;&nbsp;&nbsp;&nbsp;4</p><p style=""font-size:14px"">Not at all familiar&nbsp;&nbsp;&nbsp;&nbsp;A little familiar&nbsp;&nbsp;&nbsp;Moderately familiar&nbsp;&nbsp;&nbsp;Extremely familiar</p><p>(press the corresponding number on your keyboard)</p>","","51","","","FAM-RESPONSE","","","","","","","","","","","","","","","","","","","sounds/B/FAM/N003.mp3","nonword","","","","","","","","","","","","","","","","","","",""
"html-keyboard-response","273","1473516","0.0-7.0-1.0-0.11","2","1","lod640l38mbgvlz","","null","","","","null","","","","","","","","","","","","","","","","","","","","","","","","","","","","","","","","","","","","","","","","","",""
"audio-keyboard-response","274","1474460","0.0-7.0-1.0-1.11","2","1","lod640l38mbgvlz","","null","","sounds/B/FAM/P004.mp3","","null","","","","","","","","","","","","","","","","","","","","","","","","","","","","","","","","","","","","","","","","","",""
"html-keyboard-response","275","1475308","0.0-7.0-1.0-2.11","2","1","lod640l38mbgvlz","","341.19999998807907","","<p>How familiar did this sound to you?</p><p>1&nbsp;&nbsp;&nbsp;&nbsp;&nbsp;&nbsp;&nbsp;&nbsp;&nbsp;&nbsp;&nbsp;&nbsp;&nbsp;&nbsp;&nbsp;&nbsp;&nbsp;&nbsp;&nbsp;2&nbsp;&nbsp;&nbsp;&nbsp;&nbsp;&nbsp;&nbsp;&nbsp;&nbsp;&nbsp;&nbsp;&nbsp;&nbsp;&nbsp;&nbsp;&nbsp;&nbsp;&nbsp;&nbsp;3&nbsp;&nbsp;&nbsp;&nbsp;&nbsp;&nbsp;&nbsp;&nbsp;&nbsp;&nbsp;&nbsp;&nbsp;&nbsp;&nbsp;&nbsp;&nbsp;&nbsp;&nbsp;&nbsp;4</p><p style=""font-size:14px"">Not at all familiar&nbsp;&nbsp;&nbsp;&nbsp;A little familiar&nbsp;&nbsp;&nbsp;Moderately familiar&nbsp;&nbsp;&nbsp;Extremely familiar</p><p>(press the corresponding number on your keyboard)</p>","","52","","","FAM-RESPONSE","","","","","","","","","","","","","","","","","","","sounds/B/FAM/P004.mp3","partword","","","","","","","","","","","","","","","","","","",""
"html-button-response","276","1480645","0.0-8.0-0.0","2","1","lod640l38mbgvlz","","4330.399999976158","","<p>You will now listen to longer sound sequences.</p><p>Each sound sequence will last about 16 seconds.</p><p>On each trial, you will be given a <u>TARGET SOUND</u>. Your task is to listen very carefully for this sound.</p><p>Every time you hear the <u>TARGET SOUND</u>, you will press the <b>SPACEBAR</b> as quickly and accurately as you can.</p>","0","","","","","","","","","","","","","","","","","","","","","","","","","","","","","","","","","","","","","","","","","","",""
"html-button-response","277","1488495","0.0-8.0-1.0","2","1","lod640l38mbgvlz","","7595.199999988079","","<p>It is very important that you make your responses as quickly and accurately as possible.</p><p>To help you make your responses, you will be able to listen to the <u>TARGET SOUND</u> at the beginning of each trial.</p><p>There will be 36 total trials.</p><p><b>Note: This is meant to be a difficult task. We simply want you to try your best.</p>","0","","","","","","","","","","","","","","","","","","","","","","","","","","","","","","","","","","","","","","","","","","",""
"html-button-response","278","1490260","0.0-8.0-2.0-0.0","2","1","lod640l38mbgvlz","","1509.699999988079","","<p>Trial 1 of 36</p>","0","","","","","","","","","","","","","","","","","","","","","","","","","RE","sounds/syllables/re_SWS.wav","4200,6900,11400,13200","3","","","","","","","","","","","","","","",""
"html-keyboard-response","279","1490705","0.0-8.0-2.0-1.0","2","1","lod640l38mbgvlz","","443.30000001192093","","","","80","","","","","","","","","","","","","","","","","","","","","","","","RE","","4200,6900,11400,13200","3","","","","","","","","","","","","","","",""
"audio-keyboard-response","280","1491004","0.0-8.0-2.0-2.0-0.0","2","1","lod640l38mbgvlz","","null","","sounds/syllables/re_SWS.wav","","null","","","","","","","","","","","","","","","","","","","","","","","","","","","","","","","","","","","","","","","","","",""
"html-keyboard-response","281","1491096","0.0-8.0-2.0-2.0-1.0","2","1","lod640l38mbgvlz","","90.19999998807907","","<p>To replay the <u>TARGET SOUND</u>, press P.</p> When you are ready to begin, press SPACEBAR.","","80","","","","","","","","","","","","","","","","","","","","","","","","","","","","","","","","","","","","","","","","","",""
"audio-keyboard-response","282","1491900","0.0-8.0-2.0-2.1-0.1","2","1","lod640l38mbgvlz","","null","","sounds/syllables/re_SWS.wav","","null","","","","","","","","","","","","","","","","","","","","","","","","","","","","","","","","","","","","","","","","","",""
"html-keyboard-response","283","1491987","0.0-8.0-2.0-2.1-1.1","2","1","lod640l38mbgvlz","","85.90000003576279","","<p>To replay the <u>TARGET SOUND</u>, press P.</p> When you are ready to begin, press SPACEBAR.","","32","","","","","","","","","","","","","","","","","","","","","","","","","","","","","","","","","","","","","","","","","",""
"audio-keyboard-response","284","1506938","0.0-8.0-2.0-3.0","2","1","lod640l38mbgvlz","","1184","","sounds/B/TD/RE_03_TD.mp3","","32","","","TD_SUMMARY","","","","","","","","","","","","","","","","","","","","","RE","","4200,6900,11400,13200","3","4200","6900","11400","13200","606.0999999642372","335.80000001192093","282","602.1999999880791","1180.3999999761581_1754.300000011921_2396.800000011921_3284.599999964237_4806.099999964237_5634.699999988079_6325.5_7235.800000011921_8118.300000011921_9101.5_9973.399999976158_10822.599999964237_11682_12780.699999988079_13802.199999988079","2","","","","",""
"html-button-response","285","1509421","0.0-8.0-2.0-0.1","2","1","lod640l38mbgvlz","","2479.300000011921","","<p>Trial 2 of 36</p>","0","","","","","","","","","","","","","","","","","","","","","","","","","FE","sounds/syllables/fe_SWS.wav","1500,4200,7800,12300","3","","","","","","","","","","","","","","",""
"html-keyboard-response","286","1511507","0.0-8.0-2.0-1.1","2","1","lod640l38mbgvlz","","2084.2999999523163","","","","80","","","","","","","","","","","","","","","","","","","","","","","","FE","","1500,4200,7800,12300","3","","","","","","","","","","","","","","",""
"audio-keyboard-response","287","1511809","0.0-8.0-2.0-2.2-0.2","2","1","lod640l38mbgvlz","","null","","sounds/syllables/fe_SWS.wav","","null","","","","","","","","","","","","","","","","","","","","","","","","","","","","","","","","","","","","","","","","","",""
"html-keyboard-response","288","1511940","0.0-8.0-2.0-2.2-1.2","2","1","lod640l38mbgvlz","","130.10000002384186","","<p>To replay the <u>TARGET SOUND</u>, press P.</p> When you are ready to begin, press SPACEBAR.","","80","","","","","","","","","","","","","","","","","","","","","","","","","","","","","","","","","","","","","","","","","",""
"audio-keyboard-response","289","1512741","0.0-8.0-2.0-2.3-0.3","2","1","lod640l38mbgvlz","","null","","sounds/syllables/fe_SWS.wav","","null","","","","","","","","","","","","","","","","","","","","","","","","","","","","","","","","","","","","","","","","","",""
"html-keyboard-response","290","1512871","0.0-8.0-2.0-2.3-1.3","2","1","lod640l38mbgvlz","","128","","<p>To replay the <u>TARGET SOUND</u>, press P.</p> When you are ready to begin, press SPACEBAR.","","32","","","","","","","","","","","","","","","","","","","","","","","","","","","","","","","","","","","","","","","","","",""
"audio-keyboard-response","291","1527817","0.0-8.0-2.0-3.1","2","1","lod640l38mbgvlz","","592","","sounds/B/TD/FE_08_TD.mp3","","32","","","TD_SUMMARY","","","","","","","","","","","","","","","","","","","","","FE","","1500,4200,7800,12300","3","1500","4200","7800","12300","524.8000000119209","1123.300000011921","413.30000001192093","903.1999999880791","_______________592.6000000238419_1149.4000000357628_2024.800000011921_4550.699999988079_5323.300000011921_6158.600000023842_7325.400000035763_7651.5_8213.300000011921_9002.600000023842_9600_10521.800000011921_11395.100000023842_12231.300000011921_13203.199999988079_14288.699999988079","2","","","","",""
"html-button-response","292","1530913","0.0-8.0-2.0-0.2","2","1","lod640l38mbgvlz","","3092.899999976158","","<p>Trial 3 of 36</p>","0","","","","","","","","","","","","","","","","","","","","","","","","","TA","sounds/syllables/ta_SWS.wav","1500,3300,9600,11400","3","","","","","","","","","","","","","","",""
"html-keyboard-response","293","1531542","0.0-8.0-2.0-1.2","2","1","lod640l38mbgvlz","","628.1000000238419","","","","80","","","","","","","","","","","","","","","","","","","","","","","","TA","","1500,3300,9600,11400","3","","","","","","","","","","","","","","",""
"audio-keyboard-response","294","1531851","0.0-8.0-2.0-2.4-0.4","2","1","lod640l38mbgvlz","","null","","sounds/syllables/ta_SWS.wav","","null","","","","","","","","","","","","","","","","","","","","","","","","","","","","","","","","","","","","","","","","","",""
"html-keyboard-response","295","1531913","0.0-8.0-2.0-2.4-1.4","2","1","lod640l38mbgvlz","","61.30000001192093","","<p>To replay the <u>TARGET SOUND</u>, press P.</p> When you are ready to begin, press SPACEBAR.","","80","","","","","","","","","","","","","","","","","","","","","","","","","","","","","","","","","","","","","","","","","",""
"audio-keyboard-response","296","1532719","0.0-8.0-2.0-2.5-0.5","2","1","lod640l38mbgvlz","","null","","sounds/syllables/ta_SWS.wav","","null","","","","","","","","","","","","","","","","","","","","","","","","","","","","","","","","","","","","","","","","","",""
"html-keyboard-response","297","1532828","0.0-8.0-2.0-2.5-1.5","2","1","lod640l38mbgvlz","","107.09999996423721","","<p>To replay the <u>TARGET SOUND</u>, press P.</p> When you are ready to begin, press SPACEBAR.","","32","","","","","","","","","","","","","","","","","","","","","","","","","","","","","","","","","","","","","","","","","",""
"audio-keyboard-response","298","1547774","0.0-8.0-2.0-3.2","2","1","lod640l38mbgvlz","","1328","","sounds/B/TD/TA_02_TD.mp3","","32","","","TD_SUMMARY","","","","","","","","","","","","","","","","","","","","","TA","","1500,3300,9600,11400","3","1500","3300","9600","11400","428.89999997615814","891.1999999880791","747","840.3000000119209","_______________________________1325.0999999642372_1928.8999999761581_3430.399999976158_4191.199999988079_5327.5_6335.699999988079_8083.399999976158_9271.199999988079_10347_11629.899999976158_12240.300000011921_13243.800000011921_14068.5","2","","","","",""
"html-button-response","299","1551859","0.0-8.0-2.0-0.3","2","1","lod640l38mbgvlz","","4081","","<p>Trial 4 of 36</p>","0","","","","","","","","","","","","","","","","","","","","","","","","","RE","sounds/syllables/re_SWS.wav","1500,5100,7800,11400","3","","","","","","","","","","","","","","",""
"html-keyboard-response","300","1552561","0.0-8.0-2.0-1.3","2","1","lod640l38mbgvlz","","697.3000000119209","","","","80","","","","","","","","","","","","","","","","","","","","","","","","RE","","1500,5100,7800,11400","3","","","","","","","","","","","","","","",""
"audio-keyboard-response","301","1552863","0.0-8.0-2.0-2.6-0.6","2","1","lod640l38mbgvlz","","null","","sounds/syllables/re_SWS.wav","","null","","","","","","","","","","","","","","","","","","","","","","","","","","","","","","","","","","","","","","","","","",""
"html-keyboard-response","302","1553150","0.0-8.0-2.0-2.6-1.6","2","1","lod640l38mbgvlz","","285.60000002384186","","<p>To replay the <u>TARGET SOUND</u>, press P.</p> When you are ready to begin, press SPACEBAR.","","80","","","","","","","","","","","","","","","","","","","","","","","","","","","","","","","","","","","","","","","","","",""
"audio-keyboard-response","303","1553955","0.0-8.0-2.0-2.7-0.7","2","1","lod640l38mbgvlz","","null","","sounds/syllables/re_SWS.wav","","null","","","","","","","","","","","","","","","","","","","","","","","","","","","","","","","","","","","","","","","","","",""
"html-keyboard-response","304","1554511","0.0-8.0-2.0-2.7-1.7","2","1","lod640l38mbgvlz","","554","","<p>To replay the <u>TARGET SOUND</u>, press P.</p> When you are ready to begin, press SPACEBAR.","","80","","","","","","","","","","","","","","","","","","","","","","","","","","","","","","","","","","","","","","","","","",""
"audio-keyboard-response","305","1555314","0.0-8.0-2.0-2.8-0.8","2","1","lod640l38mbgvlz","","null","","sounds/syllables/re_SWS.wav","","null","","","","","","","","","","","","","","","","","","","","","","","","","","","","","","","","","","","","","","","","","",""
"html-keyboard-response","306","1556692","0.0-8.0-2.0-2.8-1.8","2","1","lod640l38mbgvlz","","1375.5","","<p>To replay the <u>TARGET SOUND</u>, press P.</p> When you are ready to begin, press SPACEBAR.","","32","","","","","","","","","","","","","","","","","","","","","","","","","","","","","","","","","","","","","","","","","",""
"audio-keyboard-response","307","1571637","0.0-8.0-2.0-3.3","2","1","lod640l38mbgvlz","","864","","sounds/B/TD/RE_06_TD.mp3","","32","","","TD_SUMMARY","","","","","","","","","","","","","","","","","","","","","RE","","1500,5100,7800,11400","3","1500","5100","7800","11400","null","703.5","913.9000000357628","282.5","____________________________________________859.5_1699_2749.800000011921_3899_4312.199999988079_4808.199999988079_5803.5_6553.199999988079_7721.100000023842_8713.900000035763_9536.300000011921_11192.5_11682.5_13091_13951","3","","","","",""
"html-button-response","308","1573430","0.0-8.0-2.0-0.4","2","1","lod640l38mbgvlz","","1788.0999999642372","","<p>Trial 5 of 36</p>","0","","","","","","","","","","","","","","","","","","","","","","","","","FE","sounds/syllables/fe_SWS.wav","2400,5100,8700,12300","3","","","","","","","","","","","","","","",""
"html-keyboard-response","309","1574242","0.0-8.0-2.0-1.4","2","1","lod640l38mbgvlz","","807.4000000357628","","","","80","","","","","","","","","","","","","","","","","","","","","","","","FE","","2400,5100,8700,12300","3","","","","","","","","","","","","","","",""
"audio-keyboard-response","310","1574546","0.0-8.0-2.0-2.9-0.9","2","1","lod640l38mbgvlz","","null","","sounds/syllables/fe_SWS.wav","","null","","","","","","","","","","","","","","","","","","","","","","","","","","","","","","","","","","","","","","","","","",""
"html-keyboard-response","311","1575247","0.0-8.0-2.0-2.9-1.9","2","1","lod640l38mbgvlz","","697.6000000238419","","<p>To replay the <u>TARGET SOUND</u>, press P.</p> When you are ready to begin, press SPACEBAR.","","80","","","","","","","","","","","","","","","","","","","","","","","","","","","","","","","","","","","","","","","","","",""
"audio-keyboard-response","312","1576049","0.0-8.0-2.0-2.10-0.10","2","1","lod640l38mbgvlz","","null","","sounds/syllables/fe_SWS.wav","","null","","","","","","","","","","","","","","","","","","","","","","","","","","","","","","","","","","","","","","","","","",""
