"trial_type","trial_index","time_elapsed","internal_node_id","counterbalance","lang_instruct","ParticipantID","view_history","rt","url","stimulus","button_pressed","key_press","correctRESP","correct","designation","location","correctanswer","responses","sentence","keywords","typed_resp","keyword1_acc","keyword2_acc","keyword3_acc","keyword4_acc","keyword5_acc","total_acc","prop_acc","timeouts","pause_rt01","pause_rt02","train_file","numKeyPress","sound","fam_type","SYLLABLE","EXEMPLAR","TD_LOCS","TD_TYPE","TDLOC_01","TDLOC_02","TDLOC_03","TDLOC_04","TD_RT_01","TD_RT_02","TD_RT_03","TD_RT_04","TD_SUBJ_RTs","number_of_plays","slider_start","response","question_order","syllable","syllable_type"
"pavlovia","0","4","0.0-0.0","3","1","n0ejn740kq3azov","","","","","","","","","","","","","","","","","","","","","","","","","","","","","","","","","","","","","","","","","","","","","","","",""
"instructions","1","136567","0.0-1.0","3","1","n0ejn740kq3azov","[{""page_index"":0,""viewing_time"":131991.30000001192},{""page_index"":1,""viewing_time"":4566.300000011921}]","136560.40000003576","","","","","","","","","","","","","","","","","","","","","","","","","","","","","","","","","","","","","","","","","","","","","",""
"external-html","2","144402","0.0-2.0","3","1","n0ejn740kq3azov","","7821.199999988079","consent/consent.html","","","","","","","","","","","","","","","","","","","","","","","","","","","","","","","","","","","","","","","","","","","","",""
"html-button-response","3","145988","0.0-3.0-0.0-0.0","3","1","n0ejn740kq3azov","","1584","","<p>Welcome to the study. You will first complete a short volume calibration and headphone check.</p><p>Please make sure you are in a quiet listening environment, that you are wearing headphones, and that your computer's volume is turned on.<p></p>","0","","","","","","","","","","","","","","","","","","","","","","","","","","","","","","","","","","","","","","","","","","",""
"html-button-response","4","147515","0.0-3.0-0.0-1.0","3","1","n0ejn740kq3azov","","1269.5","","<p>The volume calibration will be first.</p><p>You will hear a thirty-second noise. Please adjust your computer's volume so that this noise is being presented at a comfortable level.<p></p>","0","","","","","","","","","","","","","","","","","","","","","","","","","","","","","","","","","","","","","","","","","","",""
"audio-button-response","5","149504","0.0-3.0-0.0-2.0","3","1","n0ejn740kq3azov","","1196","","audCalib/volumetest.mp3","0","","","","","","","","","","","","","","","","","","","","","","","","","","","","","","","","","","","","","","","","","","",""
"html-button-response","6","151521","0.0-3.0-1.0-0.0","3","1","n0ejn740kq3azov","","2015.1000000238419","","<p>You will now complete a short headphone check.</p><p>On each trial, you will hear three tones. One of these tones will be quieter than the others. Your task is to identify whether the quiet tone occured first, second, or third.</p><p>There are six trials in total.<p></p>","0","","","","","","","","","","","","","","","","","","","","","","","","","","","","","","","","","","","","","","","","","","",""
"html-keyboard-response","7","152279","0.0-3.0-1.0-1.0-0.0","3","1","n0ejn740kq3azov","","null","","<div style=""font-size:60px;"">+</div>","","null","","","","","","","","","","","","","","","","","","","","","","","","","","","","","","","","","","","","","","","","","",""
"audio-button-response","8","156922","0.0-3.0-1.0-1.0-1.0","3","1","n0ejn740kq3azov","","4638","","audCalib/t3_2.mp3","2","","2","1","headphone-test","","","","","","","","","","","","","","","","","","","","","","","","","","","","","","","","","","","","","","",""
"html-keyboard-response","9","157681","0.0-3.0-1.0-1.0-0.1","3","1","n0ejn740kq3azov","","null","","<div style=""font-size:60px;"">+</div>","","null","","","","","","","","","","","","","","","","","","","","","","","","","","","","","","","","","","","","","","","","","",""
"audio-button-response","10","161872","0.0-3.0-1.0-1.0-1.1","3","1","n0ejn740kq3azov","","4191","","audCalib/t1_2.mp3","0","","0","1","headphone-test","","","","","","","","","","","","","","","","","","","","","","","","","","","","","","","","","","","","","","",""
"html-keyboard-response","11","162630","0.0-3.0-1.0-1.0-0.2","3","1","n0ejn740kq3azov","","null","","<div style=""font-size:60px;"">+</div>","","null","","","","","","","","","","","","","","","","","","","","","","","","","","","","","","","","","","","","","","","","","",""
"audio-button-response","12","166774","0.0-3.0-1.0-1.0-1.2","3","1","n0ejn740kq3azov","","4139","","audCalib/t2_2.mp3","1","","1","1","headphone-test","","","","","","","","","","","","","","","","","","","","","","","","","","","","","","","","","","","","","","",""
"html-keyboard-response","13","167534","0.0-3.0-1.0-1.0-0.3","3","1","n0ejn740kq3azov","","null","","<div style=""font-size:60px;"">+</div>","","null","","","","","","","","","","","","","","","","","","","","","","","","","","","","","","","","","","","","","","","","","",""
"audio-button-response","14","171752","0.0-3.0-1.0-1.0-1.3","3","1","n0ejn740kq3azov","","4214","","audCalib/t2_1.mp3","1","","1","1","headphone-test","","","","","","","","","","","","","","","","","","","","","","","","","","","","","","","","","","","","","","",""
"html-keyboard-response","15","172509","0.0-3.0-1.0-1.0-0.4","3","1","n0ejn740kq3azov","","null","","<div style=""font-size:60px;"">+</div>","","null","","","","","","","","","","","","","","","","","","","","","","","","","","","","","","","","","","","","","","","","","",""
"audio-button-response","16","176426","0.0-3.0-1.0-1.0-1.4","3","1","n0ejn740kq3azov","","3913","","audCalib/t3_1.mp3","2","","2","1","headphone-test","","","","","","","","","","","","","","","","","","","","","","","","","","","","","","","","","","","","","","",""
"html-keyboard-response","17","177182","0.0-3.0-1.0-1.0-0.5","3","1","n0ejn740kq3azov","","null","","<div style=""font-size:60px;"">+</div>","","null","","","","","","","","","","","","","","","","","","","","","","","","","","","","","","","","","","","","","","","","","",""
"audio-button-response","18","181281","0.0-3.0-1.0-1.0-1.5","3","1","n0ejn740kq3azov","","4098","","audCalib/t1_1.mp3","0","","0","1","headphone-test","","","","","","","","","","","","","","","","","","","","","","","","","","","","","","","","","","","","","","",""
"html-button-response","19","182251","0.0-3.0-2.0","3","1","n0ejn740kq3azov","","716.1000000238419","","<p>The volume calibration and headphone check are now complete.</p>","0","","","","","","","","","","","","","","","","","","","","","","","","","","","","","","","","","","","","","","","","","","",""
"instructions","20","186739","0.0-4.0-0.0","3","1","n0ejn740kq3azov","[{""page_index"":0,""viewing_time"":961.6000000238419},{""page_index"":1,""viewing_time"":2353.600000023842},{""page_index"":2,""viewing_time"":1170.7999999523163}]","4486.5","","","","","","","","","","","","","","","","","","","","","","","","","","","","","","","","","","","","","","","","","","","","","",""
"audio-keyboard-response","21","187039","0.0-4.0-1.0-0.0","3","1","n0ejn740kq3azov","","null","","sounds/induction/right/su_SWS.wav","","null","","","","","","","","","","","","","","","","","","","","","","","","","","","","","","","","","","","","","","","","","",""
"html-button-response","22","188703","0.0-4.0-1.0-1.0","3","1","n0ejn740kq3azov","","1662.1000000238419","","What sound did you hear?","1","","","1","INDUCTION-JUDGMENT","right","1","","","","","","","","","","","","","","","","","","","","","","","","","","","","","","","","","","","","",""
"html-keyboard-response","23","189707","0.0-4.0-1.0-2.0","3","1","n0ejn740kq3azov","","null","","<p style=""color:green;""><b>Correct!</b></p>","","null","","","","","","","","","","","","","","","","","","","","","","","","","","","","","","","","","","","","","","","","","",""
"audio-keyboard-response","24","190510","0.0-4.0-1.0-0.1","3","1","n0ejn740kq3azov","","null","","sounds/induction/left/ta_SWS.wav","","null","","","","","","","","","","","","","","","","","","","","","","","","","","","","","","","","","","","","","","","","","",""
"html-button-response","25","191793","0.0-4.0-1.0-1.1","3","1","n0ejn740kq3azov","","1280.9000000357628","","What sound did you hear?","0","","","1","INDUCTION-JUDGMENT","left","0","","","","","","","","","","","","","","","","","","","","","","","","","","","","","","","","","","","","",""
"html-keyboard-response","26","192798","0.0-4.0-1.0-2.1","3","1","n0ejn740kq3azov","","null","","<p style=""color:green;""><b>Correct!</b></p>","","null","","","","","","","","","","","","","","","","","","","","","","","","","","","","","","","","","","","","","","","","","",""
"audio-keyboard-response","27","193604","0.0-4.0-1.0-0.2","3","1","n0ejn740kq3azov","","null","","sounds/induction/right/pu_SWS.wav","","null","","","","","","","","","","","","","","","","","","","","","","","","","","","","","","","","","","","","","","","","","",""
"html-button-response","28","194466","0.0-4.0-1.0-1.2","3","1","n0ejn740kq3azov","","860.1000000238419","","What sound did you hear?","0","","","0","INDUCTION-JUDGMENT","right","1","","","","","","","","","","","","","","","","","","","","","","","","","","","","","","","","","","","","",""
"html-keyboard-response","29","195468","0.0-4.0-1.0-2.2","3","1","n0ejn740kq3azov","","null","","<p style=""color:red;""><b>Incorrect!</b></p>","","null","","","","","","","","","","","","","","","","","","","","","","","","","","","","","","","","","","","","","","","","","",""
"audio-keyboard-response","30","196269","0.0-4.0-1.0-0.3","3","1","n0ejn740kq3azov","","null","","sounds/induction/left/me_SWS.wav","","null","","","","","","","","","","","","","","","","","","","","","","","","","","","","","","","","","","","","","","","","","",""
"html-button-response","31","197757","0.0-4.0-1.0-1.3","3","1","n0ejn740kq3azov","","1486.3999999761581","","What sound did you hear?","1","","","1","INDUCTION-JUDGMENT","left","1","","","","","","","","","","","","","","","","","","","","","","","","","","","","","","","","","","","","",""
"html-keyboard-response","32","198758","0.0-4.0-1.0-2.3","3","1","n0ejn740kq3azov","","null","","<p style=""color:green;""><b>Correct!</b></p>","","null","","","","","","","","","","","","","","","","","","","","","","","","","","","","","","","","","","","","","","","","","",""
"audio-keyboard-response","33","199561","0.0-4.0-1.0-0.4","3","1","n0ejn740kq3azov","","null","","sounds/induction/right/ru_SWS.wav","","null","","","","","","","","","","","","","","","","","","","","","","","","","","","","","","","","","","","","","","","","","",""
"html-button-response","34","200478","0.0-4.0-1.0-1.4","3","1","n0ejn740kq3azov","","915.6999999880791","","What sound did you hear?","1","","","1","INDUCTION-JUDGMENT","right","1","","","","","","","","","","","","","","","","","","","","","","","","","","","","","","","","","","","","",""
"html-keyboard-response","35","201479","0.0-4.0-1.0-2.4","3","1","n0ejn740kq3azov","","null","","<p style=""color:green;""><b>Correct!</b></p>","","null","","","","","","","","","","","","","","","","","","","","","","","","","","","","","","","","","","","","","","","","","",""
"audio-keyboard-response","36","202283","0.0-4.0-1.0-0.5","3","1","n0ejn740kq3azov","","null","","sounds/induction/right/me_SWS.wav","","null","","","","","","","","","","","","","","","","","","","","","","","","","","","","","","","","","","","","","","","","","",""
"html-button-response","37","203553","0.0-4.0-1.0-1.5","3","1","n0ejn740kq3azov","","1268.7999999523163","","What sound did you hear?","0","","","1","INDUCTION-JUDGMENT","right","0","","","","","","","","","","","","","","","","","","","","","","","","","","","","","","","","","","","","",""
"html-keyboard-response","38","204557","0.0-4.0-1.0-2.5","3","1","n0ejn740kq3azov","","null","","<p style=""color:green;""><b>Correct!</b></p>","","null","","","","","","","","","","","","","","","","","","","","","","","","","","","","","","","","","","","","","","","","","",""
"audio-keyboard-response","39","205360","0.0-4.0-1.0-0.6","3","1","n0ejn740kq3azov","","null","","sounds/induction/right/me_SWS.wav","","null","","","","","","","","","","","","","","","","","","","","","","","","","","","","","","","","","","","","","","","","","",""
"html-button-response","40","205986","0.0-4.0-1.0-1.6","3","1","n0ejn740kq3azov","","625","","What sound did you hear?","0","","","1","INDUCTION-JUDGMENT","right","0","","","","","","","","","","","","","","","","","","","","","","","","","","","","","","","","","","","","",""
"html-keyboard-response","41","206991","0.0-4.0-1.0-2.6","3","1","n0ejn740kq3azov","","null","","<p style=""color:green;""><b>Correct!</b></p>","","null","","","","","","","","","","","","","","","","","","","","","","","","","","","","","","","","","","","","","","","","","",""
"audio-keyboard-response","42","207792","0.0-4.0-1.0-0.7","3","1","n0ejn740kq3azov","","null","","sounds/induction/left/ti_SWS.wav","","null","","","","","","","","","","","","","","","","","","","","","","","","","","","","","","","","","","","","","","","","","",""
"html-button-response","43","208575","0.0-4.0-1.0-1.7","3","1","n0ejn740kq3azov","","782.3000000119209","","What sound did you hear?","0","","","1","INDUCTION-JUDGMENT","left","0","","","","","","","","","","","","","","","","","","","","","","","","","","","","","","","","","","","","",""
"html-keyboard-response","44","209578","0.0-4.0-1.0-2.7","3","1","n0ejn740kq3azov","","null","","<p style=""color:green;""><b>Correct!</b></p>","","null","","","","","","","","","","","","","","","","","","","","","","","","","","","","","","","","","","","","","","","","","",""
"audio-keyboard-response","45","210381","0.0-4.0-1.0-0.8","3","1","n0ejn740kq3azov","","null","","sounds/induction/left/fu_SWS.wav","","null","","","","","","","","","","","","","","","","","","","","","","","","","","","","","","","","","","","","","","","","","",""
"html-button-response","46","211314","0.0-4.0-1.0-1.8","3","1","n0ejn740kq3azov","","931.8000000119209","","What sound did you hear?","1","","","1","INDUCTION-JUDGMENT","left","1","","","","","","","","","","","","","","","","","","","","","","","","","","","","","","","","","","","","",""
"html-keyboard-response","47","212316","0.0-4.0-1.0-2.8","3","1","n0ejn740kq3azov","","null","","<p style=""color:green;""><b>Correct!</b></p>","","null","","","","","","","","","","","","","","","","","","","","","","","","","","","","","","","","","","","","","","","","","",""
"audio-keyboard-response","48","213115","0.0-4.0-1.0-0.9","3","1","n0ejn740kq3azov","","null","","sounds/induction/right/ni_SWS.wav","","null","","","","","","","","","","","","","","","","","","","","","","","","","","","","","","","","","","","","","","","","","",""
"html-button-response","49","214562","0.0-4.0-1.0-1.9","3","1","n0ejn740kq3azov","","1445.699999988079","","What sound did you hear?","0","","","1","INDUCTION-JUDGMENT","right","0","","","","","","","","","","","","","","","","","","","","","","","","","","","","","","","","","","","","",""
"html-keyboard-response","50","215568","0.0-4.0-1.0-2.9","3","1","n0ejn740kq3azov","","null","","<p style=""color:green;""><b>Correct!</b></p>","","null","","","","","","","","","","","","","","","","","","","","","","","","","","","","","","","","","","","","","","","","","",""
"audio-keyboard-response","51","216372","0.0-4.0-1.0-0.10","3","1","n0ejn740kq3azov","","null","","sounds/induction/right/fe_SWS.wav","","null","","","","","","","","","","","","","","","","","","","","","","","","","","","","","","","","","","","","","","","","","",""
"html-button-response","52","217692","0.0-4.0-1.0-1.10","3","1","n0ejn740kq3azov","","1319.3999999761581","","What sound did you hear?","0","","","1","INDUCTION-JUDGMENT","right","0","","","","","","","","","","","","","","","","","","","","","","","","","","","","","","","","","","","","",""
"html-keyboard-response","53","218694","0.0-4.0-1.0-2.10","3","1","n0ejn740kq3azov","","null","","<p style=""color:green;""><b>Correct!</b></p>","","null","","","","","","","","","","","","","","","","","","","","","","","","","","","","","","","","","","","","","","","","","",""
"audio-keyboard-response","54","219495","0.0-4.0-1.0-0.11","3","1","n0ejn740kq3azov","","null","","sounds/induction/right/ta_SWS.wav","","null","","","","","","","","","","","","","","","","","","","","","","","","","","","","","","","","","","","","","","","","","",""
"html-button-response","55","220578","0.0-4.0-1.0-1.11","3","1","n0ejn740kq3azov","","1081.7999999523163","","What sound did you hear?","1","","","1","INDUCTION-JUDGMENT","right","1","","","","","","","","","","","","","","","","","","","","","","","","","","","","","","","","","","","","",""
"html-keyboard-response","56","221583","0.0-4.0-1.0-2.11","3","1","n0ejn740kq3azov","","null","","<p style=""color:green;""><b>Correct!</b></p>","","null","","","","","","","","","","","","","","","","","","","","","","","","","","","","","","","","","","","","","","","","","",""
"audio-keyboard-response","57","222386","0.0-4.0-1.0-0.12","3","1","n0ejn740kq3azov","","null","","sounds/induction/left/pu_SWS.wav","","null","","","","","","","","","","","","","","","","","","","","","","","","","","","","","","","","","","","","","","","","","",""
"html-button-response","58","224266","0.0-4.0-1.0-1.12","3","1","n0ejn740kq3azov","","1879.1000000238419","","What sound did you hear?","0","","","1","INDUCTION-JUDGMENT","left","0","","","","","","","","","","","","","","","","","","","","","","","","","","","","","","","","","","","","",""
"html-keyboard-response","59","225268","0.0-4.0-1.0-2.12","3","1","n0ejn740kq3azov","","null","","<p style=""color:green;""><b>Correct!</b></p>","","null","","","","","","","","","","","","","","","","","","","","","","","","","","","","","","","","","","","","","","","","","",""
"audio-keyboard-response","60","226072","0.0-4.0-1.0-0.13","3","1","n0ejn740kq3azov","","null","","sounds/induction/left/ge_SWS.wav","","null","","","","","","","","","","","","","","","","","","","","","","","","","","","","","","","","","","","","","","","","","",""
"html-button-response","61","227927","0.0-4.0-1.0-1.13","3","1","n0ejn740kq3azov","","1854","","What sound did you hear?","1","","","1","INDUCTION-JUDGMENT","left","1","","","","","","","","","","","","","","","","","","","","","","","","","","","","","","","","","","","","",""
"html-keyboard-response","62","228932","0.0-4.0-1.0-2.13","3","1","n0ejn740kq3azov","","null","","<p style=""color:green;""><b>Correct!</b></p>","","null","","","","","","","","","","","","","","","","","","","","","","","","","","","","","","","","","","","","","","","","","",""
"audio-keyboard-response","63","229735","0.0-4.0-1.0-0.14","3","1","n0ejn740kq3azov","","null","","sounds/induction/right/re_SWS.wav","","null","","","","","","","","","","","","","","","","","","","","","","","","","","","","","","","","","","","","","","","","","",""
"html-button-response","64","230704","0.0-4.0-1.0-1.14","3","1","n0ejn740kq3azov","","967.6000000238419","","What sound did you hear?","1","","","1","INDUCTION-JUDGMENT","right","1","","","","","","","","","","","","","","","","","","","","","","","","","","","","","","","","","","","","",""
"html-keyboard-response","65","231707","0.0-4.0-1.0-2.14","3","1","n0ejn740kq3azov","","null","","<p style=""color:green;""><b>Correct!</b></p>","","null","","","","","","","","","","","","","","","","","","","","","","","","","","","","","","","","","","","","","","","","","",""
"audio-keyboard-response","66","232510","0.0-4.0-1.0-0.15","3","1","n0ejn740kq3azov","","null","","sounds/induction/left/pu_SWS.wav","","null","","","","","","","","","","","","","","","","","","","","","","","","","","","","","","","","","","","","","","","","","",""
"html-button-response","67","234074","0.0-4.0-1.0-1.15","3","1","n0ejn740kq3azov","","1563.3999999761581","","What sound did you hear?","0","","","1","INDUCTION-JUDGMENT","left","0","","","","","","","","","","","","","","","","","","","","","","","","","","","","","","","","","","","","",""
"html-keyboard-response","68","235076","0.0-4.0-1.0-2.15","3","1","n0ejn740kq3azov","","null","","<p style=""color:green;""><b>Correct!</b></p>","","null","","","","","","","","","","","","","","","","","","","","","","","","","","","","","","","","","","","","","","","","","",""
"audio-keyboard-response","69","235877","0.0-4.0-1.0-0.16","3","1","n0ejn740kq3azov","","null","","sounds/induction/right/ti_SWS.wav","","null","","","","","","","","","","","","","","","","","","","","","","","","","","","","","","","","","","","","","","","","","",""
"html-button-response","70","237412","0.0-4.0-1.0-1.16","3","1","n0ejn740kq3azov","","1533.1000000238419","","What sound did you hear?","1","","","1","INDUCTION-JUDGMENT","right","1","","","","","","","","","","","","","","","","","","","","","","","","","","","","","","","","","","","","",""
"html-keyboard-response","71","238418","0.0-4.0-1.0-2.16","3","1","n0ejn740kq3azov","","null","","<p style=""color:green;""><b>Correct!</b></p>","","null","","","","","","","","","","","","","","","","","","","","","","","","","","","","","","","","","","","","","","","","","",""
"audio-keyboard-response","72","239220","0.0-4.0-1.0-0.17","3","1","n0ejn740kq3azov","","null","","sounds/induction/left/fe_SWS.wav","","null","","","","","","","","","","","","","","","","","","","","","","","","","","","","","","","","","","","","","","","","","",""
"html-button-response","73","240070","0.0-4.0-1.0-1.17","3","1","n0ejn740kq3azov","","848.7999999523163","","What sound did you hear?","1","","","1","INDUCTION-JUDGMENT","left","1","","","","","","","","","","","","","","","","","","","","","","","","","","","","","","","","","","","","",""
"html-keyboard-response","74","241072","0.0-4.0-1.0-2.17","3","1","n0ejn740kq3azov","","null","","<p style=""color:green;""><b>Correct!</b></p>","","null","","","","","","","","","","","","","","","","","","","","","","","","","","","","","","","","","","","","","","","","","",""
"audio-keyboard-response","75","241873","0.0-4.0-1.0-0.18","3","1","n0ejn740kq3azov","","null","","sounds/induction/left/me_SWS.wav","","null","","","","","","","","","","","","","","","","","","","","","","","","","","","","","","","","","","","","","","","","","",""
"html-button-response","76","242867","0.0-4.0-1.0-1.18","3","1","n0ejn740kq3azov","","992.8000000119209","","What sound did you hear?","1","","","1","INDUCTION-JUDGMENT","left","1","","","","","","","","","","","","","","","","","","","","","","","","","","","","","","","","","","","","",""
"html-keyboard-response","77","243870","0.0-4.0-1.0-2.18","3","1","n0ejn740kq3azov","","null","","<p style=""color:green;""><b>Correct!</b></p>","","null","","","","","","","","","","","","","","","","","","","","","","","","","","","","","","","","","","","","","","","","","",""
"audio-keyboard-response","78","244677","0.0-4.0-1.0-0.19","3","1","n0ejn740kq3azov","","null","","sounds/induction/left/ru_SWS.wav","","null","","","","","","","","","","","","","","","","","","","","","","","","","","","","","","","","","","","","","","","","","",""
"html-button-response","79","245781","0.0-4.0-1.0-1.19","3","1","n0ejn740kq3azov","","1102.5999999642372","","What sound did you hear?","0","","","1","INDUCTION-JUDGMENT","left","0","","","","","","","","","","","","","","","","","","","","","","","","","","","","","","","","","","","","",""
"html-keyboard-response","80","246785","0.0-4.0-1.0-2.19","3","1","n0ejn740kq3azov","","null","","<p style=""color:green;""><b>Correct!</b></p>","","null","","","","","","","","","","","","","","","","","","","","","","","","","","","","","","","","","","","","","","","","","",""
"audio-keyboard-response","81","247591","0.0-4.0-1.0-0.20","3","1","n0ejn740kq3azov","","null","","sounds/induction/left/ge_SWS.wav","","null","","","","","","","","","","","","","","","","","","","","","","","","","","","","","","","","","","","","","","","","","",""
"html-button-response","82","248479","0.0-4.0-1.0-1.20","3","1","n0ejn740kq3azov","","886.6999999880791","","What sound did you hear?","1","","","1","INDUCTION-JUDGMENT","left","1","","","","","","","","","","","","","","","","","","","","","","","","","","","","","","","","","","","","",""
"html-keyboard-response","83","249484","0.0-4.0-1.0-2.20","3","1","n0ejn740kq3azov","","null","","<p style=""color:green;""><b>Correct!</b></p>","","null","","","","","","","","","","","","","","","","","","","","","","","","","","","","","","","","","","","","","","","","","",""
"audio-keyboard-response","84","250291","0.0-4.0-1.0-0.21","3","1","n0ejn740kq3azov","","null","","sounds/induction/left/ko_SWS.wav","","null","","","","","","","","","","","","","","","","","","","","","","","","","","","","","","","","","","","","","","","","","",""
"html-button-response","85","251369","0.0-4.0-1.0-1.21","3","1","n0ejn740kq3azov","","1077.6000000238419","","What sound did you hear?","0","","","0","INDUCTION-JUDGMENT","left","1","","","","","","","","","","","","","","","","","","","","","","","","","","","","","","","","","","","","",""
"html-keyboard-response","86","252373","0.0-4.0-1.0-2.21","3","1","n0ejn740kq3azov","","null","","<p style=""color:red;""><b>Incorrect!</b></p>","","null","","","","","","","","","","","","","","","","","","","","","","","","","","","","","","","","","","","","","","","","","",""
"audio-keyboard-response","87","253176","0.0-4.0-1.0-0.22","3","1","n0ejn740kq3azov","","null","","sounds/induction/left/su_SWS.wav","","null","","","","","","","","","","","","","","","","","","","","","","","","","","","","","","","","","","","","","","","","","",""
"html-button-response","88","254425","0.0-4.0-1.0-1.22","3","1","n0ejn740kq3azov","","1247.6000000238419","","What sound did you hear?","0","","","1","INDUCTION-JUDGMENT","left","0","","","","","","","","","","","","","","","","","","","","","","","","","","","","","","","","","","","","",""
"html-keyboard-response","89","255430","0.0-4.0-1.0-2.22","3","1","n0ejn740kq3azov","","null","","<p style=""color:green;""><b>Correct!</b></p>","","null","","","","","","","","","","","","","","","","","","","","","","","","","","","","","","","","","","","","","","","","","",""
"audio-keyboard-response","90","256229","0.0-4.0-1.0-0.23","3","1","n0ejn740kq3azov","","null","","sounds/induction/right/ge_SWS.wav","","null","","","","","","","","","","","","","","","","","","","","","","","","","","","","","","","","","","","","","","","","","",""
"html-button-response","91","258116","0.0-4.0-1.0-1.23","3","1","n0ejn740kq3azov","","1886.199999988079","","What sound did you hear?","0","","","1","INDUCTION-JUDGMENT","right","0","","","","","","","","","","","","","","","","","","","","","","","","","","","","","","","","","","","","",""
"html-keyboard-response","92","259120","0.0-4.0-1.0-2.23","3","1","n0ejn740kq3azov","","null","","<p style=""color:green;""><b>Correct!</b></p>","","null","","","","","","","","","","","","","","","","","","","","","","","","","","","","","","","","","","","","","","","","","",""
"audio-keyboard-response","93","259921","0.0-4.0-1.0-0.24","3","1","n0ejn740kq3azov","","null","","sounds/induction/left/ru_SWS.wav","","null","","","","","","","","","","","","","","","","","","","","","","","","","","","","","","","","","","","","","","","","","",""
"html-button-response","94","260581","0.0-4.0-1.0-1.24","3","1","n0ejn740kq3azov","","658.2999999523163","","What sound did you hear?","0","","","1","INDUCTION-JUDGMENT","left","0","","","","","","","","","","","","","","","","","","","","","","","","","","","","","","","","","","","","",""
"html-keyboard-response","95","261585","0.0-4.0-1.0-2.24","3","1","n0ejn740kq3azov","","null","","<p style=""color:green;""><b>Correct!</b></p>","","null","","","","","","","","","","","","","","","","","","","","","","","","","","","","","","","","","","","","","","","","","",""
"audio-keyboard-response","96","262388","0.0-4.0-1.0-0.25","3","1","n0ejn740kq3azov","","null","","sounds/induction/right/ko_SWS.wav","","null","","","","","","","","","","","","","","","","","","","","","","","","","","","","","","","","","","","","","","","","","",""
"html-button-response","97","263679","0.0-4.0-1.0-1.25","3","1","n0ejn740kq3azov","","1289.3999999761581","","What sound did you hear?","0","","","1","INDUCTION-JUDGMENT","right","0","","","","","","","","","","","","","","","","","","","","","","","","","","","","","","","","","","","","",""
"html-keyboard-response","98","264681","0.0-4.0-1.0-2.25","3","1","n0ejn740kq3azov","","null","","<p style=""color:green;""><b>Correct!</b></p>","","null","","","","","","","","","","","","","","","","","","","","","","","","","","","","","","","","","","","","","","","","","",""
"audio-keyboard-response","99","265488","0.0-4.0-1.0-0.26","3","1","n0ejn740kq3azov","","null","","sounds/induction/left/su_SWS.wav","","null","","","","","","","","","","","","","","","","","","","","","","","","","","","","","","","","","","","","","","","","","",""
"html-button-response","100","266381","0.0-4.0-1.0-1.26","3","1","n0ejn740kq3azov","","892.1999999880791","","What sound did you hear?","0","","","1","INDUCTION-JUDGMENT","left","0","","","","","","","","","","","","","","","","","","","","","","","","","","","","","","","","","","","","",""
"html-keyboard-response","101","267388","0.0-4.0-1.0-2.26","3","1","n0ejn740kq3azov","","null","","<p style=""color:green;""><b>Correct!</b></p>","","null","","","","","","","","","","","","","","","","","","","","","","","","","","","","","","","","","","","","","","","","","",""
"audio-keyboard-response","102","268188","0.0-4.0-1.0-0.27","3","1","n0ejn740kq3azov","","null","","sounds/induction/left/ko_SWS.wav","","null","","","","","","","","","","","","","","","","","","","","","","","","","","","","","","","","","","","","","","","","","",""
"html-button-response","103","270326","0.0-4.0-1.0-1.27","3","1","n0ejn740kq3azov","","2137.600000023842","","What sound did you hear?","1","","","1","INDUCTION-JUDGMENT","left","1","","","","","","","","","","","","","","","","","","","","","","","","","","","","","","","","","","","","",""
"html-keyboard-response","104","271328","0.0-4.0-1.0-2.27","3","1","n0ejn740kq3azov","","null","","<p style=""color:green;""><b>Correct!</b></p>","","null","","","","","","","","","","","","","","","","","","","","","","","","","","","","","","","","","","","","","","","","","",""
"audio-keyboard-response","105","272135","0.0-4.0-1.0-0.28","3","1","n0ejn740kq3azov","","null","","sounds/induction/right/pu_SWS.wav","","null","","","","","","","","","","","","","","","","","","","","","","","","","","","","","","","","","","","","","","","","","",""
"html-button-response","106","272864","0.0-4.0-1.0-1.28","3","1","n0ejn740kq3azov","","727.8000000119209","","What sound did you hear?","0","","","0","INDUCTION-JUDGMENT","right","1","","","","","","","","","","","","","","","","","","","","","","","","","","","","","","","","","","","","",""
"html-keyboard-response","107","273865","0.0-4.0-1.0-2.28","3","1","n0ejn740kq3azov","","null","","<p style=""color:red;""><b>Incorrect!</b></p>","","null","","","","","","","","","","","","","","","","","","","","","","","","","","","","","","","","","","","","","","","","","",""
"audio-keyboard-response","108","274666","0.0-4.0-1.0-0.29","3","1","n0ejn740kq3azov","","null","","sounds/induction/right/fu_SWS.wav","","null","","","","","","","","","","","","","","","","","","","","","","","","","","","","","","","","","","","","","","","","","",""
"html-button-response","109","275746","0.0-4.0-1.0-1.29","3","1","n0ejn740kq3azov","","1079.199999988079","","What sound did you hear?","0","","","1","INDUCTION-JUDGMENT","right","0","","","","","","","","","","","","","","","","","","","","","","","","","","","","","","","","","","","","",""
"html-keyboard-response","110","276752","0.0-4.0-1.0-2.29","3","1","n0ejn740kq3azov","","null","","<p style=""color:green;""><b>Correct!</b></p>","","null","","","","","","","","","","","","","","","","","","","","","","","","","","","","","","","","","","","","","","","","","",""
"audio-keyboard-response","111","277557","0.0-4.0-1.0-0.30","3","1","n0ejn740kq3azov","","null","","sounds/induction/right/ko_SWS.wav","","null","","","","","","","","","","","","","","","","","","","","","","","","","","","","","","","","","","","","","","","","","",""
"html-button-response","112","279399","0.0-4.0-1.0-1.30","3","1","n0ejn740kq3azov","","1840.5","","What sound did you hear?","0","","","1","INDUCTION-JUDGMENT","right","0","","","","","","","","","","","","","","","","","","","","","","","","","","","","","","","","","","","","",""
"html-keyboard-response","113","280401","0.0-4.0-1.0-2.30","3","1","n0ejn740kq3azov","","null","","<p style=""color:green;""><b>Correct!</b></p>","","null","","","","","","","","","","","","","","","","","","","","","","","","","","","","","","","","","","","","","","","","","",""
"audio-keyboard-response","114","281202","0.0-4.0-1.0-0.31","3","1","n0ejn740kq3azov","","null","","sounds/induction/left/fu_SWS.wav","","null","","","","","","","","","","","","","","","","","","","","","","","","","","","","","","","","","","","","","","","","","",""
"html-button-response","115","282354","0.0-4.0-1.0-1.31","3","1","n0ejn740kq3azov","","1149.800000011921","","What sound did you hear?","1","","","1","INDUCTION-JUDGMENT","left","1","","","","","","","","","","","","","","","","","","","","","","","","","","","","","","","","","","","","",""
"html-keyboard-response","116","283356","0.0-4.0-1.0-2.31","3","1","n0ejn740kq3azov","","null","","<p style=""color:green;""><b>Correct!</b></p>","","null","","","","","","","","","","","","","","","","","","","","","","","","","","","","","","","","","","","","","","","","","",""
"audio-keyboard-response","117","284157","0.0-4.0-1.0-0.32","3","1","n0ejn740kq3azov","","null","","sounds/induction/left/re_SWS.wav","","null","","","","","","","","","","","","","","","","","","","","","","","","","","","","","","","","","","","","","","","","","",""
"html-button-response","118","284938","0.0-4.0-1.0-1.32","3","1","n0ejn740kq3azov","","779.3999999761581","","What sound did you hear?","0","","","1","INDUCTION-JUDGMENT","left","0","","","","","","","","","","","","","","","","","","","","","","","","","","","","","","","","","","","","",""
"html-keyboard-response","119","285940","0.0-4.0-1.0-2.32","3","1","n0ejn740kq3azov","","null","","<p style=""color:green;""><b>Correct!</b></p>","","null","","","","","","","","","","","","","","","","","","","","","","","","","","","","","","","","","","","","","","","","","",""
"audio-keyboard-response","120","286741","0.0-4.0-1.0-0.33","3","1","n0ejn740kq3azov","","null","","sounds/induction/right/fe_SWS.wav","","null","","","","","","","","","","","","","","","","","","","","","","","","","","","","","","","","","","","","","","","","","",""
"html-button-response","121","287970","0.0-4.0-1.0-1.33","3","1","n0ejn740kq3azov","","1227.699999988079","","What sound did you hear?","0","","","1","INDUCTION-JUDGMENT","right","0","","","","","","","","","","","","","","","","","","","","","","","","","","","","","","","","","","","","",""
"html-keyboard-response","122","288974","0.0-4.0-1.0-2.33","3","1","n0ejn740kq3azov","","null","","<p style=""color:green;""><b>Correct!</b></p>","","null","","","","","","","","","","","","","","","","","","","","","","","","","","","","","","","","","","","","","","","","","",""
"audio-keyboard-response","123","289777","0.0-4.0-1.0-0.34","3","1","n0ejn740kq3azov","","null","","sounds/induction/left/ni_SWS.wav","","null","","","","","","","","","","","","","","","","","","","","","","","","","","","","","","","","","","","","","","","","","",""
"html-button-response","124","290947","0.0-4.0-1.0-1.34","3","1","n0ejn740kq3azov","","1169.300000011921","","What sound did you hear?","1","","","1","INDUCTION-JUDGMENT","left","1","","","","","","","","","","","","","","","","","","","","","","","","","","","","","","","","","","","","",""
"html-keyboard-response","125","291949","0.0-4.0-1.0-2.34","3","1","n0ejn740kq3azov","","null","","<p style=""color:green;""><b>Correct!</b></p>","","null","","","","","","","","","","","","","","","","","","","","","","","","","","","","","","","","","","","","","","","","","",""
"audio-keyboard-response","126","292749","0.0-4.0-1.0-0.35","3","1","n0ejn740kq3azov","","null","","sounds/induction/left/re_SWS.wav","","null","","","","","","","","","","","","","","","","","","","","","","","","","","","","","","","","","","","","","","","","","",""
"html-button-response","127","293620","0.0-4.0-1.0-1.35","3","1","n0ejn740kq3azov","","869.7000000476837","","What sound did you hear?","0","","","1","INDUCTION-JUDGMENT","left","0","","","","","","","","","","","","","","","","","","","","","","","","","","","","","","","","","","","","",""
"html-keyboard-response","128","294624","0.0-4.0-1.0-2.35","3","1","n0ejn740kq3azov","","null","","<p style=""color:green;""><b>Correct!</b></p>","","null","","","","","","","","","","","","","","","","","","","","","","","","","","","","","","","","","","","","","","","","","",""
"audio-keyboard-response","129","295425","0.0-4.0-1.0-0.36","3","1","n0ejn740kq3azov","","null","","sounds/induction/right/ti_SWS.wav","","null","","","","","","","","","","","","","","","","","","","","","","","","","","","","","","","","","","","","","","","","","",""
"html-button-response","130","296437","0.0-4.0-1.0-1.36","3","1","n0ejn740kq3azov","","1010.6000000238419","","What sound did you hear?","1","","","1","INDUCTION-JUDGMENT","right","1","","","","","","","","","","","","","","","","","","","","","","","","","","","","","","","","","","","","",""
"html-keyboard-response","131","297438","0.0-4.0-1.0-2.36","3","1","n0ejn740kq3azov","","null","","<p style=""color:green;""><b>Correct!</b></p>","","null","","","","","","","","","","","","","","","","","","","","","","","","","","","","","","","","","","","","","","","","","",""
"audio-keyboard-response","132","298240","0.0-4.0-1.0-0.37","3","1","n0ejn740kq3azov","","null","","sounds/induction/left/ti_SWS.wav","","null","","","","","","","","","","","","","","","","","","","","","","","","","","","","","","","","","","","","","","","","","",""
"html-button-response","133","298985","0.0-4.0-1.0-1.37","3","1","n0ejn740kq3azov","","743.8000000119209","","What sound did you hear?","0","","","1","INDUCTION-JUDGMENT","left","0","","","","","","","","","","","","","","","","","","","","","","","","","","","","","","","","","","","","",""
"html-keyboard-response","134","299988","0.0-4.0-1.0-2.37","3","1","n0ejn740kq3azov","","null","","<p style=""color:green;""><b>Correct!</b></p>","","null","","","","","","","","","","","","","","","","","","","","","","","","","","","","","","","","","","","","","","","","","",""
"audio-keyboard-response","135","300789","0.0-4.0-1.0-0.38","3","1","n0ejn740kq3azov","","null","","sounds/induction/right/ni_SWS.wav","","null","","","","","","","","","","","","","","","","","","","","","","","","","","","","","","","","","","","","","","","","","",""
"html-button-response","136","301666","0.0-4.0-1.0-1.38","3","1","n0ejn740kq3azov","","876.3000000119209","","What sound did you hear?","1","","","0","INDUCTION-JUDGMENT","right","0","","","","","","","","","","","","","","","","","","","","","","","","","","","","","","","","","","","","",""
"html-keyboard-response","137","302669","0.0-4.0-1.0-2.38","3","1","n0ejn740kq3azov","","null","","<p style=""color:red;""><b>Incorrect!</b></p>","","null","","","","","","","","","","","","","","","","","","","","","","","","","","","","","","","","","","","","","","","","","",""
"audio-keyboard-response","138","303471","0.0-4.0-1.0-0.39","3","1","n0ejn740kq3azov","","null","","sounds/induction/right/re_SWS.wav","","null","","","","","","","","","","","","","","","","","","","","","","","","","","","","","","","","","","","","","","","","","",""
"html-button-response","139","304352","0.0-4.0-1.0-1.39","3","1","n0ejn740kq3azov","","880.5","","What sound did you hear?","1","","","1","INDUCTION-JUDGMENT","right","1","","","","","","","","","","","","","","","","","","","","","","","","","","","","","","","","","","","","",""
"html-keyboard-response","140","305358","0.0-4.0-1.0-2.39","3","1","n0ejn740kq3azov","","null","","<p style=""color:green;""><b>Correct!</b></p>","","null","","","","","","","","","","","","","","","","","","","","","","","","","","","","","","","","","","","","","","","","","",""
"audio-keyboard-response","141","306158","0.0-4.0-1.0-0.40","3","1","n0ejn740kq3azov","","null","","sounds/induction/left/ta_SWS.wav","","null","","","","","","","","","","","","","","","","","","","","","","","","","","","","","","","","","","","","","","","","","",""
"html-button-response","142","307515","0.0-4.0-1.0-1.40","3","1","n0ejn740kq3azov","","1355","","What sound did you hear?","0","","","1","INDUCTION-JUDGMENT","left","0","","","","","","","","","","","","","","","","","","","","","","","","","","","","","","","","","","","","",""
"html-keyboard-response","143","308516","0.0-4.0-1.0-2.40","3","1","n0ejn740kq3azov","","null","","<p style=""color:green;""><b>Correct!</b></p>","","null","","","","","","","","","","","","","","","","","","","","","","","","","","","","","","","","","","","","","","","","","",""
"audio-keyboard-response","144","309322","0.0-4.0-1.0-0.41","3","1","n0ejn740kq3azov","","null","","sounds/induction/right/fu_SWS.wav","","null","","","","","","","","","","","","","","","","","","","","","","","","","","","","","","","","","","","","","","","","","",""
"html-button-response","145","310646","0.0-4.0-1.0-1.41","3","1","n0ejn740kq3azov","","1322.8999999761581","","What sound did you hear?","0","","","1","INDUCTION-JUDGMENT","right","0","","","","","","","","","","","","","","","","","","","","","","","","","","","","","","","","","","","","",""
"html-keyboard-response","146","311650","0.0-4.0-1.0-2.41","3","1","n0ejn740kq3azov","","null","","<p style=""color:green;""><b>Correct!</b></p>","","null","","","","","","","","","","","","","","","","","","","","","","","","","","","","","","","","","","","","","","","","","",""
"audio-keyboard-response","147","312451","0.0-4.0-1.0-0.42","3","1","n0ejn740kq3azov","","null","","sounds/induction/left/ni_SWS.wav","","null","","","","","","","","","","","","","","","","","","","","","","","","","","","","","","","","","","","","","","","","","",""
"html-button-response","148","313697","0.0-4.0-1.0-1.42","3","1","n0ejn740kq3azov","","1244.3999999761581","","What sound did you hear?","1","","","1","INDUCTION-JUDGMENT","left","1","","","","","","","","","","","","","","","","","","","","","","","","","","","","","","","","","","","","",""
"html-keyboard-response","149","314702","0.0-4.0-1.0-2.42","3","1","n0ejn740kq3azov","","null","","<p style=""color:green;""><b>Correct!</b></p>","","null","","","","","","","","","","","","","","","","","","","","","","","","","","","","","","","","","","","","","","","","","",""
"audio-keyboard-response","150","315505","0.0-4.0-1.0-0.43","3","1","n0ejn740kq3azov","","null","","sounds/induction/left/fe_SWS.wav","","null","","","","","","","","","","","","","","","","","","","","","","","","","","","","","","","","","","","","","","","","","",""
"html-button-response","151","316322","0.0-4.0-1.0-1.43","3","1","n0ejn740kq3azov","","816.1999999880791","","What sound did you hear?","1","","","1","INDUCTION-JUDGMENT","left","1","","","","","","","","","","","","","","","","","","","","","","","","","","","","","","","","","","","","",""
"html-keyboard-response","152","317327","0.0-4.0-1.0-2.43","3","1","n0ejn740kq3azov","","null","","<p style=""color:green;""><b>Correct!</b></p>","","null","","","","","","","","","","","","","","","","","","","","","","","","","","","","","","","","","","","","","","","","","",""
"audio-keyboard-response","153","318128","0.0-4.0-1.0-0.44","3","1","n0ejn740kq3azov","","null","","sounds/induction/right/su_SWS.wav","","null","","","","","","","","","","","","","","","","","","","","","","","","","","","","","","","","","","","","","","","","","",""
"html-button-response","154","319220","0.0-4.0-1.0-1.44","3","1","n0ejn740kq3azov","","1090.4000000357628","","What sound did you hear?","1","","","1","INDUCTION-JUDGMENT","right","1","","","","","","","","","","","","","","","","","","","","","","","","","","","","","","","","","","","","",""
"html-keyboard-response","155","320222","0.0-4.0-1.0-2.44","3","1","n0ejn740kq3azov","","null","","<p style=""color:green;""><b>Correct!</b></p>","","null","","","","","","","","","","","","","","","","","","","","","","","","","","","","","","","","","","","","","","","","","",""
"audio-keyboard-response","156","321025","0.0-4.0-1.0-0.45","3","1","n0ejn740kq3azov","","null","","sounds/induction/right/ta_SWS.wav","","null","","","","","","","","","","","","","","","","","","","","","","","","","","","","","","","","","","","","","","","","","",""
"html-button-response","157","322607","0.0-4.0-1.0-1.45","3","1","n0ejn740kq3azov","","1580.800000011921","","What sound did you hear?","1","","","1","INDUCTION-JUDGMENT","right","1","","","","","","","","","","","","","","","","","","","","","","","","","","","","","","","","","","","","",""
"html-keyboard-response","158","323614","0.0-4.0-1.0-2.45","3","1","n0ejn740kq3azov","","null","","<p style=""color:green;""><b>Correct!</b></p>","","null","","","","","","","","","","","","","","","","","","","","","","","","","","","","","","","","","","","","","","","","","",""
"audio-keyboard-response","159","324421","0.0-4.0-1.0-0.46","3","1","n0ejn740kq3azov","","null","","sounds/induction/right/ge_SWS.wav","","null","","","","","","","","","","","","","","","","","","","","","","","","","","","","","","","","","","","","","","","","","",""
"html-button-response","160","325905","0.0-4.0-1.0-1.46","3","1","n0ejn740kq3azov","","1483.1000000238419","","What sound did you hear?","0","","","1","INDUCTION-JUDGMENT","right","0","","","","","","","","","","","","","","","","","","","","","","","","","","","","","","","","","","","","",""
"html-keyboard-response","161","326909","0.0-4.0-1.0-2.46","3","1","n0ejn740kq3azov","","null","","<p style=""color:green;""><b>Correct!</b></p>","","null","","","","","","","","","","","","","","","","","","","","","","","","","","","","","","","","","","","","","","","","","",""
"audio-keyboard-response","162","327712","0.0-4.0-1.0-0.47","3","1","n0ejn740kq3azov","","null","","sounds/induction/right/ru_SWS.wav","","null","","","","","","","","","","","","","","","","","","","","","","","","","","","","","","","","","","","","","","","","","",""
"html-button-response","163","328459","0.0-4.0-1.0-1.47","3","1","n0ejn740kq3azov","","745.5","","What sound did you hear?","1","","","1","INDUCTION-JUDGMENT","right","1","","","","","","","","","","","","","","","","","","","","","","","","","","","","","","","","","","","","",""
"html-keyboard-response","164","329464","0.0-4.0-1.0-2.47","3","1","n0ejn740kq3azov","","null","","<p style=""color:green;""><b>Correct!</b></p>","","null","","","","","","","","","","","","","","","","","","","","","","","","","","","","","","","","","","","","","","","","","",""
"html-button-response","165","332288","0.0-5.0-0.0","3","1","n0ejn740kq3azov","","2322","","<p>Thank you for your answers.</p><p>You will now listen to similar sounds. The main difference is that the sounds will be longer and will make up complete sentences.</p><p>Please listen carefully to each sentence. After each sentence, you will be asked to type back what you heard to the best of your ability. After you provide your response, you will be given feedback about the correct answer.</p><p>There are 10 sentences in total.","0","","","","","","","","","","","","","","","","","","","","","","","","","","","","","","","","","","","","","","","","","","",""
"audio-keyboard-response","166","334841","0.0-5.0-1.0-0.0","3","1","n0ejn740kq3azov","","null","","sounds/sentences/left/14_04_cfSWS.wav","","null","","","","","","","","","","","","","","","","","","","","","","","","","","","","","","","","","","","","","","","","","",""
"sentence-resp","167","344294","0.0-5.0-1.0-1.0","3","1","n0ejn740kq3azov","","9451","","","","","","","SWS-SENT-RESPONSE","","","{""Q0"":""everything is less than ten""}","Two plus seven is less than ten.","two,plus,seven,less,ten","EVERYTHING IS LESS THAN TEN","0","0","0","1","1","2","0.4","","","","","","","","","","","","","","","","","","","","","","","","","",""
"html-keyboard-response","168","345553","0.0-5.0-1.0-2.0","3","1","n0ejn740kq3azov","","null","","","","null","","","","","","","","","","","","","","","","","","","","","","","","","","","","","","","","","","","","","","","","","",""
"audio-keyboard-response","169","347606","0.0-5.0-1.0-3.0","3","1","n0ejn740kq3azov","","null","","sounds/sentences/left/14_04_cfSWS.wav","","null","","","","","","","","","","","","","","","","","","","","","","","","","","","","","","","","","","","","","","","","","",""
"html-keyboard-response","170","348611","0.0-5.0-1.0-4.0","3","1","n0ejn740kq3azov","","null","","","","null","","","","","","","","","","","","","","","","","","","","","","","","","","","","","","","","","","","","","","","","","",""
"html-button-response","171","349911","0.0-5.0-1.0-5.0","3","1","n0ejn740kq3azov","","797.9000000357628","","<p>Press the button below when you are ready to continue.</p>","0","","","","","","","","","","","","","","","","","","","","","","","","","","","","","","","","","","","","","","","","","","",""
"audio-keyboard-response","172","352726","0.0-5.0-1.0-0.1","3","1","n0ejn740kq3azov","","null","","sounds/sentences/left/14_02_cfSWS.wav","","null","","","","","","","","","","","","","","","","","","","","","","","","","","","","","","","","","","","","","","","","","",""
"sentence-resp","173","359531","0.0-5.0-1.0-1.1","3","1","n0ejn740kq3azov","","6804","","","","","","","SWS-SENT-RESPONSE","","","{""Q0"":""he said the same thing thirty times""}","He said the same phrase thirty times.","said,same,phrase,thirty,times","HE SAID THE SAME THING THIRTY TIMES","1","1","0","1","1","4","0.8","","","","","","","","","","","","","","","","","","","","","","","","","",""
"html-keyboard-response","174","360792","0.0-5.0-1.0-2.1","3","1","n0ejn740kq3azov","","null","","","","null","","","","","","","","","","","","","","","","","","","","","","","","","","","","","","","","","","","","","","","","","",""
"audio-keyboard-response","175","363106","0.0-5.0-1.0-3.1","3","1","n0ejn740kq3azov","","null","","sounds/sentences/left/14_02_cfSWS.wav","","null","","","","","","","","","","","","","","","","","","","","","","","","","","","","","","","","","","","","","","","","","",""
"html-keyboard-response","176","364111","0.0-5.0-1.0-4.1","3","1","n0ejn740kq3azov","","null","","","","null","","","","","","","","","","","","","","","","","","","","","","","","","","","","","","","","","","","","","","","","","",""
"html-button-response","177","365322","0.0-5.0-1.0-5.1","3","1","n0ejn740kq3azov","","707.1999999880791","","<p>Press the button below when you are ready to continue.</p>","0","","","","","","","","","","","","","","","","","","","","","","","","","","","","","","","","","","","","","","","","","","",""
"audio-keyboard-response","178","368214","0.0-5.0-1.0-0.2","3","1","n0ejn740kq3azov","","null","","sounds/sentences/right/14_07_cfSWS.wav","","null","","","","","","","","","","","","","","","","","","","","","","","","","","","","","","","","","","","","","","","","","",""
"sentence-resp","179","378691","0.0-5.0-1.0-1.2","3","1","n0ejn740kq3azov","","10476","","","","","","","SWS-SENT-RESPONSE","","","{""Q0"":""something the friends you cherish""}","Write a fond note to the friend you cherish.","write,fond,note,friend,cherish","SOMETHING THE FRIENDS YOU CHERISH","0","0","0","0","1","1","0.2","","","","","","","","","","","","","","","","","","","","","","","","","",""
"html-keyboard-response","180","379948","0.0-5.0-1.0-2.2","3","1","n0ejn740kq3azov","","null","","","","null","","","","","","","","","","","","","","","","","","","","","","","","","","","","","","","","","","","","","","","","","",""
"audio-keyboard-response","181","382338","0.0-5.0-1.0-3.2","3","1","n0ejn740kq3azov","","null","","sounds/sentences/right/14_07_cfSWS.wav","","null","","","","","","","","","","","","","","","","","","","","","","","","","","","","","","","","","","","","","","","","","",""
"html-keyboard-response","182","383342","0.0-5.0-1.0-4.2","3","1","n0ejn740kq3azov","","null","","","","null","","","","","","","","","","","","","","","","","","","","","","","","","","","","","","","","","","","","","","","","","",""
"html-button-response","183","384605","0.0-5.0-1.0-5.2","3","1","n0ejn740kq3azov","","760","","<p>Press the button below when you are ready to continue.</p>","0","","","","","","","","","","","","","","","","","","","","","","","","","","","","","","","","","","","","","","","","","","",""
"audio-keyboard-response","184","387365","0.0-5.0-1.0-0.3","3","1","n0ejn740kq3azov","","null","","sounds/sentences/right/14_08_cfSWS.wav","","null","","","","","","","","","","","","","","","","","","","","","","","","","","","","","","","","","","","","","","","","","",""
"sentence-resp","185","394677","0.0-5.0-1.0-1.3","3","1","n0ejn740kq3azov","","7311","","","","","","","SWS-SENT-RESPONSE","","","{""Q0"":""hello I am three new men""}","Clothes and lodging are free to new men.","clothes,lodging,free,new,men","HELLO I AM THREE NEW MEN","0","0","0","1","1","2","0.4","","","","","","","","","","","","","","","","","","","","","","","","","",""
"html-keyboard-response","186","395930","0.0-5.0-1.0-2.3","3","1","n0ejn740kq3azov","","null","","","","null","","","","","","","","","","","","","","","","","","","","","","","","","","","","","","","","","","","","","","","","","",""
"audio-keyboard-response","187","398186","0.0-5.0-1.0-3.3","3","1","n0ejn740kq3azov","","null","","sounds/sentences/right/14_08_cfSWS.wav","","null","","","","","","","","","","","","","","","","","","","","","","","","","","","","","","","","","","","","","","","","","",""
"html-keyboard-response","188","399186","0.0-5.0-1.0-4.3","3","1","n0ejn740kq3azov","","null","","","","null","","","","","","","","","","","","","","","","","","","","","","","","","","","","","","","","","","","","","","","","","",""
"html-button-response","189","400201","0.0-5.0-1.0-5.3","3","1","n0ejn740kq3azov","","513.5999999642372","","<p>Press the button below when you are ready to continue.</p>","0","","","","","","","","","","","","","","","","","","","","","","","","","","","","","","","","","","","","","","","","","","",""
"audio-keyboard-response","190","403218","0.0-5.0-1.0-0.4","3","1","n0ejn740kq3azov","","null","","sounds/sentences/right/14_10_cfSWS.wav","","null","","","","","","","","","","","","","","","","","","","","","","","","","","","","","","","","","","","","","","","","","",""
"sentence-resp","191","410343","0.0-5.0-1.0-1.4","3","1","n0ejn740kq3azov","","7122","","","","","","","SWS-SENT-RESPONSE","","","{""Q0"":""strong wine with a smokey taste""}","Port is a strong wine with a smoky taste.","port,strong,wine,smoky,taste","STRONG WINE WITH A SMOKEY TASTE","0","1","1","0","1","3","0.6","","","","","","","","","","","","","","","","","","","","","","","","","",""
"html-keyboard-response","192","411601","0.0-5.0-1.0-2.4","3","1","n0ejn740kq3azov","","null","","","","null","","","","","","","","","","","","","","","","","","","","","","","","","","","","","","","","","","","","","","","","","",""
"audio-keyboard-response","193","414121","0.0-5.0-1.0-3.4","3","1","n0ejn740kq3azov","","null","","sounds/sentences/right/14_10_cfSWS.wav","","null","","","","","","","","","","","","","","","","","","","","","","","","","","","","","","","","","","","","","","","","","",""
"html-keyboard-response","194","415122","0.0-5.0-1.0-4.4","3","1","n0ejn740kq3azov","","null","","","","null","","","","","","","","","","","","","","","","","","","","","","","","","","","","","","","","","","","","","","","","","",""
"html-button-response","195","416110","0.0-5.0-1.0-5.4","3","1","n0ejn740kq3azov","","485.7999999523163","","<p>Press the button below when you are ready to continue.</p>","0","","","","","","","","","","","","","","","","","","","","","","","","","","","","","","","","","","","","","","","","","","",""
"audio-keyboard-response","196","419101","0.0-5.0-1.0-0.5","3","1","n0ejn740kq3azov","","null","","sounds/sentences/left/14_05_cfSWS.wav","","null","","","","","","","","","","","","","","","","","","","","","","","","","","","","","","","","","","","","","","","","","",""
"sentence-resp","197","430934","0.0-5.0-1.0-1.5","3","1","n0ejn740kq3azov","","11831","","","","","","","SWS-SENT-RESPONSE","","","{""Q0"":""i looked at the eyes of a sweet girl""}","The glow deepened in the eyes of the sweet girl.","glow,deepened,eyes,sweet,girl","I LOOKED AT THE EYES OF A SWEET GIRL","0","0","1","1","1","3","0.6","","","","","","","","","","","","","","","","","","","","","","","","","",""
"html-keyboard-response","198","432192","0.0-5.0-1.0-2.5","3","1","n0ejn740kq3azov","","null","","","","null","","","","","","","","","","","","","","","","","","","","","","","","","","","","","","","","","","","","","","","","","",""
"audio-keyboard-response","199","434682","0.0-5.0-1.0-3.5","3","1","n0ejn740kq3azov","","null","","sounds/sentences/left/14_05_cfSWS.wav","","null","","","","","","","","","","","","","","","","","","","","","","","","","","","","","","","","","","","","","","","","","",""
"html-keyboard-response","200","435686","0.0-5.0-1.0-4.5","3","1","n0ejn740kq3azov","","null","","","","null","","","","","","","","","","","","","","","","","","","","","","","","","","","","","","","","","","","","","","","","","",""
"html-button-response","201","436741","0.0-5.0-1.0-5.5","3","1","n0ejn740kq3azov","","553.6000000238419","","<p>Press the button below when you are ready to continue.</p>","0","","","","","","","","","","","","","","","","","","","","","","","","","","","","","","","","","","","","","","","","","","",""
"audio-keyboard-response","202","439471","0.0-5.0-1.0-0.6","3","1","n0ejn740kq3azov","","null","","sounds/sentences/right/14_09_cfSWS.wav","","null","","","","","","","","","","","","","","","","","","","","","","","","","","","","","","","","","","","","","","","","","",""
"sentence-resp","203","448193","0.0-5.0-1.0-1.6","3","1","n0ejn740kq3azov","","8721","","","","","","","SWS-SENT-RESPONSE","","","{""Q0"":""we found that i took a bad turn""}","We frown when events take a bad turn.","frown,events,take,bad,turn","WE FOUND THAT I TOOK A BAD TURN","0","0","0","1","1","2","0.4","","","","","","","","","","","","","","","","","","","","","","","","","",""
"html-keyboard-response","204","449451","0.0-5.0-1.0-2.6","3","1","n0ejn740kq3azov","","null","","","","null","","","","","","","","","","","","","","","","","","","","","","","","","","","","","","","","","","","","","","","","","",""
"audio-keyboard-response","205","451679","0.0-5.0-1.0-3.6","3","1","n0ejn740kq3azov","","null","","sounds/sentences/right/14_09_cfSWS.wav","","null","","","","","","","","","","","","","","","","","","","","","","","","","","","","","","","","","","","","","","","","","",""
"html-keyboard-response","206","452680","0.0-5.0-1.0-4.6","3","1","n0ejn740kq3azov","","null","","","","null","","","","","","","","","","","","","","","","","","","","","","","","","","","","","","","","","","","","","","","","","",""
"html-button-response","207","453669","0.0-5.0-1.0-5.6","3","1","n0ejn740kq3azov","","485.5999999642372","","<p>Press the button below when you are ready to continue.</p>","0","","","","","","","","","","","","","","","","","","","","","","","","","","","","","","","","","","","","","","","","","","",""
"audio-keyboard-response","208","456787","0.0-5.0-1.0-0.7","3","1","n0ejn740kq3azov","","null","","sounds/sentences/left/14_01_cfSWS.wav","","null","","","","","","","","","","","","","","","","","","","","","","","","","","","","","","","","","","","","","","","","","",""
"sentence-resp","209","468576","0.0-5.0-1.0-1.7","3","1","n0ejn740kq3azov","","11788","","","","","","","SWS-SENT-RESPONSE","","","{""Q0"":""there is no danger on a swim""}","A cramp is no small danger on a swim.","cramp,no,small,danger,swim","THERE IS NO DANGER ON A SWIM","0","1","0","1","1","3","0.6","","","","","","","","","","","","","","","","","","","","","","","","","",""
"html-keyboard-response","210","469831","0.0-5.0-1.0-2.7","3","1","n0ejn740kq3azov","","null","","","","null","","","","","","","","","","","","","","","","","","","","","","","","","","","","","","","","","","","","","","","","","",""
"audio-keyboard-response","211","472450","0.0-5.0-1.0-3.7","3","1","n0ejn740kq3azov","","null","","sounds/sentences/left/14_01_cfSWS.wav","","null","","","","","","","","","","","","","","","","","","","","","","","","","","","","","","","","","","","","","","","","","",""
"html-keyboard-response","212","473454","0.0-5.0-1.0-4.7","3","1","n0ejn740kq3azov","","null","","","","null","","","","","","","","","","","","","","","","","","","","","","","","","","","","","","","","","","","","","","","","","",""
"html-button-response","213","475456","0.0-5.0-1.0-5.7","3","1","n0ejn740kq3azov","","1496.5999999642372","","<p>Press the button below when you are ready to continue.</p>","0","","","","","","","","","","","","","","","","","","","","","","","","","","","","","","","","","","","","","","","","","","",""
"audio-keyboard-response","214","478040","0.0-5.0-1.0-0.8","3","1","n0ejn740kq3azov","","null","","sounds/sentences/left/14_03_cfSWS.wav","","null","","","","","","","","","","","","","","","","","","","","","","","","","","","","","","","","","","","","","","","","","",""
"sentence-resp","215","484885","0.0-5.0-1.0-1.8","3","1","n0ejn740kq3azov","","6843","","","","","","","SWS-SENT-RESPONSE","","","{""Q0"":""there are roses without leaves""}","Pluck the bright rose without leaves.","pluck,bright,rose,without,leaves","THERE ARE ROSES WITHOUT LEAVES","0","0","0","1","1","2","0.4","","","","","","","","","","","","","","","","","","","","","","","","","",""
"html-keyboard-response","216","486144","0.0-5.0-1.0-2.8","3","1","n0ejn740kq3azov","","null","","","","null","","","","","","","","","","","","","","","","","","","","","","","","","","","","","","","","","","","","","","","","","",""
"audio-keyboard-response","217","488227","0.0-5.0-1.0-3.8","3","1","n0ejn740kq3azov","","null","","sounds/sentences/left/14_03_cfSWS.wav","","null","","","","","","","","","","","","","","","","","","","","","","","","","","","","","","","","","","","","","","","","","",""
"html-keyboard-response","218","489232","0.0-5.0-1.0-4.8","3","1","n0ejn740kq3azov","","null","","","","null","","","","","","","","","","","","","","","","","","","","","","","","","","","","","","","","","","","","","","","","","",""
"html-button-response","219","490667","0.0-5.0-1.0-5.8","3","1","n0ejn740kq3azov","","930.3000000119209","","<p>Press the button below when you are ready to continue.</p>","0","","","","","","","","","","","","","","","","","","","","","","","","","","","","","","","","","","","","","","","","","","",""
"audio-keyboard-response","220","493417","0.0-5.0-1.0-0.9","3","1","n0ejn740kq3azov","","null","","sounds/sentences/right/14_06_cfSWS.wav","","null","","","","","","","","","","","","","","","","","","","","","","","","","","","","","","","","","","","","","","","","","",""
"sentence-resp","221","503448","0.0-5.0-1.0-1.9","3","1","n0ejn740kq3azov","","10029","","","","","","","SWS-SENT-RESPONSE","","","{""Q0"":""three things are problems to a wise cheif""}","Bring your problems to the wise chief.","bring,your,problems,wise,chief","THREE THINGS ARE PROBLEMS TO A WISE CHEIF","0","0","1","1","0","2","0.4","","","","","","","","","","","","","","","","","","","","","","","","","",""
"html-keyboard-response","222","504702","0.0-5.0-1.0-2.9","3","1","n0ejn740kq3azov","","null","","","","null","","","","","","","","","","","","","","","","","","","","","","","","","","","","","","","","","","","","","","","","","",""
"audio-keyboard-response","223","506949","0.0-5.0-1.0-3.9","3","1","n0ejn740kq3azov","","null","","sounds/sentences/right/14_06_cfSWS.wav","","null","","","","","","","","","","","","","","","","","","","","","","","","","","","","","","","","","","","","","","","","","",""
"html-keyboard-response","224","507953","0.0-5.0-1.0-4.9","3","1","n0ejn740kq3azov","","null","","","","null","","","","","","","","","","","","","","","","","","","","","","","","","","","","","","","","","","","","","","","","","",""
"html-button-response","225","509384","0.0-5.0-1.0-5.9","3","1","n0ejn740kq3azov","","929.3000000119209","","<p>Press the button below when you are ready to continue.</p>","0","","","","","","","","","","","","","","","","","","","","","","","","","","","","","","","","","","","","","","","","","","",""
"html-keyboard-response","226","527127","0.0-6.0-0.0","3","1","n0ejn740kq3azov","","17238.900000035763","","<p>In this part of the study, you will hear sounds similar to those you just heard.</p><p>Please focus on these sounds, as you may be asked questions about them later.</p><p>Occasionally, the sounds will pause for up to two seconds. When this happens, please press SPACEBAR as quickly as you can.</br>This helps ensure that you are paying attention to the sounds.</p><p>This part of the study will take about 12 minutes to complete, and you will be given the opportunity to take a couple of short breaks every few minutes.</p><p><strong>Press SPACEBAR to begin</strong></p>","","32","","","","","","","","","","","","","","","","","","","","","","","","","","","","","","","","","","","","","","","","","",""
"html-keyboard-response","227","528133","0.0-6.0-1.0-0.0","3","1","n0ejn740kq3azov","","null","","<p style=""font-size: 40px;"">+</p>","","null","","","","","","","","","","","","","","","","","","","","","","","","","","","","","","","","","","","","","","","","","",""
"html-keyboard-response","228","713139","0.0-6.0-1.0-1.0","3","1","n0ejn740kq3azov","","null","","","","null","","","SL-TRAIN","","","","","","","","","","","","","","1","null","1063.7000000476837","sounds/C/TRAIN/SEQ__04.mp3","1","","","","","","","","","","","","","","","","","","","","",""
"html-button-response","229","758818","0.0-6.0-1.0-2.0","3","1","n0ejn740kq3azov","","45677.30000001192","","<p>You may take a short break if you wish.</p>","0","","","","","","","","","","","","","","","","","","","","","","","","","","","","","","","","","","","","","","","","","","",""
"html-keyboard-response","230","759820","0.0-6.0-1.0-3.0","3","1","n0ejn740kq3azov","","null","","<p style=""font-size: 40px;"">+</p>","","null","","","","","","","","","","","","","","","","","","","","","","","","","","","","","","","","","","","","","","","","","",""
"html-keyboard-response","231","944823","0.0-6.0-1.0-4.0","3","1","n0ejn740kq3azov","","null","","","","null","","","SL-TRAIN","","","","","","","","","","","","","","1","null","1598.6000000238419","sounds/C/TRAIN/SEQ__02.mp3","4","","","","","","","","","","","","","","","","","","","","",""
"html-button-response","232","953345","0.0-6.0-1.0-5.0","3","1","n0ejn740kq3azov","","8520.799999952316","","<p>You may take a short break if you wish.</p>","0","","","","","","","","","","","","","","","","","","","","","","","","","","","","","","","","","","","","","","","","","","",""
"html-keyboard-response","233","954350","0.0-6.0-1.0-6.0","3","1","n0ejn740kq3azov","","null","","<p style=""font-size: 40px;"">+</p>","","null","","","","","","","","","","","","","","","","","","","","","","","","","","","","","","","","","","","","","","","","","",""
"html-keyboard-response","234","1139356","0.0-6.0-1.0-7.0","3","1","n0ejn740kq3azov","","null","","","","null","","","SL-TRAIN","","","","","","","","","","","","","","2","null","null","sounds/C/TRAIN/SEQ__05.mp3","6","","","","","","","","","","","","","","","","","","","","",""
"html-button-response","235","1141888","0.0-6.0-1.0-8.0","3","1","n0ejn740kq3azov","","2529.699999988079","","<p>You may take a short break if you wish.</p>","0","","","","","","","","","","","","","","","","","","","","","","","","","","","","","","","","","","","","","","","","","","",""
"html-keyboard-response","236","1142891","0.0-6.0-1.0-9.0","3","1","n0ejn740kq3azov","","null","","<p style=""font-size: 40px;"">+</p>","","null","","","","","","","","","","","","","","","","","","","","","","","","","","","","","","","","","","","","","","","","","",""
"html-keyboard-response","237","1327898","0.0-6.0-1.0-10.0","3","1","n0ejn740kq3azov","","null","","","","null","","","SL-TRAIN","","","","","","","","","","","","","","1","null","1857","sounds/C/TRAIN/SEQ__03.mp3","8","","","","","","","","","","","","","","","","","","","","",""
"html-button-response","238","1330622","0.0-6.0-1.0-11.0","3","1","n0ejn740kq3azov","","2723.099999964237","","<p>You may take a short break if you wish.</p>","0","","","","","","","","","","","","","","","","","","","","","","","","","","","","","","","","","","","","","","","","","","",""
"html-button-response","239","1340122","0.0-7.0-0.0","3","1","n0ejn740kq3azov","","9497.600000023842","","<p>Welcome to the second part of the study. This is a <u>familiarity task</u>.</p><p>You will now hear short sounds and will be asked to rate how familiar they sound to you <b>based on what you heard in the previous part of the study</b>.</p><p>You will rate 12 sounds in total.</p>","0","","","","","","","","","","","","","","","","","","","","","","","","","","","","","","","","","","","","","","","","","","",""
"html-keyboard-response","240","1341127","0.0-7.0-1.0-0.0","3","1","n0ejn740kq3azov","","null","","","","null","","","","","","","","","","","","","","","","","","","","","","","","","","","","","","","","","","","","","","","","","",""
"audio-keyboard-response","241","1342093","0.0-7.0-1.0-1.0","3","1","n0ejn740kq3azov","","null","","sounds/C/FAM/N004.mp3","","null","","","","","","","","","","","","","","","","","","","","","","","","","","","","","","","","","","","","","","","","","",""
"html-keyboard-response","242","1349422","0.0-7.0-1.0-2.0","3","1","n0ejn740kq3azov","","6823.199999988079","","<p>How familiar did this sound to you?</p><p>1&nbsp;&nbsp;&nbsp;&nbsp;&nbsp;&nbsp;&nbsp;&nbsp;&nbsp;&nbsp;&nbsp;&nbsp;&nbsp;&nbsp;&nbsp;&nbsp;&nbsp;&nbsp;&nbsp;2&nbsp;&nbsp;&nbsp;&nbsp;&nbsp;&nbsp;&nbsp;&nbsp;&nbsp;&nbsp;&nbsp;&nbsp;&nbsp;&nbsp;&nbsp;&nbsp;&nbsp;&nbsp;&nbsp;3&nbsp;&nbsp;&nbsp;&nbsp;&nbsp;&nbsp;&nbsp;&nbsp;&nbsp;&nbsp;&nbsp;&nbsp;&nbsp;&nbsp;&nbsp;&nbsp;&nbsp;&nbsp;&nbsp;4</p><p style=""font-size:14px"">Not at all familiar&nbsp;&nbsp;&nbsp;&nbsp;A little familiar&nbsp;&nbsp;&nbsp;Moderately familiar&nbsp;&nbsp;&nbsp;Extremely familiar</p><p>(press the corresponding number on your keyboard)</p>","","52","","","FAM-RESPONSE","","","","","","","","","","","","","","","","","","","sounds/C/FAM/N004.mp3","nonword","","","","","","","","","","","","","","","","","","",""
"html-keyboard-response","243","1351431","0.0-7.0-1.0-0.1","3","1","n0ejn740kq3azov","","null","","","","null","","","","","","","","","","","","","","","","","","","","","","","","","","","","","","","","","","","","","","","","","",""
"audio-keyboard-response","244","1352368","0.0-7.0-1.0-1.1","3","1","n0ejn740kq3azov","","null","","sounds/C/FAM/P003.mp3","","null","","","","","","","","","","","","","","","","","","","","","","","","","","","","","","","","","","","","","","","","","",""
"html-keyboard-response","245","1354596","0.0-7.0-1.0-2.1","3","1","n0ejn740kq3azov","","1726.5","","<p>How familiar did this sound to you?</p><p>1&nbsp;&nbsp;&nbsp;&nbsp;&nbsp;&nbsp;&nbsp;&nbsp;&nbsp;&nbsp;&nbsp;&nbsp;&nbsp;&nbsp;&nbsp;&nbsp;&nbsp;&nbsp;&nbsp;2&nbsp;&nbsp;&nbsp;&nbsp;&nbsp;&nbsp;&nbsp;&nbsp;&nbsp;&nbsp;&nbsp;&nbsp;&nbsp;&nbsp;&nbsp;&nbsp;&nbsp;&nbsp;&nbsp;3&nbsp;&nbsp;&nbsp;&nbsp;&nbsp;&nbsp;&nbsp;&nbsp;&nbsp;&nbsp;&nbsp;&nbsp;&nbsp;&nbsp;&nbsp;&nbsp;&nbsp;&nbsp;&nbsp;4</p><p style=""font-size:14px"">Not at all familiar&nbsp;&nbsp;&nbsp;&nbsp;A little familiar&nbsp;&nbsp;&nbsp;Moderately familiar&nbsp;&nbsp;&nbsp;Extremely familiar</p><p>(press the corresponding number on your keyboard)</p>","","52","","","FAM-RESPONSE","","","","","","","","","","","","","","","","","","","sounds/C/FAM/P003.mp3","partword","","","","","","","","","","","","","","","","","","",""
"html-keyboard-response","246","1356603","0.0-7.0-1.0-0.2","3","1","n0ejn740kq3azov","","null","","","","null","","","","","","","","","","","","","","","","","","","","","","","","","","","","","","","","","","","","","","","","","",""
"audio-keyboard-response","247","1357541","0.0-7.0-1.0-1.2","3","1","n0ejn740kq3azov","","null","","sounds/C/FAM/P001.mp3","","null","","","","","","","","","","","","","","","","","","","","","","","","","","","","","","","","","","","","","","","","","",""
"html-keyboard-response","248","1359593","0.0-7.0-1.0-2.2","3","1","n0ejn740kq3azov","","1547.300000011921","","<p>How familiar did this sound to you?</p><p>1&nbsp;&nbsp;&nbsp;&nbsp;&nbsp;&nbsp;&nbsp;&nbsp;&nbsp;&nbsp;&nbsp;&nbsp;&nbsp;&nbsp;&nbsp;&nbsp;&nbsp;&nbsp;&nbsp;2&nbsp;&nbsp;&nbsp;&nbsp;&nbsp;&nbsp;&nbsp;&nbsp;&nbsp;&nbsp;&nbsp;&nbsp;&nbsp;&nbsp;&nbsp;&nbsp;&nbsp;&nbsp;&nbsp;3&nbsp;&nbsp;&nbsp;&nbsp;&nbsp;&nbsp;&nbsp;&nbsp;&nbsp;&nbsp;&nbsp;&nbsp;&nbsp;&nbsp;&nbsp;&nbsp;&nbsp;&nbsp;&nbsp;4</p><p style=""font-size:14px"">Not at all familiar&nbsp;&nbsp;&nbsp;&nbsp;A little familiar&nbsp;&nbsp;&nbsp;Moderately familiar&nbsp;&nbsp;&nbsp;Extremely familiar</p><p>(press the corresponding number on your keyboard)</p>","","50","","","FAM-RESPONSE","","","","","","","","","","","","","","","","","","","sounds/C/FAM/P001.mp3","partword","","","","","","","","","","","","","","","","","","",""
"html-keyboard-response","249","1361600","0.0-7.0-1.0-0.3","3","1","n0ejn740kq3azov","","null","","","","null","","","","","","","","","","","","","","","","","","","","","","","","","","","","","","","","","","","","","","","","","",""
"audio-keyboard-response","250","1362538","0.0-7.0-1.0-1.3","3","1","n0ejn740kq3azov","","null","","sounds/C/FAM/N001.mp3","","null","","","","","","","","","","","","","","","","","","","","","","","","","","","","","","","","","","","","","","","","","",""
"html-keyboard-response","251","1364137","0.0-7.0-1.0-2.3","3","1","n0ejn740kq3azov","","1094.300000011921","","<p>How familiar did this sound to you?</p><p>1&nbsp;&nbsp;&nbsp;&nbsp;&nbsp;&nbsp;&nbsp;&nbsp;&nbsp;&nbsp;&nbsp;&nbsp;&nbsp;&nbsp;&nbsp;&nbsp;&nbsp;&nbsp;&nbsp;2&nbsp;&nbsp;&nbsp;&nbsp;&nbsp;&nbsp;&nbsp;&nbsp;&nbsp;&nbsp;&nbsp;&nbsp;&nbsp;&nbsp;&nbsp;&nbsp;&nbsp;&nbsp;&nbsp;3&nbsp;&nbsp;&nbsp;&nbsp;&nbsp;&nbsp;&nbsp;&nbsp;&nbsp;&nbsp;&nbsp;&nbsp;&nbsp;&nbsp;&nbsp;&nbsp;&nbsp;&nbsp;&nbsp;4</p><p style=""font-size:14px"">Not at all familiar&nbsp;&nbsp;&nbsp;&nbsp;A little familiar&nbsp;&nbsp;&nbsp;Moderately familiar&nbsp;&nbsp;&nbsp;Extremely familiar</p><p>(press the corresponding number on your keyboard)</p>","","52","","","FAM-RESPONSE","","","","","","","","","","","","","","","","","","","sounds/C/FAM/N001.mp3","nonword","","","","","","","","","","","","","","","","","","",""
"html-keyboard-response","252","1366144","0.0-7.0-1.0-0.4","3","1","n0ejn740kq3azov","","null","","","","null","","","","","","","","","","","","","","","","","","","","","","","","","","","","","","","","","","","","","","","","","",""
"audio-keyboard-response","253","1367084","0.0-7.0-1.0-1.4","3","1","n0ejn740kq3azov","","null","","sounds/C/FAM/P002.mp3","","null","","","","","","","","","","","","","","","","","","","","","","","","","","","","","","","","","","","","","","","","","",""
"html-keyboard-response","254","1367963","0.0-7.0-1.0-2.4","3","1","n0ejn740kq3azov","","375.9000000357628","","<p>How familiar did this sound to you?</p><p>1&nbsp;&nbsp;&nbsp;&nbsp;&nbsp;&nbsp;&nbsp;&nbsp;&nbsp;&nbsp;&nbsp;&nbsp;&nbsp;&nbsp;&nbsp;&nbsp;&nbsp;&nbsp;&nbsp;2&nbsp;&nbsp;&nbsp;&nbsp;&nbsp;&nbsp;&nbsp;&nbsp;&nbsp;&nbsp;&nbsp;&nbsp;&nbsp;&nbsp;&nbsp;&nbsp;&nbsp;&nbsp;&nbsp;3&nbsp;&nbsp;&nbsp;&nbsp;&nbsp;&nbsp;&nbsp;&nbsp;&nbsp;&nbsp;&nbsp;&nbsp;&nbsp;&nbsp;&nbsp;&nbsp;&nbsp;&nbsp;&nbsp;4</p><p style=""font-size:14px"">Not at all familiar&nbsp;&nbsp;&nbsp;&nbsp;A little familiar&nbsp;&nbsp;&nbsp;Moderately familiar&nbsp;&nbsp;&nbsp;Extremely familiar</p><p>(press the corresponding number on your keyboard)</p>","","52","","","FAM-RESPONSE","","","","","","","","","","","","","","","","","","","sounds/C/FAM/P002.mp3","partword","","","","","","","","","","","","","","","","","","",""
"html-keyboard-response","255","1369968","0.0-7.0-1.0-0.5","3","1","n0ejn740kq3azov","","null","","","","null","","","","","","","","","","","","","","","","","","","","","","","","","","","","","","","","","","","","","","","","","",""
"audio-keyboard-response","256","1370910","0.0-7.0-1.0-1.5","3","1","n0ejn740kq3azov","","null","","sounds/C/FAM/N003.mp3","","null","","","","","","","","","","","","","","","","","","","","","","","","","","","","","","","","","","","","","","","","","",""
"html-keyboard-response","257","1372723","0.0-7.0-1.0-2.5","3","1","n0ejn740kq3azov","","1307.699999988079","","<p>How familiar did this sound to you?</p><p>1&nbsp;&nbsp;&nbsp;&nbsp;&nbsp;&nbsp;&nbsp;&nbsp;&nbsp;&nbsp;&nbsp;&nbsp;&nbsp;&nbsp;&nbsp;&nbsp;&nbsp;&nbsp;&nbsp;2&nbsp;&nbsp;&nbsp;&nbsp;&nbsp;&nbsp;&nbsp;&nbsp;&nbsp;&nbsp;&nbsp;&nbsp;&nbsp;&nbsp;&nbsp;&nbsp;&nbsp;&nbsp;&nbsp;3&nbsp;&nbsp;&nbsp;&nbsp;&nbsp;&nbsp;&nbsp;&nbsp;&nbsp;&nbsp;&nbsp;&nbsp;&nbsp;&nbsp;&nbsp;&nbsp;&nbsp;&nbsp;&nbsp;4</p><p style=""font-size:14px"">Not at all familiar&nbsp;&nbsp;&nbsp;&nbsp;A little familiar&nbsp;&nbsp;&nbsp;Moderately familiar&nbsp;&nbsp;&nbsp;Extremely familiar</p><p>(press the corresponding number on your keyboard)</p>","","51","","","FAM-RESPONSE","","","","","","","","","","","","","","","","","","","sounds/C/FAM/N003.mp3","nonword","","","","","","","","","","","","","","","","","","",""
"html-keyboard-response","258","1374729","0.0-7.0-1.0-0.6","3","1","n0ejn740kq3azov","","null","","","","null","","","","","","","","","","","","","","","","","","","","","","","","","","","","","","","","","","","","","","","","","",""
"audio-keyboard-response","259","1375670","0.0-7.0-1.0-1.6","3","1","n0ejn740kq3azov","","null","","sounds/C/FAM/P004.mp3","","null","","","","","","","","","","","","","","","","","","","","","","","","","","","","","","","","","","","","","","","","","",""
"html-keyboard-response","260","1376795","0.0-7.0-1.0-2.6","3","1","n0ejn740kq3azov","","623.0999999642372","","<p>How familiar did this sound to you?</p><p>1&nbsp;&nbsp;&nbsp;&nbsp;&nbsp;&nbsp;&nbsp;&nbsp;&nbsp;&nbsp;&nbsp;&nbsp;&nbsp;&nbsp;&nbsp;&nbsp;&nbsp;&nbsp;&nbsp;2&nbsp;&nbsp;&nbsp;&nbsp;&nbsp;&nbsp;&nbsp;&nbsp;&nbsp;&nbsp;&nbsp;&nbsp;&nbsp;&nbsp;&nbsp;&nbsp;&nbsp;&nbsp;&nbsp;3&nbsp;&nbsp;&nbsp;&nbsp;&nbsp;&nbsp;&nbsp;&nbsp;&nbsp;&nbsp;&nbsp;&nbsp;&nbsp;&nbsp;&nbsp;&nbsp;&nbsp;&nbsp;&nbsp;4</p><p style=""font-size:14px"">Not at all familiar&nbsp;&nbsp;&nbsp;&nbsp;A little familiar&nbsp;&nbsp;&nbsp;Moderately familiar&nbsp;&nbsp;&nbsp;Extremely familiar</p><p>(press the corresponding number on your keyboard)</p>","","52","","","FAM-RESPONSE","","","","","","","","","","","","","","","","","","","sounds/C/FAM/P004.mp3","partword","","","","","","","","","","","","","","","","","","",""
"html-keyboard-response","261","1378801","0.0-7.0-1.0-0.7","3","1","n0ejn740kq3azov","","null","","","","null","","","","","","","","","","","","","","","","","","","","","","","","","","","","","","","","","","","","","","","","","",""
"audio-keyboard-response","262","1379739","0.0-7.0-1.0-1.7","3","1","n0ejn740kq3azov","","null","","sounds/C/FAM/W001.mp3","","null","","","","","","","","","","","","","","","","","","","","","","","","","","","","","","","","","","","","","","","","","",""
"html-keyboard-response","263","1382243","0.0-7.0-1.0-2.7","3","1","n0ejn740kq3azov","","2002.300000011921","","<p>How familiar did this sound to you?</p><p>1&nbsp;&nbsp;&nbsp;&nbsp;&nbsp;&nbsp;&nbsp;&nbsp;&nbsp;&nbsp;&nbsp;&nbsp;&nbsp;&nbsp;&nbsp;&nbsp;&nbsp;&nbsp;&nbsp;2&nbsp;&nbsp;&nbsp;&nbsp;&nbsp;&nbsp;&nbsp;&nbsp;&nbsp;&nbsp;&nbsp;&nbsp;&nbsp;&nbsp;&nbsp;&nbsp;&nbsp;&nbsp;&nbsp;3&nbsp;&nbsp;&nbsp;&nbsp;&nbsp;&nbsp;&nbsp;&nbsp;&nbsp;&nbsp;&nbsp;&nbsp;&nbsp;&nbsp;&nbsp;&nbsp;&nbsp;&nbsp;&nbsp;4</p><p style=""font-size:14px"">Not at all familiar&nbsp;&nbsp;&nbsp;&nbsp;A little familiar&nbsp;&nbsp;&nbsp;Moderately familiar&nbsp;&nbsp;&nbsp;Extremely familiar</p><p>(press the corresponding number on your keyboard)</p>","","50","","","FAM-RESPONSE","","","","","","","","","","","","","","","","","","","sounds/C/FAM/W001.mp3","word","","","","","","","","","","","","","","","","","","",""
"html-keyboard-response","264","1384248","0.0-7.0-1.0-0.8","3","1","n0ejn740kq3azov","","null","","","","null","","","","","","","","","","","","","","","","","","","","","","","","","","","","","","","","","","","","","","","","","",""
"audio-keyboard-response","265","1385190","0.0-7.0-1.0-1.8","3","1","n0ejn740kq3azov","","null","","sounds/C/FAM/N002.mp3","","null","","","","","","","","","","","","","","","","","","","","","","","","","","","","","","","","","","","","","","","","","",""
"html-keyboard-response","266","1387813","0.0-7.0-1.0-2.8","3","1","n0ejn740kq3azov","","2117.599999964237","","<p>How familiar did this sound to you?</p><p>1&nbsp;&nbsp;&nbsp;&nbsp;&nbsp;&nbsp;&nbsp;&nbsp;&nbsp;&nbsp;&nbsp;&nbsp;&nbsp;&nbsp;&nbsp;&nbsp;&nbsp;&nbsp;&nbsp;2&nbsp;&nbsp;&nbsp;&nbsp;&nbsp;&nbsp;&nbsp;&nbsp;&nbsp;&nbsp;&nbsp;&nbsp;&nbsp;&nbsp;&nbsp;&nbsp;&nbsp;&nbsp;&nbsp;3&nbsp;&nbsp;&nbsp;&nbsp;&nbsp;&nbsp;&nbsp;&nbsp;&nbsp;&nbsp;&nbsp;&nbsp;&nbsp;&nbsp;&nbsp;&nbsp;&nbsp;&nbsp;&nbsp;4</p><p style=""font-size:14px"">Not at all familiar&nbsp;&nbsp;&nbsp;&nbsp;A little familiar&nbsp;&nbsp;&nbsp;Moderately familiar&nbsp;&nbsp;&nbsp;Extremely familiar</p><p>(press the corresponding number on your keyboard)</p>","","50","","","FAM-RESPONSE","","","","","","","","","","","","","","","","","","","sounds/C/FAM/N002.mp3","nonword","","","","","","","","","","","","","","","","","","",""
"html-keyboard-response","267","1389818","0.0-7.0-1.0-0.9","3","1","n0ejn740kq3azov","","null","","","","null","","","","","","","","","","","","","","","","","","","","","","","","","","","","","","","","","","","","","","","","","",""
"audio-keyboard-response","268","1390757","0.0-7.0-1.0-1.9","3","1","n0ejn740kq3azov","","null","","sounds/C/FAM/W002.mp3","","null","","","","","","","","","","","","","","","","","","","","","","","","","","","","","","","","","","","","","","","","","",""
"html-keyboard-response","269","1391644","0.0-7.0-1.0-2.9","3","1","n0ejn740kq3azov","","382.30000001192093","","<p>How familiar did this sound to you?</p><p>1&nbsp;&nbsp;&nbsp;&nbsp;&nbsp;&nbsp;&nbsp;&nbsp;&nbsp;&nbsp;&nbsp;&nbsp;&nbsp;&nbsp;&nbsp;&nbsp;&nbsp;&nbsp;&nbsp;2&nbsp;&nbsp;&nbsp;&nbsp;&nbsp;&nbsp;&nbsp;&nbsp;&nbsp;&nbsp;&nbsp;&nbsp;&nbsp;&nbsp;&nbsp;&nbsp;&nbsp;&nbsp;&nbsp;3&nbsp;&nbsp;&nbsp;&nbsp;&nbsp;&nbsp;&nbsp;&nbsp;&nbsp;&nbsp;&nbsp;&nbsp;&nbsp;&nbsp;&nbsp;&nbsp;&nbsp;&nbsp;&nbsp;4</p><p style=""font-size:14px"">Not at all familiar&nbsp;&nbsp;&nbsp;&nbsp;A little familiar&nbsp;&nbsp;&nbsp;Moderately familiar&nbsp;&nbsp;&nbsp;Extremely familiar</p><p>(press the corresponding number on your keyboard)</p>","","52","","","FAM-RESPONSE","","","","","","","","","","","","","","","","","","","sounds/C/FAM/W002.mp3","word","","","","","","","","","","","","","","","","","","",""
"html-keyboard-response","270","1393652","0.0-7.0-1.0-0.10","3","1","n0ejn740kq3azov","","null","","","","null","","","","","","","","","","","","","","","","","","","","","","","","","","","","","","","","","","","","","","","","","",""
"audio-keyboard-response","271","1394594","0.0-7.0-1.0-1.10","3","1","n0ejn740kq3azov","","null","","sounds/C/FAM/W004.mp3","","null","","","","","","","","","","","","","","","","","","","","","","","","","","","","","","","","","","","","","","","","","",""
"html-keyboard-response","272","1395623","0.0-7.0-1.0-2.10","3","1","n0ejn740kq3azov","","525.9000000357628","","<p>How familiar did this sound to you?</p><p>1&nbsp;&nbsp;&nbsp;&nbsp;&nbsp;&nbsp;&nbsp;&nbsp;&nbsp;&nbsp;&nbsp;&nbsp;&nbsp;&nbsp;&nbsp;&nbsp;&nbsp;&nbsp;&nbsp;2&nbsp;&nbsp;&nbsp;&nbsp;&nbsp;&nbsp;&nbsp;&nbsp;&nbsp;&nbsp;&nbsp;&nbsp;&nbsp;&nbsp;&nbsp;&nbsp;&nbsp;&nbsp;&nbsp;3&nbsp;&nbsp;&nbsp;&nbsp;&nbsp;&nbsp;&nbsp;&nbsp;&nbsp;&nbsp;&nbsp;&nbsp;&nbsp;&nbsp;&nbsp;&nbsp;&nbsp;&nbsp;&nbsp;4</p><p style=""font-size:14px"">Not at all familiar&nbsp;&nbsp;&nbsp;&nbsp;A little familiar&nbsp;&nbsp;&nbsp;Moderately familiar&nbsp;&nbsp;&nbsp;Extremely familiar</p><p>(press the corresponding number on your keyboard)</p>","","52","","","FAM-RESPONSE","","","","","","","","","","","","","","","","","","","sounds/C/FAM/W004.mp3","word","","","","","","","","","","","","","","","","","","",""
"html-keyboard-response","273","1397630","0.0-7.0-1.0-0.11","3","1","n0ejn740kq3azov","","null","","","","null","","","","","","","","","","","","","","","","","","","","","","","","","","","","","","","","","","","","","","","","","",""
"audio-keyboard-response","274","1398570","0.0-7.0-1.0-1.11","3","1","n0ejn740kq3azov","","null","","sounds/C/FAM/W003.mp3","","null","","","","","","","","","","","","","","","","","","","","","","","","","","","","","","","","","","","","","","","","","",""
"html-keyboard-response","275","1399152","0.0-7.0-1.0-2.11","3","1","n0ejn740kq3azov","","79.19999998807907","","<p>How familiar did this sound to you?</p><p>1&nbsp;&nbsp;&nbsp;&nbsp;&nbsp;&nbsp;&nbsp;&nbsp;&nbsp;&nbsp;&nbsp;&nbsp;&nbsp;&nbsp;&nbsp;&nbsp;&nbsp;&nbsp;&nbsp;2&nbsp;&nbsp;&nbsp;&nbsp;&nbsp;&nbsp;&nbsp;&nbsp;&nbsp;&nbsp;&nbsp;&nbsp;&nbsp;&nbsp;&nbsp;&nbsp;&nbsp;&nbsp;&nbsp;3&nbsp;&nbsp;&nbsp;&nbsp;&nbsp;&nbsp;&nbsp;&nbsp;&nbsp;&nbsp;&nbsp;&nbsp;&nbsp;&nbsp;&nbsp;&nbsp;&nbsp;&nbsp;&nbsp;4</p><p style=""font-size:14px"">Not at all familiar&nbsp;&nbsp;&nbsp;&nbsp;A little familiar&nbsp;&nbsp;&nbsp;Moderately familiar&nbsp;&nbsp;&nbsp;Extremely familiar</p><p>(press the corresponding number on your keyboard)</p>","","52","","","FAM-RESPONSE","","","","","","","","","","","","","","","","","","","sounds/C/FAM/W003.mp3","word","","","","","","","","","","","","","","","","","","",""
"html-button-response","276","1412636","0.0-8.0-0.0","3","1","n0ejn740kq3azov","","12480.5","","<p>You will now listen to longer sound sequences.</p><p>Each sound sequence will last about 16 seconds.</p><p>On each trial, you will be given a <u>TARGET SOUND</u>. Your task is to listen very carefully for this sound.</p><p>Every time you hear the <u>TARGET SOUND</u>, you will press the <b>SPACEBAR</b> as quickly and accurately as you can.</p>","0","","","","","","","","","","","","","","","","","","","","","","","","","","","","","","","","","","","","","","","","","","",""
"html-button-response","277","1423281","0.0-8.0-1.0","3","1","n0ejn740kq3azov","","10388.199999988079","","<p>It is very important that you make your responses as quickly and accurately as possible.</p><p>To help you make your responses, you will be able to listen to the <u>TARGET SOUND</u> at the beginning of each trial.</p><p>There will be 36 total trials.</p><p><b>Note: This is meant to be a difficult task. We simply want you to try your best.</p>","0","","","","","","","","","","","","","","","","","","","","","","","","","","","","","","","","","","","","","","","","","","",""
"html-button-response","278","1424953","0.0-8.0-2.0-0.0","3","1","n0ejn740kq3azov","","1415.699999988079","","<p>Trial 1 of 36</p>","0","","","","","","","","","","","","","","","","","","","","","","","","","GE","sounds/syllables/ge_SWS.wav","3300,5100,6900,10500","3","","","","","","","","","","","","","","",""
"html-keyboard-response","279","1428996","0.0-8.0-2.0-1.0","3","1","n0ejn740kq3azov","","4041.599999964237","","","","80","","","","","","","","","","","","","","","","","","","","","","","","GE","","3300,5100,6900,10500","3","","","","","","","","","","","","","","",""
"audio-keyboard-response","280","1429316","0.0-8.0-2.0-2.0-0.0","3","1","n0ejn740kq3azov","","null","","sounds/syllables/ge_SWS.wav","","null","","","","","","","","","","","","","","","","","","","","","","","","","","","","","","","","","","","","","","","","","",""
"html-keyboard-response","281","1432997","0.0-8.0-2.0-2.0-1.0","3","1","n0ejn740kq3azov","","3680.399999976158","","<p>To replay the <u>TARGET SOUND</u>, press P.</p> When you are ready to begin, press SPACEBAR.","","80","","","","","","","","","","","","","","","","","","","","","","","","","","","","","","","","","","","","","","","","","",""
"audio-keyboard-response","282","1433803","0.0-8.0-2.0-2.1-0.1","3","1","n0ejn740kq3azov","","null","","sounds/syllables/ge_SWS.wav","","null","","","","","","","","","","","","","","","","","","","","","","","","","","","","","","","","","","","","","","","","","",""
"html-keyboard-response","283","1434243","0.0-8.0-2.0-2.1-1.1","3","1","n0ejn740kq3azov","","438.60000002384186","","<p>To replay the <u>TARGET SOUND</u>, press P.</p> When you are ready to begin, press SPACEBAR.","","32","","","","","","","","","","","","","","","","","","","","","","","","","","","","","","","","","","","","","","","","","",""
"audio-keyboard-response","284","1449193","0.0-8.0-2.0-3.0","3","1","n0ejn740kq3azov","","1811","","sounds/C/TD/GE_08_TD.mp3","","32","","","TD_SUMMARY","","","","","","","","","","","","","","","","","","","","","GE","","3300,5100,6900,10500","3","3300","5100","6900","10500","806.6999999880791","null","null","724.9000000357628","1812.1000000238419_4106.699999988079_6974.699999988079_8713.699999988079_11224.900000035763","2","","","","",""
"html-button-response","285","1450385","0.0-8.0-2.0-0.1","3","1","n0ejn740kq3azov","","1189.5999999642372","","<p>Trial 2 of 36</p>","0","","","","","","","","","","","","","","","","","","","","","","","","","PU","sounds/syllables/pu_SWS.wav","3300,6000,7800,9600","3","","","","","","","","","","","","","","",""
"html-keyboard-response","286","1453502","0.0-8.0-2.0-1.1","3","1","n0ejn740kq3azov","","3116.100000023842","","","","80","","","","","","","","","","","","","","","","","","","","","","","","PU","","3300,6000,7800,9600","3","","","","","","","","","","","","","","",""
"audio-keyboard-response","287","1453802","0.0-8.0-2.0-2.2-0.2","3","1","n0ejn740kq3azov","","null","","sounds/syllables/pu_SWS.wav","","null","","","","","","","","","","","","","","","","","","","","","","","","","","","","","","","","","","","","","","","","","",""
"html-keyboard-response","288","1459421","0.0-8.0-2.0-2.2-1.2","3","1","n0ejn740kq3azov","","5618.699999988079","","<p>To replay the <u>TARGET SOUND</u>, press P.</p> When you are ready to begin, press SPACEBAR.","","80","","","","","","","","","","","","","","","","","","","","","","","","","","","","","","","","","","","","","","","","","",""
"audio-keyboard-response","289","1460222","0.0-8.0-2.0-2.3-0.3","3","1","n0ejn740kq3azov","","null","","sounds/syllables/pu_SWS.wav","","null","","","","","","","","","","","","","","","","","","","","","","","","","","","","","","","","","","","","","","","","","",""
"html-keyboard-response","290","1460782","0.0-8.0-2.0-2.3-1.3","3","1","n0ejn740kq3azov","","559.4000000357628","","<p>To replay the <u>TARGET SOUND</u>, press P.</p> When you are ready to begin, press SPACEBAR.","","32","","","","","","","","","","","","","","","","","","","","","","","","","","","","","","","","","","","","","","","","","",""
"audio-keyboard-response","291","1475733","0.0-8.0-2.0-3.1","3","1","n0ejn740kq3azov","","2490","","sounds/C/TD/PU_01_TD.mp3","","32","","","TD_SUMMARY","","","","","","","","","","","","","","","","","","","","","PU","","3300,6000,7800,9600","3","3300","6000","7800","9600","861.5999999642372","731.5","540.1999999880791","537.3000000119209","_____2494.800000011921_3728.599999964237_4161.599999964237_5983.699999988079_6731.5_8086.399999976158_8340.199999988079_9848.300000011921_10137.300000011921_12091.599999964237","2","","","","",""
"html-button-response","292","1476711","0.0-8.0-2.0-0.2","3","1","n0ejn740kq3azov","","975.1000000238419","","<p>Trial 3 of 36</p>","0","","","","","","","","","","","","","","","","","","","","","","","","","FU","sounds/syllables/fu_SWS.wav","5100,6900,8700,12300","3","","","","","","","","","","","","","","",""
"html-keyboard-response","293","1478516","0.0-8.0-2.0-1.2","3","1","n0ejn740kq3azov","","1804.4000000357628","","","","80","","","","","","","","","","","","","","","","","","","","","","","","FU","","5100,6900,8700,12300","3","","","","","","","","","","","","","","",""
"audio-keyboard-response","294","1478815","0.0-8.0-2.0-2.4-0.4","3","1","n0ejn740kq3azov","","null","","sounds/syllables/fu_SWS.wav","","null","","","","","","","","","","","","","","","","","","","","","","","","","","","","","","","","","","","","","","","","","",""
"html-keyboard-response","295","1481404","0.0-8.0-2.0-2.4-1.4","3","1","n0ejn740kq3azov","","2587.2999999523163","","<p>To replay the <u>TARGET SOUND</u>, press P.</p> When you are ready to begin, press SPACEBAR.","","80","","","","","","","","","","","","","","","","","","","","","","","","","","","","","","","","","","","","","","","","","",""
"audio-keyboard-response","296","1482206","0.0-8.0-2.0-2.5-0.5","3","1","n0ejn740kq3azov","","null","","sounds/syllables/fu_SWS.wav","","null","","","","","","","","","","","","","","","","","","","","","","","","","","","","","","","","","","","","","","","","","",""
"html-keyboard-response","297","1482588","0.0-8.0-2.0-2.5-1.5","3","1","n0ejn740kq3azov","","381.5","","<p>To replay the <u>TARGET SOUND</u>, press P.</p> When you are ready to begin, press SPACEBAR.","","32","","","","","","","","","","","","","","","","","","","","","","","","","","","","","","","","","","","","","","","","","",""
"audio-keyboard-response","298","1497537","0.0-8.0-2.0-3.2","3","1","n0ejn740kq3azov","","1788","","sounds/C/TD/FU_06_TD.mp3","","32","","","TD_SUMMARY","","","","","","","","","","","","","","","","","","","","","FU","","5100,6900,8700,12300","3","5100","6900","8700","12300","741.5","null","null","null","_______________1791.800000011921_3486_5841.5_8162.599999964237_11280.800000011921_14027","2","","","","",""
"html-button-response","299","1498313","0.0-8.0-2.0-0.3","3","1","n0ejn740kq3azov","","773.8000000119209","","<p>Trial 4 of 36</p>","0","","","","","","","","","","","","","","","","","","","","","","","","","NI","sounds/syllables/ni_SWS.wav","3600,5400,8100,11700","1","","","","","","","","","","","","","","",""
"html-keyboard-response","300","1500030","0.0-8.0-2.0-1.3","3","1","n0ejn740kq3azov","","1715.5","","","","80","","","","","","","","","","","","","","","","","","","","","","","","NI","","3600,5400,8100,11700","1","","","","","","","","","","","","","","",""
"audio-keyboard-response","301","1500329","0.0-8.0-2.0-2.6-0.6","3","1","n0ejn740kq3azov","","null","","sounds/syllables/ni_SWS.wav","","null","","","","","","","","","","","","","","","","","","","","","","","","","","","","","","","","","","","","","","","","","",""
"html-keyboard-response","302","1501186","0.0-8.0-2.0-2.6-1.6","3","1","n0ejn740kq3azov","","855.6999999880791","","<p>To replay the <u>TARGET SOUND</u>, press P.</p> When you are ready to begin, press SPACEBAR.","","80","","","","","","","","","","","","","","","","","","","","","","","","","","","","","","","","","","","","","","","","","",""
"audio-keyboard-response","303","1501989","0.0-8.0-2.0-2.7-0.7","3","1","n0ejn740kq3azov","","null","","sounds/syllables/ni_SWS.wav","","null","","","","","","","","","","","","","","","","","","","","","","","","","","","","","","","","","","","","","","","","","",""
"html-keyboard-response","304","1502530","0.0-8.0-2.0-2.7-1.7","3","1","n0ejn740kq3azov","","540.1000000238419","","<p>To replay the <u>TARGET SOUND</u>, press P.</p> When you are ready to begin, press SPACEBAR.","","32","","","","","","","","","","","","","","","","","","","","","","","","","","","","","","","","","","","","","","","","","",""
"audio-keyboard-response","305","1517483","0.0-8.0-2.0-3.3","3","1","n0ejn740kq3azov","","2020","","sounds/C/TD/NI_09_TD.mp3","","32","","","TD_SUMMARY","","","","","","","","","","","","","","","","","","","","","NI","","3600,5400,8100,11700","1","3600","5400","8100","11700","434.30000001192093","496.80000001192093","904.6999999880791","686","_____________________2021.800000011921_3586.899999976158_4034.300000011921_5896.800000011921_7086.699999988079_9004.699999988079_9318.600000023842_10441.5_12386","2","","","","",""
"html-button-response","306","1518916","0.0-8.0-2.0-0.4","3","1","n0ejn740kq3azov","","1430.199999988079","","<p>Trial 5 of 36</p>","0","","","","","","","","","","","","","","","","","","","","","","","","","GE","sounds/syllables/ge_SWS.wav","2400,4200,9600,12300","3","","","","","","","","","","","","","","",""
"html-keyboard-response","307","1519725","0.0-8.0-2.0-1.4","3","1","n0ejn740kq3azov","","808","","","","80","","","","","","","","","","","","","","","","","","","","","","","","GE","","2400,4200,9600,12300","3","","","","","","","","","","","","","","",""
"audio-keyboard-response","308","1520026","0.0-8.0-2.0-2.8-0.8","3","1","n0ejn740kq3azov","","null","","sounds/syllables/ge_SWS.wav","","null","","","","","","","","","","","","","","","","","","","","","","","","","","","","","","","","","","","","","","","","","",""
"html-keyboard-response","309","1520794","0.0-8.0-2.0-2.8-1.8","3","1","n0ejn740kq3azov","","767.8000000119209","","<p>To replay the <u>TARGET SOUND</u>, press P.</p> When you are ready to begin, press SPACEBAR.","","80","","","","","","","","","","","","","","","","","","","","","","","","","","","","","","","","","","","","","","","","","",""
"audio-keyboard-response","310","1521599","0.0-8.0-2.0-2.9-0.9","3","1","n0ejn740kq3azov","","null","","sounds/syllables/ge_SWS.wav","","null","","","","","","","","","","","","","","","","","","","","","","","","","","","","","","","","","","","","","","","","","",""
"html-keyboard-response","311","1521939","0.0-8.0-2.0-2.9-1.9","3","1","n0ejn740kq3azov","","339.30000001192093","","<p>To replay the <u>TARGET SOUND</u>, press P.</p> When you are ready to begin, press SPACEBAR.","","32","","","","","","","","","","","","","","","","","","","","","","","","","","","","","","","","","","","","","","","","","",""
"audio-keyboard-response","312","1536889","0.0-8.0-2.0-3.4","3","1","n0ejn740kq3azov","","2734","","sounds/C/TD/GE_07_TD.mp3","","32","","","TD_SUMMARY","","","","","","","","","","","","","","","","","","","","","GE","","2400,4200,9600,12300","3","2400","4200","9600","12300","334.89999997615814","652.6999999880791","null","null","______________________________2734.899999976158_4421.300000011921_4852.699999988079_8555.600000023842_12275","2","","","","",""
"html-button-response","313","1537967","0.0-8.0-2.0-0.5","3","1","n0ejn740kq3azov","","1075.5","","<p>Trial 6 of 36</p>","0","","","","","","","","","","","","","","","","","","","","","","","","","PU","sounds/syllables/pu_SWS.wav","2400,4200,8700,10500","3","","","","","","","","","","","","","","",""
