"trial_type","trial_index","time_elapsed","internal_node_id","counterbalance","lang_instruct","ParticipantID","view_history","rt","url","stimulus","button_pressed","key_press","correctRESP","correct","designation","location","correctanswer","responses","sentence","keywords","typed_resp","keyword1_acc","keyword2_acc","keyword3_acc","keyword4_acc","keyword5_acc","total_acc","prop_acc","timeouts","pause_rt01","pause_rt02","train_file","numKeyPress","sound","fam_type","SYLLABLE","EXEMPLAR","TD_LOCS","TD_TYPE","TDLOC_01","TDLOC_02","TDLOC_03","TDLOC_04","TD_RT_01","TD_RT_02","TD_RT_03","TD_RT_04","TD_SUBJ_RTs","number_of_plays","slider_start","response","question_order","syllable","syllable_type"
"pavlovia","0","2","0.0-0.0","3","1","dgvhrzpts29wvvq","","","","","","","","","","","","","","","","","","","","","","","","","","","","","","","","","","","","","","","","","","","","","","","",""
"instructions","1","13479541","0.0-1.0","3","1","dgvhrzpts29wvvq","[{""page_index"":0,""viewing_time"":2259760.1},{""page_index"":1,""viewing_time"":4471.300000000279}]","2264239.1","","","","","","","","","","","","","","","","","","","","","","","","","","","","","","","","","","","","","","","","","","","","","",""
"external-html","2","13484599","0.0-2.0","3","1","dgvhrzpts29wvvq","","4915.700000000186","consent/consent.html","","","","","","","","","","","","","","","","","","","","","","","","","","","","","","","","","","","","","","","","","","","","",""
"html-button-response","3","13486171","0.0-3.0-0.0-0.0","3","1","dgvhrzpts29wvvq","","1569.6000000000931","","<p>Welcome to the study. You will first complete a short volume calibration and headphone check.</p><p>Please make sure you are in a quiet listening environment, that you are wearing headphones, and that your computer's volume is turned on.<p></p>","0","","","","","","","","","","","","","","","","","","","","","","","","","","","","","","","","","","","","","","","","","","",""
"html-button-response","4","13489594","0.0-3.0-0.0-1.0","3","1","dgvhrzpts29wvvq","","3164.600000000093","","<p>The volume calibration will be first.</p><p>You will hear a thirty-second noise. Please adjust your computer's volume so that this noise is being presented at a comfortable level.<p></p>","0","","","","","","","","","","","","","","","","","","","","","","","","","","","","","","","","","","","","","","","","","","",""
"audio-button-response","5","13494141","0.0-3.0-0.0-2.0","3","1","dgvhrzpts29wvvq","","4245","","audCalib/volumetest.mp3","0","","","","","","","","","","","","","","","","","","","","","","","","","","","","","","","","","","","","","","","","","","",""
"html-button-response","6","13495473","0.0-3.0-1.0-0.0","3","1","dgvhrzpts29wvvq","","1328.8999999999069","","<p>You will now complete a short headphone check.</p><p>On each trial, you will hear three tones. One of these tones will be quieter than the others. Your task is to identify whether the quiet tone occured first, second, or third.</p><p>There are six trials in total.<p></p>","0","","","","","","","","","","","","","","","","","","","","","","","","","","","","","","","","","","","","","","","","","","",""
"html-keyboard-response","7","13496227","0.0-3.0-1.0-1.0-0.0","3","1","dgvhrzpts29wvvq","","null","","<div style=""font-size:60px;"">+</div>","","null","","","","","","","","","","","","","","","","","","","","","","","","","","","","","","","","","","","","","","","","","",""
"audio-button-response","8","13500432","0.0-3.0-1.0-1.0-1.0","3","1","dgvhrzpts29wvvq","","4203","","audCalib/t2_2.mp3","1","","1","1","headphone-test","","","","","","","","","","","","","","","","","","","","","","","","","","","","","","","","","","","","","","",""
"html-keyboard-response","9","13501191","0.0-3.0-1.0-1.0-0.1","3","1","dgvhrzpts29wvvq","","null","","<div style=""font-size:60px;"">+</div>","","null","","","","","","","","","","","","","","","","","","","","","","","","","","","","","","","","","","","","","","","","","",""
"audio-button-response","10","13507003","0.0-3.0-1.0-1.0-1.1","3","1","dgvhrzpts29wvvq","","5813","","audCalib/t3_2.mp3","2","","2","1","headphone-test","","","","","","","","","","","","","","","","","","","","","","","","","","","","","","","","","","","","","","",""
"html-keyboard-response","11","13507761","0.0-3.0-1.0-1.0-0.2","3","1","dgvhrzpts29wvvq","","null","","<div style=""font-size:60px;"">+</div>","","null","","","","","","","","","","","","","","","","","","","","","","","","","","","","","","","","","","","","","","","","","",""
"audio-button-response","12","13512132","0.0-3.0-1.0-1.0-1.2","3","1","dgvhrzpts29wvvq","","4368","","audCalib/t1_1.mp3","1","","0","0","headphone-test","","","","","","","","","","","","","","","","","","","","","","","","","","","","","","","","","","","","","","",""
"html-keyboard-response","13","13512891","0.0-3.0-1.0-1.0-0.3","3","1","dgvhrzpts29wvvq","","null","","<div style=""font-size:60px;"">+</div>","","null","","","","","","","","","","","","","","","","","","","","","","","","","","","","","","","","","","","","","","","","","",""
"audio-button-response","14","13528550","0.0-3.0-1.0-1.0-1.3","3","1","dgvhrzpts29wvvq","","15589","","audCalib/t3_1.mp3","2","","2","1","headphone-test","","","","","","","","","","","","","","","","","","","","","","","","","","","","","","","","","","","","","","",""
"html-keyboard-response","15","13529311","0.0-3.0-1.0-1.0-0.4","3","1","dgvhrzpts29wvvq","","null","","<div style=""font-size:60px;"">+</div>","","null","","","","","","","","","","","","","","","","","","","","","","","","","","","","","","","","","","","","","","","","","",""
"audio-button-response","16","13533474","0.0-3.0-1.0-1.0-1.4","3","1","dgvhrzpts29wvvq","","4160","","audCalib/t1_2.mp3","0","","0","1","headphone-test","","","","","","","","","","","","","","","","","","","","","","","","","","","","","","","","","","","","","","",""
"html-keyboard-response","17","13534229","0.0-3.0-1.0-1.0-0.5","3","1","dgvhrzpts29wvvq","","null","","<div style=""font-size:60px;"">+</div>","","null","","","","","","","","","","","","","","","","","","","","","","","","","","","","","","","","","","","","","","","","","",""
"audio-button-response","18","13538183","0.0-3.0-1.0-1.0-1.5","3","1","dgvhrzpts29wvvq","","3952","","audCalib/t2_1.mp3","1","","1","1","headphone-test","","","","","","","","","","","","","","","","","","","","","","","","","","","","","","","","","","","","","","",""
"html-button-response","19","13539875","0.0-3.0-2.0","3","1","dgvhrzpts29wvvq","","1434.7000000001863","","<p>The volume calibration and headphone check are now complete.</p>","0","","","","","","","","","","","","","","","","","","","","","","","","","","","","","","","","","","","","","","","","","","",""
"instructions","20","13544873","0.0-4.0-0.0","3","1","dgvhrzpts29wvvq","[{""page_index"":0,""viewing_time"":1443.5},{""page_index"":1,""viewing_time"":1774.6000000000931},{""page_index"":2,""viewing_time"":1777.6000000000931}]","4996.200000000186","","","","","","","","","","","","","","","","","","","","","","","","","","","","","","","","","","","","","","","","","","","","","",""
"audio-keyboard-response","21","13545176","0.0-4.0-1.0-0.0","3","1","dgvhrzpts29wvvq","","null","","sounds/induction/left/me_SWS.wav","","null","","","","","","","","","","","","","","","","","","","","","","","","","","","","","","","","","","","","","","","","","",""
"html-button-response","22","13546742","0.0-4.0-1.0-1.0","3","1","dgvhrzpts29wvvq","","1564.1000000000931","","What sound did you hear?","1","","","1","INDUCTION-JUDGMENT","left","1","","","","","","","","","","","","","","","","","","","","","","","","","","","","","","","","","","","","",""
"html-keyboard-response","23","13547744","0.0-4.0-1.0-2.0","3","1","dgvhrzpts29wvvq","","null","","<p style=""color:green;""><b>Correct!</b></p>","","null","","","","","","","","","","","","","","","","","","","","","","","","","","","","","","","","","","","","","","","","","",""
"audio-keyboard-response","24","13548547","0.0-4.0-1.0-0.1","3","1","dgvhrzpts29wvvq","","null","","sounds/induction/left/ge_SWS.wav","","null","","","","","","","","","","","","","","","","","","","","","","","","","","","","","","","","","","","","","","","","","",""
"html-button-response","25","13549753","0.0-4.0-1.0-1.1","3","1","dgvhrzpts29wvvq","","1204.5","","What sound did you hear?","1","","","1","INDUCTION-JUDGMENT","left","1","","","","","","","","","","","","","","","","","","","","","","","","","","","","","","","","","","","","",""
"html-keyboard-response","26","13550757","0.0-4.0-1.0-2.1","3","1","dgvhrzpts29wvvq","","null","","<p style=""color:green;""><b>Correct!</b></p>","","null","","","","","","","","","","","","","","","","","","","","","","","","","","","","","","","","","","","","","","","","","",""
"audio-keyboard-response","27","13551566","0.0-4.0-1.0-0.2","3","1","dgvhrzpts29wvvq","","null","","sounds/induction/left/re_SWS.wav","","null","","","","","","","","","","","","","","","","","","","","","","","","","","","","","","","","","","","","","","","","","",""
"html-button-response","28","13553010","0.0-4.0-1.0-1.2","3","1","dgvhrzpts29wvvq","","1442.2000000001863","","What sound did you hear?","0","","","1","INDUCTION-JUDGMENT","left","0","","","","","","","","","","","","","","","","","","","","","","","","","","","","","","","","","","","","",""
"html-keyboard-response","29","13554011","0.0-4.0-1.0-2.2","3","1","dgvhrzpts29wvvq","","null","","<p style=""color:green;""><b>Correct!</b></p>","","null","","","","","","","","","","","","","","","","","","","","","","","","","","","","","","","","","","","","","","","","","",""
"audio-keyboard-response","30","13554814","0.0-4.0-1.0-0.3","3","1","dgvhrzpts29wvvq","","null","","sounds/induction/right/ti_SWS.wav","","null","","","","","","","","","","","","","","","","","","","","","","","","","","","","","","","","","","","","","","","","","",""
"html-button-response","31","13558446","0.0-4.0-1.0-1.3","3","1","dgvhrzpts29wvvq","","3630","","What sound did you hear?","1","","","1","INDUCTION-JUDGMENT","right","1","","","","","","","","","","","","","","","","","","","","","","","","","","","","","","","","","","","","",""
"html-keyboard-response","32","13559453","0.0-4.0-1.0-2.3","3","1","dgvhrzpts29wvvq","","null","","<p style=""color:green;""><b>Correct!</b></p>","","null","","","","","","","","","","","","","","","","","","","","","","","","","","","","","","","","","","","","","","","","","",""
"audio-keyboard-response","33","13560259","0.0-4.0-1.0-0.4","3","1","dgvhrzpts29wvvq","","null","","sounds/induction/right/ru_SWS.wav","","null","","","","","","","","","","","","","","","","","","","","","","","","","","","","","","","","","","","","","","","","","",""
"html-button-response","34","13561393","0.0-4.0-1.0-1.4","3","1","dgvhrzpts29wvvq","","1132.6000000000931","","What sound did you hear?","1","","","1","INDUCTION-JUDGMENT","right","1","","","","","","","","","","","","","","","","","","","","","","","","","","","","","","","","","","","","",""
"html-keyboard-response","35","13562395","0.0-4.0-1.0-2.4","3","1","dgvhrzpts29wvvq","","null","","<p style=""color:green;""><b>Correct!</b></p>","","null","","","","","","","","","","","","","","","","","","","","","","","","","","","","","","","","","","","","","","","","","",""
"audio-keyboard-response","36","13563198","0.0-4.0-1.0-0.5","3","1","dgvhrzpts29wvvq","","null","","sounds/induction/right/ge_SWS.wav","","null","","","","","","","","","","","","","","","","","","","","","","","","","","","","","","","","","","","","","","","","","",""
"html-button-response","37","13565329","0.0-4.0-1.0-1.5","3","1","dgvhrzpts29wvvq","","2130","","What sound did you hear?","0","","","1","INDUCTION-JUDGMENT","right","0","","","","","","","","","","","","","","","","","","","","","","","","","","","","","","","","","","","","",""
"html-keyboard-response","38","13566334","0.0-4.0-1.0-2.5","3","1","dgvhrzpts29wvvq","","null","","<p style=""color:green;""><b>Correct!</b></p>","","null","","","","","","","","","","","","","","","","","","","","","","","","","","","","","","","","","","","","","","","","","",""
"audio-keyboard-response","39","13567144","0.0-4.0-1.0-0.6","3","1","dgvhrzpts29wvvq","","null","","sounds/induction/left/su_SWS.wav","","null","","","","","","","","","","","","","","","","","","","","","","","","","","","","","","","","","","","","","","","","","",""
"html-button-response","40","13568331","0.0-4.0-1.0-1.6","3","1","dgvhrzpts29wvvq","","1186.1999999997206","","What sound did you hear?","0","","","1","INDUCTION-JUDGMENT","left","0","","","","","","","","","","","","","","","","","","","","","","","","","","","","","","","","","","","","",""
"html-keyboard-response","41","13569334","0.0-4.0-1.0-2.6","3","1","dgvhrzpts29wvvq","","null","","<p style=""color:green;""><b>Correct!</b></p>","","null","","","","","","","","","","","","","","","","","","","","","","","","","","","","","","","","","","","","","","","","","",""
"audio-keyboard-response","42","13570136","0.0-4.0-1.0-0.7","3","1","dgvhrzpts29wvvq","","null","","sounds/induction/left/re_SWS.wav","","null","","","","","","","","","","","","","","","","","","","","","","","","","","","","","","","","","","","","","","","","","",""
"html-button-response","43","13571332","0.0-4.0-1.0-1.7","3","1","dgvhrzpts29wvvq","","1194.5","","What sound did you hear?","0","","","1","INDUCTION-JUDGMENT","left","0","","","","","","","","","","","","","","","","","","","","","","","","","","","","","","","","","","","","",""
"html-keyboard-response","44","13572338","0.0-4.0-1.0-2.7","3","1","dgvhrzpts29wvvq","","null","","<p style=""color:green;""><b>Correct!</b></p>","","null","","","","","","","","","","","","","","","","","","","","","","","","","","","","","","","","","","","","","","","","","",""
"audio-keyboard-response","45","13573139","0.0-4.0-1.0-0.8","3","1","dgvhrzpts29wvvq","","null","","sounds/induction/left/pu_SWS.wav","","null","","","","","","","","","","","","","","","","","","","","","","","","","","","","","","","","","","","","","","","","","",""
"html-button-response","46","13574403","0.0-4.0-1.0-1.8","3","1","dgvhrzpts29wvvq","","1262.8000000002794","","What sound did you hear?","0","","","1","INDUCTION-JUDGMENT","left","0","","","","","","","","","","","","","","","","","","","","","","","","","","","","","","","","","","","","",""
"html-keyboard-response","47","13575409","0.0-4.0-1.0-2.8","3","1","dgvhrzpts29wvvq","","null","","<p style=""color:green;""><b>Correct!</b></p>","","null","","","","","","","","","","","","","","","","","","","","","","","","","","","","","","","","","","","","","","","","","",""
"audio-keyboard-response","48","13576211","0.0-4.0-1.0-0.9","3","1","dgvhrzpts29wvvq","","null","","sounds/induction/left/ge_SWS.wav","","null","","","","","","","","","","","","","","","","","","","","","","","","","","","","","","","","","","","","","","","","","",""
"html-button-response","49","13577361","0.0-4.0-1.0-1.9","3","1","dgvhrzpts29wvvq","","1148.7000000001863","","What sound did you hear?","1","","","1","INDUCTION-JUDGMENT","left","1","","","","","","","","","","","","","","","","","","","","","","","","","","","","","","","","","","","","",""
"html-keyboard-response","50","13578367","0.0-4.0-1.0-2.9","3","1","dgvhrzpts29wvvq","","null","","<p style=""color:green;""><b>Correct!</b></p>","","null","","","","","","","","","","","","","","","","","","","","","","","","","","","","","","","","","","","","","","","","","",""
"audio-keyboard-response","51","13579171","0.0-4.0-1.0-0.10","3","1","dgvhrzpts29wvvq","","null","","sounds/induction/right/me_SWS.wav","","null","","","","","","","","","","","","","","","","","","","","","","","","","","","","","","","","","","","","","","","","","",""
"html-button-response","52","13580309","0.0-4.0-1.0-1.10","3","1","dgvhrzpts29wvvq","","1136.8000000002794","","What sound did you hear?","0","","","1","INDUCTION-JUDGMENT","right","0","","","","","","","","","","","","","","","","","","","","","","","","","","","","","","","","","","","","",""
"html-keyboard-response","53","13581315","0.0-4.0-1.0-2.10","3","1","dgvhrzpts29wvvq","","null","","<p style=""color:green;""><b>Correct!</b></p>","","null","","","","","","","","","","","","","","","","","","","","","","","","","","","","","","","","","","","","","","","","","",""
"audio-keyboard-response","54","13582120","0.0-4.0-1.0-0.11","3","1","dgvhrzpts29wvvq","","null","","sounds/induction/right/ta_SWS.wav","","null","","","","","","","","","","","","","","","","","","","","","","","","","","","","","","","","","","","","","","","","","",""
"html-button-response","55","13583364","0.0-4.0-1.0-1.11","3","1","dgvhrzpts29wvvq","","1241.6000000000931","","What sound did you hear?","1","","","1","INDUCTION-JUDGMENT","right","1","","","","","","","","","","","","","","","","","","","","","","","","","","","","","","","","","","","","",""
"html-keyboard-response","56","13584368","0.0-4.0-1.0-2.11","3","1","dgvhrzpts29wvvq","","null","","<p style=""color:green;""><b>Correct!</b></p>","","null","","","","","","","","","","","","","","","","","","","","","","","","","","","","","","","","","","","","","","","","","",""
"audio-keyboard-response","57","13585171","0.0-4.0-1.0-0.12","3","1","dgvhrzpts29wvvq","","null","","sounds/induction/right/re_SWS.wav","","null","","","","","","","","","","","","","","","","","","","","","","","","","","","","","","","","","","","","","","","","","",""
"html-button-response","58","13585986","0.0-4.0-1.0-1.12","3","1","dgvhrzpts29wvvq","","814.3000000002794","","What sound did you hear?","1","","","1","INDUCTION-JUDGMENT","right","1","","","","","","","","","","","","","","","","","","","","","","","","","","","","","","","","","","","","",""
"html-keyboard-response","59","13586993","0.0-4.0-1.0-2.12","3","1","dgvhrzpts29wvvq","","null","","<p style=""color:green;""><b>Correct!</b></p>","","null","","","","","","","","","","","","","","","","","","","","","","","","","","","","","","","","","","","","","","","","","",""
"audio-keyboard-response","60","13587800","0.0-4.0-1.0-0.13","3","1","dgvhrzpts29wvvq","","null","","sounds/induction/left/fu_SWS.wav","","null","","","","","","","","","","","","","","","","","","","","","","","","","","","","","","","","","","","","","","","","","",""
"html-button-response","61","13588932","0.0-4.0-1.0-1.13","3","1","dgvhrzpts29wvvq","","1130.5","","What sound did you hear?","1","","","1","INDUCTION-JUDGMENT","left","1","","","","","","","","","","","","","","","","","","","","","","","","","","","","","","","","","","","","",""
"html-keyboard-response","62","13589935","0.0-4.0-1.0-2.13","3","1","dgvhrzpts29wvvq","","null","","<p style=""color:green;""><b>Correct!</b></p>","","null","","","","","","","","","","","","","","","","","","","","","","","","","","","","","","","","","","","","","","","","","",""
"audio-keyboard-response","63","13590739","0.0-4.0-1.0-0.14","3","1","dgvhrzpts29wvvq","","null","","sounds/induction/left/ta_SWS.wav","","null","","","","","","","","","","","","","","","","","","","","","","","","","","","","","","","","","","","","","","","","","",""
"html-button-response","64","13591735","0.0-4.0-1.0-1.14","3","1","dgvhrzpts29wvvq","","995.6000000000931","","What sound did you hear?","0","","","1","INDUCTION-JUDGMENT","left","0","","","","","","","","","","","","","","","","","","","","","","","","","","","","","","","","","","","","",""
"html-keyboard-response","65","13592740","0.0-4.0-1.0-2.14","3","1","dgvhrzpts29wvvq","","null","","<p style=""color:green;""><b>Correct!</b></p>","","null","","","","","","","","","","","","","","","","","","","","","","","","","","","","","","","","","","","","","","","","","",""
"audio-keyboard-response","66","13593544","0.0-4.0-1.0-0.15","3","1","dgvhrzpts29wvvq","","null","","sounds/induction/left/fu_SWS.wav","","null","","","","","","","","","","","","","","","","","","","","","","","","","","","","","","","","","","","","","","","","","",""
"html-button-response","67","13594502","0.0-4.0-1.0-1.15","3","1","dgvhrzpts29wvvq","","956.2999999998137","","What sound did you hear?","1","","","1","INDUCTION-JUDGMENT","left","1","","","","","","","","","","","","","","","","","","","","","","","","","","","","","","","","","","","","",""
"html-keyboard-response","68","13595505","0.0-4.0-1.0-2.15","3","1","dgvhrzpts29wvvq","","null","","<p style=""color:green;""><b>Correct!</b></p>","","null","","","","","","","","","","","","","","","","","","","","","","","","","","","","","","","","","","","","","","","","","",""
"audio-keyboard-response","69","13596312","0.0-4.0-1.0-0.16","3","1","dgvhrzpts29wvvq","","null","","sounds/induction/right/pu_SWS.wav","","null","","","","","","","","","","","","","","","","","","","","","","","","","","","","","","","","","","","","","","","","","",""
"html-button-response","70","13597123","0.0-4.0-1.0-1.16","3","1","dgvhrzpts29wvvq","","809.3000000002794","","What sound did you hear?","1","","","1","INDUCTION-JUDGMENT","right","1","","","","","","","","","","","","","","","","","","","","","","","","","","","","","","","","","","","","",""
"html-keyboard-response","71","13598128","0.0-4.0-1.0-2.16","3","1","dgvhrzpts29wvvq","","null","","<p style=""color:green;""><b>Correct!</b></p>","","null","","","","","","","","","","","","","","","","","","","","","","","","","","","","","","","","","","","","","","","","","",""
"audio-keyboard-response","72","13598936","0.0-4.0-1.0-0.17","3","1","dgvhrzpts29wvvq","","null","","sounds/induction/right/ru_SWS.wav","","null","","","","","","","","","","","","","","","","","","","","","","","","","","","","","","","","","","","","","","","","","",""
"html-button-response","73","13599593","0.0-4.0-1.0-1.17","3","1","dgvhrzpts29wvvq","","655.2999999998137","","What sound did you hear?","1","","","1","INDUCTION-JUDGMENT","right","1","","","","","","","","","","","","","","","","","","","","","","","","","","","","","","","","","","","","",""
"html-keyboard-response","74","13600597","0.0-4.0-1.0-2.17","3","1","dgvhrzpts29wvvq","","null","","<p style=""color:green;""><b>Correct!</b></p>","","null","","","","","","","","","","","","","","","","","","","","","","","","","","","","","","","","","","","","","","","","","",""
"audio-keyboard-response","75","13601400","0.0-4.0-1.0-0.18","3","1","dgvhrzpts29wvvq","","null","","sounds/induction/left/ni_SWS.wav","","null","","","","","","","","","","","","","","","","","","","","","","","","","","","","","","","","","","","","","","","","","",""
"html-button-response","76","13602677","0.0-4.0-1.0-1.18","3","1","dgvhrzpts29wvvq","","1274.7000000001863","","What sound did you hear?","1","","","1","INDUCTION-JUDGMENT","left","1","","","","","","","","","","","","","","","","","","","","","","","","","","","","","","","","","","","","",""
"html-keyboard-response","77","13603682","0.0-4.0-1.0-2.18","3","1","dgvhrzpts29wvvq","","null","","<p style=""color:green;""><b>Correct!</b></p>","","null","","","","","","","","","","","","","","","","","","","","","","","","","","","","","","","","","","","","","","","","","",""
"audio-keyboard-response","78","13604488","0.0-4.0-1.0-0.19","3","1","dgvhrzpts29wvvq","","null","","sounds/induction/left/ru_SWS.wav","","null","","","","","","","","","","","","","","","","","","","","","","","","","","","","","","","","","","","","","","","","","",""
"html-button-response","79","13605463","0.0-4.0-1.0-1.19","3","1","dgvhrzpts29wvvq","","973.7999999998137","","What sound did you hear?","0","","","1","INDUCTION-JUDGMENT","left","0","","","","","","","","","","","","","","","","","","","","","","","","","","","","","","","","","","","","",""
"html-keyboard-response","80","13606465","0.0-4.0-1.0-2.19","3","1","dgvhrzpts29wvvq","","null","","<p style=""color:green;""><b>Correct!</b></p>","","null","","","","","","","","","","","","","","","","","","","","","","","","","","","","","","","","","","","","","","","","","",""
"audio-keyboard-response","81","13607272","0.0-4.0-1.0-0.20","3","1","dgvhrzpts29wvvq","","null","","sounds/induction/right/fu_SWS.wav","","null","","","","","","","","","","","","","","","","","","","","","","","","","","","","","","","","","","","","","","","","","",""
"html-button-response","82","13608530","0.0-4.0-1.0-1.20","3","1","dgvhrzpts29wvvq","","1256.1999999997206","","What sound did you hear?","0","","","1","INDUCTION-JUDGMENT","right","0","","","","","","","","","","","","","","","","","","","","","","","","","","","","","","","","","","","","",""
"html-keyboard-response","83","13609533","0.0-4.0-1.0-2.20","3","1","dgvhrzpts29wvvq","","null","","<p style=""color:green;""><b>Correct!</b></p>","","null","","","","","","","","","","","","","","","","","","","","","","","","","","","","","","","","","","","","","","","","","",""
"audio-keyboard-response","84","13610339","0.0-4.0-1.0-0.21","3","1","dgvhrzpts29wvvq","","null","","sounds/induction/left/pu_SWS.wav","","null","","","","","","","","","","","","","","","","","","","","","","","","","","","","","","","","","","","","","","","","","",""
"html-button-response","85","13612716","0.0-4.0-1.0-1.21","3","1","dgvhrzpts29wvvq","","2375.5","","What sound did you hear?","0","","","1","INDUCTION-JUDGMENT","left","0","","","","","","","","","","","","","","","","","","","","","","","","","","","","","","","","","","","","",""
"html-keyboard-response","86","13613718","0.0-4.0-1.0-2.21","3","1","dgvhrzpts29wvvq","","null","","<p style=""color:green;""><b>Correct!</b></p>","","null","","","","","","","","","","","","","","","","","","","","","","","","","","","","","","","","","","","","","","","","","",""
"audio-keyboard-response","87","13614520","0.0-4.0-1.0-0.22","3","1","dgvhrzpts29wvvq","","null","","sounds/induction/left/ti_SWS.wav","","null","","","","","","","","","","","","","","","","","","","","","","","","","","","","","","","","","","","","","","","","","",""
"html-button-response","88","13616057","0.0-4.0-1.0-1.22","3","1","dgvhrzpts29wvvq","","1535.6999999997206","","What sound did you hear?","0","","","1","INDUCTION-JUDGMENT","left","0","","","","","","","","","","","","","","","","","","","","","","","","","","","","","","","","","","","","",""
"html-keyboard-response","89","13617058","0.0-4.0-1.0-2.22","3","1","dgvhrzpts29wvvq","","null","","<p style=""color:green;""><b>Correct!</b></p>","","null","","","","","","","","","","","","","","","","","","","","","","","","","","","","","","","","","","","","","","","","","",""
"audio-keyboard-response","90","13617864","0.0-4.0-1.0-0.23","3","1","dgvhrzpts29wvvq","","null","","sounds/induction/right/ni_SWS.wav","","null","","","","","","","","","","","","","","","","","","","","","","","","","","","","","","","","","","","","","","","","","",""
"html-button-response","91","13618744","0.0-4.0-1.0-1.23","3","1","dgvhrzpts29wvvq","","879.3000000002794","","What sound did you hear?","0","","","1","INDUCTION-JUDGMENT","right","0","","","","","","","","","","","","","","","","","","","","","","","","","","","","","","","","","","","","",""
"html-keyboard-response","92","13619747","0.0-4.0-1.0-2.23","3","1","dgvhrzpts29wvvq","","null","","<p style=""color:green;""><b>Correct!</b></p>","","null","","","","","","","","","","","","","","","","","","","","","","","","","","","","","","","","","","","","","","","","","",""
"audio-keyboard-response","93","13620552","0.0-4.0-1.0-0.24","3","1","dgvhrzpts29wvvq","","null","","sounds/induction/right/ge_SWS.wav","","null","","","","","","","","","","","","","","","","","","","","","","","","","","","","","","","","","","","","","","","","","",""
"html-button-response","94","13621944","0.0-4.0-1.0-1.24","3","1","dgvhrzpts29wvvq","","1391.5","","What sound did you hear?","0","","","1","INDUCTION-JUDGMENT","right","0","","","","","","","","","","","","","","","","","","","","","","","","","","","","","","","","","","","","",""
"html-keyboard-response","95","13622946","0.0-4.0-1.0-2.24","3","1","dgvhrzpts29wvvq","","null","","<p style=""color:green;""><b>Correct!</b></p>","","null","","","","","","","","","","","","","","","","","","","","","","","","","","","","","","","","","","","","","","","","","",""
"audio-keyboard-response","96","13623747","0.0-4.0-1.0-0.25","3","1","dgvhrzpts29wvvq","","null","","sounds/induction/left/ta_SWS.wav","","null","","","","","","","","","","","","","","","","","","","","","","","","","","","","","","","","","","","","","","","","","",""
"html-button-response","97","13624552","0.0-4.0-1.0-1.25","3","1","dgvhrzpts29wvvq","","804","","What sound did you hear?","0","","","1","INDUCTION-JUDGMENT","left","0","","","","","","","","","","","","","","","","","","","","","","","","","","","","","","","","","","","","",""
"html-keyboard-response","98","13625558","0.0-4.0-1.0-2.25","3","1","dgvhrzpts29wvvq","","null","","<p style=""color:green;""><b>Correct!</b></p>","","null","","","","","","","","","","","","","","","","","","","","","","","","","","","","","","","","","","","","","","","","","",""
"audio-keyboard-response","99","13626365","0.0-4.0-1.0-0.26","3","1","dgvhrzpts29wvvq","","null","","sounds/induction/right/fe_SWS.wav","","null","","","","","","","","","","","","","","","","","","","","","","","","","","","","","","","","","","","","","","","","","",""
"html-button-response","100","13627353","0.0-4.0-1.0-1.26","3","1","dgvhrzpts29wvvq","","986.1999999997206","","What sound did you hear?","0","","","1","INDUCTION-JUDGMENT","right","0","","","","","","","","","","","","","","","","","","","","","","","","","","","","","","","","","","","","",""
"html-keyboard-response","101","13628355","0.0-4.0-1.0-2.26","3","1","dgvhrzpts29wvvq","","null","","<p style=""color:green;""><b>Correct!</b></p>","","null","","","","","","","","","","","","","","","","","","","","","","","","","","","","","","","","","","","","","","","","","",""
"audio-keyboard-response","102","13629160","0.0-4.0-1.0-0.27","3","1","dgvhrzpts29wvvq","","null","","sounds/induction/left/ti_SWS.wav","","null","","","","","","","","","","","","","","","","","","","","","","","","","","","","","","","","","","","","","","","","","",""
"html-button-response","103","13630105","0.0-4.0-1.0-1.27","3","1","dgvhrzpts29wvvq","","943.5","","What sound did you hear?","0","","","1","INDUCTION-JUDGMENT","left","0","","","","","","","","","","","","","","","","","","","","","","","","","","","","","","","","","","","","",""
"html-keyboard-response","104","13631111","0.0-4.0-1.0-2.27","3","1","dgvhrzpts29wvvq","","null","","<p style=""color:green;""><b>Correct!</b></p>","","null","","","","","","","","","","","","","","","","","","","","","","","","","","","","","","","","","","","","","","","","","",""
"audio-keyboard-response","105","13631918","0.0-4.0-1.0-0.28","3","1","dgvhrzpts29wvvq","","null","","sounds/induction/right/fu_SWS.wav","","null","","","","","","","","","","","","","","","","","","","","","","","","","","","","","","","","","","","","","","","","","",""
"html-button-response","106","13632896","0.0-4.0-1.0-1.28","3","1","dgvhrzpts29wvvq","","976.8000000002794","","What sound did you hear?","0","","","1","INDUCTION-JUDGMENT","right","0","","","","","","","","","","","","","","","","","","","","","","","","","","","","","","","","","","","","",""
"html-keyboard-response","107","13633897","0.0-4.0-1.0-2.28","3","1","dgvhrzpts29wvvq","","null","","<p style=""color:green;""><b>Correct!</b></p>","","null","","","","","","","","","","","","","","","","","","","","","","","","","","","","","","","","","","","","","","","","","",""
"audio-keyboard-response","108","13634696","0.0-4.0-1.0-0.29","3","1","dgvhrzpts29wvvq","","null","","sounds/induction/left/fe_SWS.wav","","null","","","","","","","","","","","","","","","","","","","","","","","","","","","","","","","","","","","","","","","","","",""
"html-button-response","109","13635765","0.0-4.0-1.0-1.29","3","1","dgvhrzpts29wvvq","","1067.5","","What sound did you hear?","1","","","1","INDUCTION-JUDGMENT","left","1","","","","","","","","","","","","","","","","","","","","","","","","","","","","","","","","","","","","",""
"html-keyboard-response","110","13636772","0.0-4.0-1.0-2.29","3","1","dgvhrzpts29wvvq","","null","","<p style=""color:green;""><b>Correct!</b></p>","","null","","","","","","","","","","","","","","","","","","","","","","","","","","","","","","","","","","","","","","","","","",""
"audio-keyboard-response","111","13637576","0.0-4.0-1.0-0.30","3","1","dgvhrzpts29wvvq","","null","","sounds/induction/left/ru_SWS.wav","","null","","","","","","","","","","","","","","","","","","","","","","","","","","","","","","","","","","","","","","","","","",""
"html-button-response","112","13638361","0.0-4.0-1.0-1.30","3","1","dgvhrzpts29wvvq","","783.3000000002794","","What sound did you hear?","0","","","1","INDUCTION-JUDGMENT","left","0","","","","","","","","","","","","","","","","","","","","","","","","","","","","","","","","","","","","",""
"html-keyboard-response","113","13639365","0.0-4.0-1.0-2.30","3","1","dgvhrzpts29wvvq","","null","","<p style=""color:green;""><b>Correct!</b></p>","","null","","","","","","","","","","","","","","","","","","","","","","","","","","","","","","","","","","","","","","","","","",""
"audio-keyboard-response","114","13640168","0.0-4.0-1.0-0.31","3","1","dgvhrzpts29wvvq","","null","","sounds/induction/left/ko_SWS.wav","","null","","","","","","","","","","","","","","","","","","","","","","","","","","","","","","","","","","","","","","","","","",""
"html-button-response","115","13641305","0.0-4.0-1.0-1.31","3","1","dgvhrzpts29wvvq","","1135.7000000001863","","What sound did you hear?","1","","","1","INDUCTION-JUDGMENT","left","1","","","","","","","","","","","","","","","","","","","","","","","","","","","","","","","","","","","","",""
"html-keyboard-response","116","13642311","0.0-4.0-1.0-2.31","3","1","dgvhrzpts29wvvq","","null","","<p style=""color:green;""><b>Correct!</b></p>","","null","","","","","","","","","","","","","","","","","","","","","","","","","","","","","","","","","","","","","","","","","",""
"audio-keyboard-response","117","13643117","0.0-4.0-1.0-0.32","3","1","dgvhrzpts29wvvq","","null","","sounds/induction/right/pu_SWS.wav","","null","","","","","","","","","","","","","","","","","","","","","","","","","","","","","","","","","","","","","","","","","",""
"html-button-response","118","13643943","0.0-4.0-1.0-1.32","3","1","dgvhrzpts29wvvq","","824.7999999998137","","What sound did you hear?","1","","","1","INDUCTION-JUDGMENT","right","1","","","","","","","","","","","","","","","","","","","","","","","","","","","","","","","","","","","","",""
"html-keyboard-response","119","13644948","0.0-4.0-1.0-2.32","3","1","dgvhrzpts29wvvq","","null","","<p style=""color:green;""><b>Correct!</b></p>","","null","","","","","","","","","","","","","","","","","","","","","","","","","","","","","","","","","","","","","","","","","",""
"audio-keyboard-response","120","13645752","0.0-4.0-1.0-0.33","3","1","dgvhrzpts29wvvq","","null","","sounds/induction/right/fe_SWS.wav","","null","","","","","","","","","","","","","","","","","","","","","","","","","","","","","","","","","","","","","","","","","",""
"html-button-response","121","13646657","0.0-4.0-1.0-1.33","3","1","dgvhrzpts29wvvq","","903.7999999998137","","What sound did you hear?","0","","","1","INDUCTION-JUDGMENT","right","0","","","","","","","","","","","","","","","","","","","","","","","","","","","","","","","","","","","","",""
"html-keyboard-response","122","13647661","0.0-4.0-1.0-2.33","3","1","dgvhrzpts29wvvq","","null","","<p style=""color:green;""><b>Correct!</b></p>","","null","","","","","","","","","","","","","","","","","","","","","","","","","","","","","","","","","","","","","","","","","",""
"audio-keyboard-response","123","13648467","0.0-4.0-1.0-0.34","3","1","dgvhrzpts29wvvq","","null","","sounds/induction/right/su_SWS.wav","","null","","","","","","","","","","","","","","","","","","","","","","","","","","","","","","","","","","","","","","","","","",""
"html-button-response","124","13649281","0.0-4.0-1.0-1.34","3","1","dgvhrzpts29wvvq","","813.1999999997206","","What sound did you hear?","1","","","1","INDUCTION-JUDGMENT","right","1","","","","","","","","","","","","","","","","","","","","","","","","","","","","","","","","","","","","",""
"html-keyboard-response","125","13650286","0.0-4.0-1.0-2.34","3","1","dgvhrzpts29wvvq","","null","","<p style=""color:green;""><b>Correct!</b></p>","","null","","","","","","","","","","","","","","","","","","","","","","","","","","","","","","","","","","","","","","","","","",""
"audio-keyboard-response","126","13651091","0.0-4.0-1.0-0.35","3","1","dgvhrzpts29wvvq","","null","","sounds/induction/left/ko_SWS.wav","","null","","","","","","","","","","","","","","","","","","","","","","","","","","","","","","","","","","","","","","","","","",""
"html-button-response","127","13652089","0.0-4.0-1.0-1.35","3","1","dgvhrzpts29wvvq","","997.7999999998137","","What sound did you hear?","1","","","1","INDUCTION-JUDGMENT","left","1","","","","","","","","","","","","","","","","","","","","","","","","","","","","","","","","","","","","",""
"html-keyboard-response","128","13653095","0.0-4.0-1.0-2.35","3","1","dgvhrzpts29wvvq","","null","","<p style=""color:green;""><b>Correct!</b></p>","","null","","","","","","","","","","","","","","","","","","","","","","","","","","","","","","","","","","","","","","","","","",""
"audio-keyboard-response","129","13653902","0.0-4.0-1.0-0.36","3","1","dgvhrzpts29wvvq","","null","","sounds/induction/right/me_SWS.wav","","null","","","","","","","","","","","","","","","","","","","","","","","","","","","","","","","","","","","","","","","","","",""
"html-button-response","130","13654610","0.0-4.0-1.0-1.36","3","1","dgvhrzpts29wvvq","","706.3000000002794","","What sound did you hear?","0","","","1","INDUCTION-JUDGMENT","right","0","","","","","","","","","","","","","","","","","","","","","","","","","","","","","","","","","","","","",""
"html-keyboard-response","131","13655615","0.0-4.0-1.0-2.36","3","1","dgvhrzpts29wvvq","","null","","<p style=""color:green;""><b>Correct!</b></p>","","null","","","","","","","","","","","","","","","","","","","","","","","","","","","","","","","","","","","","","","","","","",""
"audio-keyboard-response","132","13656419","0.0-4.0-1.0-0.37","3","1","dgvhrzpts29wvvq","","null","","sounds/induction/right/ni_SWS.wav","","null","","","","","","","","","","","","","","","","","","","","","","","","","","","","","","","","","","","","","","","","","",""
"html-button-response","133","13657746","0.0-4.0-1.0-1.37","3","1","dgvhrzpts29wvvq","","1324.8999999999069","","What sound did you hear?","0","","","1","INDUCTION-JUDGMENT","right","0","","","","","","","","","","","","","","","","","","","","","","","","","","","","","","","","","","","","",""
"html-keyboard-response","134","13658750","0.0-4.0-1.0-2.37","3","1","dgvhrzpts29wvvq","","null","","<p style=""color:green;""><b>Correct!</b></p>","","null","","","","","","","","","","","","","","","","","","","","","","","","","","","","","","","","","","","","","","","","","",""
"audio-keyboard-response","135","13659555","0.0-4.0-1.0-0.38","3","1","dgvhrzpts29wvvq","","null","","sounds/induction/left/su_SWS.wav","","null","","","","","","","","","","","","","","","","","","","","","","","","","","","","","","","","","","","","","","","","","",""
"html-button-response","136","13660757","0.0-4.0-1.0-1.38","3","1","dgvhrzpts29wvvq","","1201.6000000000931","","What sound did you hear?","0","","","1","INDUCTION-JUDGMENT","left","0","","","","","","","","","","","","","","","","","","","","","","","","","","","","","","","","","","","","",""
"html-keyboard-response","137","13661761","0.0-4.0-1.0-2.38","3","1","dgvhrzpts29wvvq","","null","","<p style=""color:green;""><b>Correct!</b></p>","","null","","","","","","","","","","","","","","","","","","","","","","","","","","","","","","","","","","","","","","","","","",""
"audio-keyboard-response","138","13662568","0.0-4.0-1.0-0.39","3","1","dgvhrzpts29wvvq","","null","","sounds/induction/right/ti_SWS.wav","","null","","","","","","","","","","","","","","","","","","","","","","","","","","","","","","","","","","","","","","","","","",""
"html-button-response","139","13663709","0.0-4.0-1.0-1.39","3","1","dgvhrzpts29wvvq","","1139.5","","What sound did you hear?","1","","","1","INDUCTION-JUDGMENT","right","1","","","","","","","","","","","","","","","","","","","","","","","","","","","","","","","","","","","","",""
"html-keyboard-response","140","13664711","0.0-4.0-1.0-2.39","3","1","dgvhrzpts29wvvq","","null","","<p style=""color:green;""><b>Correct!</b></p>","","null","","","","","","","","","","","","","","","","","","","","","","","","","","","","","","","","","","","","","","","","","",""
"audio-keyboard-response","141","13665518","0.0-4.0-1.0-0.40","3","1","dgvhrzpts29wvvq","","null","","sounds/induction/right/ko_SWS.wav","","null","","","","","","","","","","","","","","","","","","","","","","","","","","","","","","","","","","","","","","","","","",""
"html-button-response","142","13666304","0.0-4.0-1.0-1.40","3","1","dgvhrzpts29wvvq","","784.8000000002794","","What sound did you hear?","0","","","1","INDUCTION-JUDGMENT","right","0","","","","","","","","","","","","","","","","","","","","","","","","","","","","","","","","","","","","",""
"html-keyboard-response","143","13667311","0.0-4.0-1.0-2.40","3","1","dgvhrzpts29wvvq","","null","","<p style=""color:green;""><b>Correct!</b></p>","","null","","","","","","","","","","","","","","","","","","","","","","","","","","","","","","","","","","","","","","","","","",""
"audio-keyboard-response","144","13668120","0.0-4.0-1.0-0.41","3","1","dgvhrzpts29wvvq","","null","","sounds/induction/left/ni_SWS.wav","","null","","","","","","","","","","","","","","","","","","","","","","","","","","","","","","","","","","","","","","","","","",""
"html-button-response","145","13669131","0.0-4.0-1.0-1.41","3","1","dgvhrzpts29wvvq","","1009.2000000001863","","What sound did you hear?","1","","","1","INDUCTION-JUDGMENT","left","1","","","","","","","","","","","","","","","","","","","","","","","","","","","","","","","","","","","","",""
"html-keyboard-response","146","13670132","0.0-4.0-1.0-2.41","3","1","dgvhrzpts29wvvq","","null","","<p style=""color:green;""><b>Correct!</b></p>","","null","","","","","","","","","","","","","","","","","","","","","","","","","","","","","","","","","","","","","","","","","",""
"audio-keyboard-response","147","13670936","0.0-4.0-1.0-0.42","3","1","dgvhrzpts29wvvq","","null","","sounds/induction/left/fe_SWS.wav","","null","","","","","","","","","","","","","","","","","","","","","","","","","","","","","","","","","","","","","","","","","",""
"html-button-response","148","13671945","0.0-4.0-1.0-1.42","3","1","dgvhrzpts29wvvq","","1006.5999999996275","","What sound did you hear?","1","","","1","INDUCTION-JUDGMENT","left","1","","","","","","","","","","","","","","","","","","","","","","","","","","","","","","","","","","","","",""
"html-keyboard-response","149","13672946","0.0-4.0-1.0-2.42","3","1","dgvhrzpts29wvvq","","null","","<p style=""color:green;""><b>Correct!</b></p>","","null","","","","","","","","","","","","","","","","","","","","","","","","","","","","","","","","","","","","","","","","","",""
"audio-keyboard-response","150","13673752","0.0-4.0-1.0-0.43","3","1","dgvhrzpts29wvvq","","null","","sounds/induction/right/ta_SWS.wav","","null","","","","","","","","","","","","","","","","","","","","","","","","","","","","","","","","","","","","","","","","","",""
"html-button-response","151","13674608","0.0-4.0-1.0-1.43","3","1","dgvhrzpts29wvvq","","854.3000000002794","","What sound did you hear?","1","","","1","INDUCTION-JUDGMENT","right","1","","","","","","","","","","","","","","","","","","","","","","","","","","","","","","","","","","","","",""
"html-keyboard-response","152","13675611","0.0-4.0-1.0-2.43","3","1","dgvhrzpts29wvvq","","null","","<p style=""color:green;""><b>Correct!</b></p>","","null","","","","","","","","","","","","","","","","","","","","","","","","","","","","","","","","","","","","","","","","","",""
"audio-keyboard-response","153","13676419","0.0-4.0-1.0-0.44","3","1","dgvhrzpts29wvvq","","null","","sounds/induction/right/ko_SWS.wav","","null","","","","","","","","","","","","","","","","","","","","","","","","","","","","","","","","","","","","","","","","","",""
"html-button-response","154","13677226","0.0-4.0-1.0-1.44","3","1","dgvhrzpts29wvvq","","805.6999999997206","","What sound did you hear?","0","","","1","INDUCTION-JUDGMENT","right","0","","","","","","","","","","","","","","","","","","","","","","","","","","","","","","","","","","","","",""
"html-keyboard-response","155","13678232","0.0-4.0-1.0-2.44","3","1","dgvhrzpts29wvvq","","null","","<p style=""color:green;""><b>Correct!</b></p>","","null","","","","","","","","","","","","","","","","","","","","","","","","","","","","","","","","","","","","","","","","","",""
"audio-keyboard-response","156","13679038","0.0-4.0-1.0-0.45","3","1","dgvhrzpts29wvvq","","null","","sounds/induction/right/re_SWS.wav","","null","","","","","","","","","","","","","","","","","","","","","","","","","","","","","","","","","","","","","","","","","",""
"html-button-response","157","13679742","0.0-4.0-1.0-1.45","3","1","dgvhrzpts29wvvq","","702.5","","What sound did you hear?","1","","","1","INDUCTION-JUDGMENT","right","1","","","","","","","","","","","","","","","","","","","","","","","","","","","","","","","","","","","","",""
"html-keyboard-response","158","13680745","0.0-4.0-1.0-2.45","3","1","dgvhrzpts29wvvq","","null","","<p style=""color:green;""><b>Correct!</b></p>","","null","","","","","","","","","","","","","","","","","","","","","","","","","","","","","","","","","","","","","","","","","",""
"audio-keyboard-response","159","13681550","0.0-4.0-1.0-0.46","3","1","dgvhrzpts29wvvq","","null","","sounds/induction/left/me_SWS.wav","","null","","","","","","","","","","","","","","","","","","","","","","","","","","","","","","","","","","","","","","","","","",""
"html-button-response","160","13682293","0.0-4.0-1.0-1.46","3","1","dgvhrzpts29wvvq","","741.2000000001863","","What sound did you hear?","1","","","1","INDUCTION-JUDGMENT","left","1","","","","","","","","","","","","","","","","","","","","","","","","","","","","","","","","","","","","",""
"html-keyboard-response","161","13683296","0.0-4.0-1.0-2.46","3","1","dgvhrzpts29wvvq","","null","","<p style=""color:green;""><b>Correct!</b></p>","","null","","","","","","","","","","","","","","","","","","","","","","","","","","","","","","","","","","","","","","","","","",""
"audio-keyboard-response","162","13684104","0.0-4.0-1.0-0.47","3","1","dgvhrzpts29wvvq","","null","","sounds/induction/right/su_SWS.wav","","null","","","","","","","","","","","","","","","","","","","","","","","","","","","","","","","","","","","","","","","","","",""
"html-button-response","163","13684892","0.0-4.0-1.0-1.47","3","1","dgvhrzpts29wvvq","","786.1000000000931","","What sound did you hear?","1","","","1","INDUCTION-JUDGMENT","right","1","","","","","","","","","","","","","","","","","","","","","","","","","","","","","","","","","","","","",""
"html-keyboard-response","164","13685898","0.0-4.0-1.0-2.47","3","1","dgvhrzpts29wvvq","","null","","<p style=""color:green;""><b>Correct!</b></p>","","null","","","","","","","","","","","","","","","","","","","","","","","","","","","","","","","","","","","","","","","","","",""
"html-button-response","165","13688786","0.0-5.0-0.0","3","1","dgvhrzpts29wvvq","","2382.899999999907","","<p>Thank you for your answers.</p><p>You will now listen to similar sounds. The main difference is that the sounds will be longer and will make up complete sentences.</p><p>Please listen carefully to each sentence. After each sentence, you will be asked to type back what you heard to the best of your ability. After you provide your response, you will be given feedback about the correct answer.</p><p>There are 10 sentences in total.","0","","","","","","","","","","","","","","","","","","","","","","","","","","","","","","","","","","","","","","","","","","",""
"audio-keyboard-response","166","13691336","0.0-5.0-1.0-0.0","3","1","dgvhrzpts29wvvq","","null","","sounds/sentences/left/14_04_cfSWS.wav","","null","","","","","","","","","","","","","","","","","","","","","","","","","","","","","","","","","","","","","","","","","",""
"sentence-resp","167","13703636","0.0-5.0-1.0-1.0","3","1","dgvhrzpts29wvvq","","12297","","","","","","","SWS-SENT-RESPONSE","","","{""Q0"":""she sells sea shells by the sea shore\n""}","Two plus seven is less than ten.","two,plus,seven,less,ten","SHE SELLS SEA SHELLS BY THE SEA SHORE ","0","0","0","0","0","0","0","","","","","","","","","","","","","","","","","","","","","","","","","",""
"html-keyboard-response","168","13704895","0.0-5.0-1.0-2.0","3","1","dgvhrzpts29wvvq","","null","","","","null","","","","","","","","","","","","","","","","","","","","","","","","","","","","","","","","","","","","","","","","","",""
"audio-keyboard-response","169","13706947","0.0-5.0-1.0-3.0","3","1","dgvhrzpts29wvvq","","null","","sounds/sentences/left/14_04_cfSWS.wav","","null","","","","","","","","","","","","","","","","","","","","","","","","","","","","","","","","","","","","","","","","","",""
"html-keyboard-response","170","13707954","0.0-5.0-1.0-4.0","3","1","dgvhrzpts29wvvq","","null","","","","null","","","","","","","","","","","","","","","","","","","","","","","","","","","","","","","","","","","","","","","","","",""
"html-button-response","171","13710925","0.0-5.0-1.0-5.0","3","1","dgvhrzpts29wvvq","","2465.899999999907","","<p>Press the button below when you are ready to continue.</p>","0","","","","","","","","","","","","","","","","","","","","","","","","","","","","","","","","","","","","","","","","","","",""
"audio-keyboard-response","172","13713683","0.0-5.0-1.0-0.1","3","1","dgvhrzpts29wvvq","","null","","sounds/sentences/right/14_08_cfSWS.wav","","null","","","","","","","","","","","","","","","","","","","","","","","","","","","","","","","","","","","","","","","","","",""
"sentence-resp","173","13761188","0.0-5.0-1.0-1.1","3","1","dgvhrzpts29wvvq","","47503","","","","","","","SWS-SENT-RESPONSE","","","{""Q0"":""he finds toonies by himself""}","Clothes and lodging are free to new men.","clothes,lodging,free,new,men","HE FINDS TOONIES BY HIMSELF","0","0","0","0","0","0","0","","","","","","","","","","","","","","","","","","","","","","","","","",""
"html-keyboard-response","174","13762442","0.0-5.0-1.0-2.1","3","1","dgvhrzpts29wvvq","","null","","","","null","","","","","","","","","","","","","","","","","","","","","","","","","","","","","","","","","","","","","","","","","",""
"audio-keyboard-response","175","13764743","0.0-5.0-1.0-3.1","3","1","dgvhrzpts29wvvq","","null","","sounds/sentences/right/14_08_cfSWS.wav","","null","","","","","","","","","","","","","","","","","","","","","","","","","","","","","","","","","","","","","","","","","",""
"html-keyboard-response","176","13765746","0.0-5.0-1.0-4.1","3","1","dgvhrzpts29wvvq","","null","","","","null","","","","","","","","","","","","","","","","","","","","","","","","","","","","","","","","","","","","","","","","","",""
"html-button-response","177","13767392","0.0-5.0-1.0-5.1","3","1","dgvhrzpts29wvvq","","1142.3999999999069","","<p>Press the button below when you are ready to continue.</p>","0","","","","","","","","","","","","","","","","","","","","","","","","","","","","","","","","","","","","","","","","","","",""
"audio-keyboard-response","178","13770284","0.0-5.0-1.0-0.2","3","1","dgvhrzpts29wvvq","","null","","sounds/sentences/right/14_07_cfSWS.wav","","null","","","","","","","","","","","","","","","","","","","","","","","","","","","","","","","","","","","","","","","","","",""
"sentence-resp","179","13780940","0.0-5.0-1.0-1.2","3","1","dgvhrzpts29wvvq","","10654","","","","","","","SWS-SENT-RESPONSE","","","{""Q0"":""""}","Write a fond note to the friend you cherish.","write,fond,note,friend,cherish","","0","0","0","0","0","0","0","","","","","","","","","","","","","","","","","","","","","","","","","",""
"html-keyboard-response","180","13782198","0.0-5.0-1.0-2.2","3","1","dgvhrzpts29wvvq","","null","","","","null","","","","","","","","","","","","","","","","","","","","","","","","","","","","","","","","","","","","","","","","","",""
"audio-keyboard-response","181","13784588","0.0-5.0-1.0-3.2","3","1","dgvhrzpts29wvvq","","null","","sounds/sentences/right/14_07_cfSWS.wav","","null","","","","","","","","","","","","","","","","","","","","","","","","","","","","","","","","","","","","","","","","","",""
"html-keyboard-response","182","13785591","0.0-5.0-1.0-4.2","3","1","dgvhrzpts29wvvq","","null","","","","null","","","","","","","","","","","","","","","","","","","","","","","","","","","","","","","","","","","","","","","","","",""
"html-button-response","183","13787391","0.0-5.0-1.0-5.2","3","1","dgvhrzpts29wvvq","","1294.1000000000931","","<p>Press the button below when you are ready to continue.</p>","0","","","","","","","","","","","","","","","","","","","","","","","","","","","","","","","","","","","","","","","","","","",""
"audio-keyboard-response","184","13790508","0.0-5.0-1.0-0.3","3","1","dgvhrzpts29wvvq","","null","","sounds/sentences/left/14_01_cfSWS.wav","","null","","","","","","","","","","","","","","","","","","","","","","","","","","","","","","","","","","","","","","","","","",""
"sentence-resp","185","13797872","0.0-5.0-1.0-1.3","3","1","dgvhrzpts29wvvq","","7361","","","","","","","SWS-SENT-RESPONSE","","","{""Q0"":""""}","A cramp is no small danger on a swim.","cramp,no,small,danger,swim","","0","0","0","0","0","0","0","","","","","","","","","","","","","","","","","","","","","","","","","",""
"html-keyboard-response","186","13799129","0.0-5.0-1.0-2.3","3","1","dgvhrzpts29wvvq","","null","","","","null","","","","","","","","","","","","","","","","","","","","","","","","","","","","","","","","","","","","","","","","","",""
"audio-keyboard-response","187","13801745","0.0-5.0-1.0-3.3","3","1","dgvhrzpts29wvvq","","null","","sounds/sentences/left/14_01_cfSWS.wav","","null","","","","","","","","","","","","","","","","","","","","","","","","","","","","","","","","","","","","","","","","","",""
"html-keyboard-response","188","13802748","0.0-5.0-1.0-4.3","3","1","dgvhrzpts29wvvq","","null","","","","null","","","","","","","","","","","","","","","","","","","","","","","","","","","","","","","","","","","","","","","","","",""
"html-button-response","189","13804683","0.0-5.0-1.0-5.3","3","1","dgvhrzpts29wvvq","","1431.7999999998137","","<p>Press the button below when you are ready to continue.</p>","0","","","","","","","","","","","","","","","","","","","","","","","","","","","","","","","","","","","","","","","","","","",""
"audio-keyboard-response","190","13807702","0.0-5.0-1.0-0.4","3","1","dgvhrzpts29wvvq","","null","","sounds/sentences/right/14_10_cfSWS.wav","","null","","","","","","","","","","","","","","","","","","","","","","","","","","","","","","","","","","","","","","","","","",""
"sentence-resp","191","13817087","0.0-5.0-1.0-1.4","3","1","dgvhrzpts29wvvq","","9383","","","","","","","SWS-SENT-RESPONSE","","","{""Q0"":""strong woman don't know what to say""}","Port is a strong wine with a smoky taste.","port,strong,wine,smoky,taste","STRONG WOMAN DON'T KNOW WHAT TO SAY","0","1","0","0","0","1","0.2","","","","","","","","","","","","","","","","","","","","","","","","","",""
"html-keyboard-response","192","13818345","0.0-5.0-1.0-2.4","3","1","dgvhrzpts29wvvq","","null","","","","null","","","","","","","","","","","","","","","","","","","","","","","","","","","","","","","","","","","","","","","","","",""
"audio-keyboard-response","193","13820865","0.0-5.0-1.0-3.4","3","1","dgvhrzpts29wvvq","","null","","sounds/sentences/right/14_10_cfSWS.wav","","null","","","","","","","","","","","","","","","","","","","","","","","","","","","","","","","","","","","","","","","","","",""
"html-keyboard-response","194","13821873","0.0-5.0-1.0-4.4","3","1","dgvhrzpts29wvvq","","null","","","","null","","","","","","","","","","","","","","","","","","","","","","","","","","","","","","","","","","","","","","","","","",""
"html-button-response","195","13824574","0.0-5.0-1.0-5.4","3","1","dgvhrzpts29wvvq","","2195.5999999996275","","<p>Press the button below when you are ready to continue.</p>","0","","","","","","","","","","","","","","","","","","","","","","","","","","","","","","","","","","","","","","","","","","",""
"audio-keyboard-response","196","13827158","0.0-5.0-1.0-0.5","3","1","dgvhrzpts29wvvq","","null","","sounds/sentences/left/14_03_cfSWS.wav","","null","","","","","","","","","","","","","","","","","","","","","","","","","","","","","","","","","","","","","","","","","",""
"sentence-resp","197","13842988","0.0-5.0-1.0-1.5","3","1","dgvhrzpts29wvvq","","15828","","","","","","","SWS-SENT-RESPONSE","","","{""Q0"":""he likes to drink good tea""}","Pluck the bright rose without leaves.","pluck,bright,rose,without,leaves","HE LIKES TO DRINK GOOD TEA","0","0","0","0","0","0","0","","","","","","","","","","","","","","","","","","","","","","","","","",""
"html-keyboard-response","198","13844247","0.0-5.0-1.0-2.5","3","1","dgvhrzpts29wvvq","","null","","","","null","","","","","","","","","","","","","","","","","","","","","","","","","","","","","","","","","","","","","","","","","",""
"audio-keyboard-response","199","13846332","0.0-5.0-1.0-3.5","3","1","dgvhrzpts29wvvq","","null","","sounds/sentences/left/14_03_cfSWS.wav","","null","","","","","","","","","","","","","","","","","","","","","","","","","","","","","","","","","","","","","","","","","",""
"html-keyboard-response","200","13847334","0.0-5.0-1.0-4.5","3","1","dgvhrzpts29wvvq","","null","","","","null","","","","","","","","","","","","","","","","","","","","","","","","","","","","","","","","","","","","","","","","","",""
"html-button-response","201","13848589","0.0-5.0-1.0-5.5","3","1","dgvhrzpts29wvvq","","753.2000000001863","","<p>Press the button below when you are ready to continue.</p>","0","","","","","","","","","","","","","","","","","","","","","","","","","","","","","","","","","","","","","","","","","","",""
"audio-keyboard-response","202","13851580","0.0-5.0-1.0-0.6","3","1","dgvhrzpts29wvvq","","null","","sounds/sentences/left/14_05_cfSWS.wav","","null","","","","","","","","","","","","","","","","","","","","","","","","","","","","","","","","","","","","","","","","","",""
"sentence-resp","203","13859801","0.0-5.0-1.0-1.6","3","1","dgvhrzpts29wvvq","","8218","","","","","","","SWS-SENT-RESPONSE","","","{""Q0"":""the woman was a sweet girl""}","The glow deepened in the eyes of the sweet girl.","glow,deepened,eyes,sweet,girl","THE WOMAN WAS A SWEET GIRL","0","0","0","1","1","2","0.4","","","","","","","","","","","","","","","","","","","","","","","","","",""
"html-keyboard-response","204","13861061","0.0-5.0-1.0-2.6","3","1","dgvhrzpts29wvvq","","null","","","","null","","","","","","","","","","","","","","","","","","","","","","","","","","","","","","","","","","","","","","","","","",""
"audio-keyboard-response","205","13863553","0.0-5.0-1.0-3.6","3","1","dgvhrzpts29wvvq","","null","","sounds/sentences/left/14_05_cfSWS.wav","","null","","","","","","","","","","","","","","","","","","","","","","","","","","","","","","","","","","","","","","","","","",""
"html-keyboard-response","206","13864558","0.0-5.0-1.0-4.6","3","1","dgvhrzpts29wvvq","","null","","","","null","","","","","","","","","","","","","","","","","","","","","","","","","","","","","","","","","","","","","","","","","",""
"html-button-response","207","13865866","0.0-5.0-1.0-5.6","3","1","dgvhrzpts29wvvq","","802.8000000002794","","<p>Press the button below when you are ready to continue.</p>","0","","","","","","","","","","","","","","","","","","","","","","","","","","","","","","","","","","","","","","","","","","",""
"audio-keyboard-response","208","13868598","0.0-5.0-1.0-0.7","3","1","dgvhrzpts29wvvq","","null","","sounds/sentences/right/14_09_cfSWS.wav","","null","","","","","","","","","","","","","","","","","","","","","","","","","","","","","","","","","","","","","","","","","",""
"sentence-resp","209","13880101","0.0-5.0-1.0-1.7","3","1","dgvhrzpts29wvvq","","11501","","","","","","","SWS-SENT-RESPONSE","","","{""Q0"":""during fall we can look at trees""}","We frown when events take a bad turn.","frown,events,take,bad,turn","DURING FALL WE CAN LOOK AT TREES","0","0","0","0","0","0","0","","","","","","","","","","","","","","","","","","","","","","","","","",""
"html-keyboard-response","210","13881362","0.0-5.0-1.0-2.7","3","1","dgvhrzpts29wvvq","","null","","","","null","","","","","","","","","","","","","","","","","","","","","","","","","","","","","","","","","","","","","","","","","",""
"audio-keyboard-response","211","13883591","0.0-5.0-1.0-3.7","3","1","dgvhrzpts29wvvq","","null","","sounds/sentences/right/14_09_cfSWS.wav","","null","","","","","","","","","","","","","","","","","","","","","","","","","","","","","","","","","","","","","","","","","",""
"html-keyboard-response","212","13884594","0.0-5.0-1.0-4.7","3","1","dgvhrzpts29wvvq","","null","","","","null","","","","","","","","","","","","","","","","","","","","","","","","","","","","","","","","","","","","","","","","","",""
"html-button-response","213","13885935","0.0-5.0-1.0-5.7","3","1","dgvhrzpts29wvvq","","836.1000000000931","","<p>Press the button below when you are ready to continue.</p>","0","","","","","","","","","","","","","","","","","","","","","","","","","","","","","","","","","","","","","","","","","","",""
"audio-keyboard-response","214","13888759","0.0-5.0-1.0-0.8","3","1","dgvhrzpts29wvvq","","null","","sounds/sentences/left/14_02_cfSWS.wav","","null","","","","","","","","","","","","","","","","","","","","","","","","","","","","","","","","","","","","","","","","","",""
"sentence-resp","215","13896455","0.0-5.0-1.0-1.8","3","1","dgvhrzpts29wvvq","","7694","","","","","","","SWS-SENT-RESPONSE","","","{""Q0"":""he said the same thing thirty times""}","He said the same phrase thirty times.","said,same,phrase,thirty,times","HE SAID THE SAME THING THIRTY TIMES","1","1","0","1","1","4","0.8","","","","","","","","","","","","","","","","","","","","","","","","","",""
"html-keyboard-response","216","13897712","0.0-5.0-1.0-2.8","3","1","dgvhrzpts29wvvq","","null","","","","null","","","","","","","","","","","","","","","","","","","","","","","","","","","","","","","","","","","","","","","","","",""
"audio-keyboard-response","217","13900028","0.0-5.0-1.0-3.8","3","1","dgvhrzpts29wvvq","","null","","sounds/sentences/left/14_02_cfSWS.wav","","null","","","","","","","","","","","","","","","","","","","","","","","","","","","","","","","","","","","","","","","","","",""
"html-keyboard-response","218","13901032","0.0-5.0-1.0-4.8","3","1","dgvhrzpts29wvvq","","null","","","","null","","","","","","","","","","","","","","","","","","","","","","","","","","","","","","","","","","","","","","","","","",""
"html-button-response","219","13902406","0.0-5.0-1.0-5.8","3","1","dgvhrzpts29wvvq","","867.6000000000931","","<p>Press the button below when you are ready to continue.</p>","0","","","","","","","","","","","","","","","","","","","","","","","","","","","","","","","","","","","","","","","","","","",""
"audio-keyboard-response","220","13905153","0.0-5.0-1.0-0.9","3","1","dgvhrzpts29wvvq","","null","","sounds/sentences/right/14_06_cfSWS.wav","","null","","","","","","","","","","","","","","","","","","","","","","","","","","","","","","","","","","","","","","","","","",""
"sentence-resp","221","13915786","0.0-5.0-1.0-1.9","3","1","dgvhrzpts29wvvq","","10630","","","","","","","SWS-SENT-RESPONSE","","","{""Q0"":""when you have problems you can come to me""}","Bring your problems to the wise chief.","bring,your,problems,wise,chief","WHEN YOU HAVE PROBLEMS YOU CAN COME TO ME","0","0","1","0","0","1","0.2","","","","","","","","","","","","","","","","","","","","","","","","","",""
"html-keyboard-response","222","13917048","0.0-5.0-1.0-2.9","3","1","dgvhrzpts29wvvq","","null","","","","null","","","","","","","","","","","","","","","","","","","","","","","","","","","","","","","","","","","","","","","","","",""
"audio-keyboard-response","223","13919292","0.0-5.0-1.0-3.9","3","1","dgvhrzpts29wvvq","","null","","sounds/sentences/right/14_06_cfSWS.wav","","null","","","","","","","","","","","","","","","","","","","","","","","","","","","","","","","","","","","","","","","","","",""
"html-keyboard-response","224","13920297","0.0-5.0-1.0-4.9","3","1","dgvhrzpts29wvvq","","null","","","","null","","","","","","","","","","","","","","","","","","","","","","","","","","","","","","","","","","","","","","","","","",""
"html-button-response","225","13921727","0.0-5.0-1.0-5.9","3","1","dgvhrzpts29wvvq","","923.1000000000931","","<p>Press the button below when you are ready to continue.</p>","0","","","","","","","","","","","","","","","","","","","","","","","","","","","","","","","","","","","","","","","","","","",""
"html-keyboard-response","226","13941498","0.0-6.0-0.0","3","1","dgvhrzpts29wvvq","","19267.5","","<p>In this part of the study, you will hear sounds similar to those you just heard.</p><p>Please focus on these sounds, as you may be asked questions about them later.</p><p>Occasionally, the sounds will pause for up to two seconds. When this happens, please press SPACEBAR as quickly as you can.</br>This helps ensure that you are paying attention to the sounds.</p><p>This part of the study will take about 12 minutes to complete, and you will be given the opportunity to take a couple of short breaks every few minutes.</p><p><strong>Press SPACEBAR to begin</strong></p>","","32","","","","","","","","","","","","","","","","","","","","","","","","","","","","","","","","","","","","","","","","","",""
"html-keyboard-response","227","13942502","0.0-6.0-1.0-0.0","3","1","dgvhrzpts29wvvq","","null","","<p style=""font-size: 40px;"">+</p>","","null","","","","","","","","","","","","","","","","","","","","","","","","","","","","","","","","","","","","","","","","","",""
"html-keyboard-response","228","14127511","0.0-6.0-1.0-1.0","3","1","dgvhrzpts29wvvq","","null","","","","null","","","SL-TRAIN","","","","","","","","","","","","","","0","881.7999999998137","698.5","sounds/C/TRAIN/SEQ__12.mp3","3","","","","","","","","","","","","","","","","","","","","",""
"html-button-response","229","14131788","0.0-6.0-1.0-2.0","3","1","dgvhrzpts29wvvq","","4273.699999999721","","<p>You may take a short break if you wish.</p>","0","","","","","","","","","","","","","","","","","","","","","","","","","","","","","","","","","","","","","","","","","","",""
"html-keyboard-response","230","14132791","0.0-6.0-1.0-3.0","3","1","dgvhrzpts29wvvq","","null","","<p style=""font-size: 40px;"">+</p>","","null","","","","","","","","","","","","","","","","","","","","","","","","","","","","","","","","","","","","","","","","","",""
"html-keyboard-response","231","14317763","0.0-6.0-1.0-4.0","3","1","dgvhrzpts29wvvq","","null","","","","null","","","SL-TRAIN","","","","","","","","","","","","","","0","1110.3999999999069","1387.8999999999069","sounds/C/TRAIN/SEQ__06.mp3","5","","","","","","","","","","","","","","","","","","","","",""
"html-button-response","232","14320075","0.0-6.0-1.0-5.0","3","1","dgvhrzpts29wvvq","","2310.2000000001863","","<p>You may take a short break if you wish.</p>","0","","","","","","","","","","","","","","","","","","","","","","","","","","","","","","","","","","","","","","","","","","",""
"html-keyboard-response","233","14321080","0.0-6.0-1.0-6.0","3","1","dgvhrzpts29wvvq","","null","","<p style=""font-size: 40px;"">+</p>","","null","","","","","","","","","","","","","","","","","","","","","","","","","","","","","","","","","","","","","","","","","",""
"html-keyboard-response","234","14506084","0.0-6.0-1.0-7.0","3","1","dgvhrzpts29wvvq","","null","","","","null","","","SL-TRAIN","","","","","","","","","","","","","","1","1378.3000000002794","null","sounds/C/TRAIN/SEQ__04.mp3","3","","","","","","","","","","","","","","","","","","","","",""
"html-button-response","235","14509504","0.0-6.0-1.0-8.0","3","1","dgvhrzpts29wvvq","","3417.100000000093","","<p>You may take a short break if you wish.</p>","0","","","","","","","","","","","","","","","","","","","","","","","","","","","","","","","","","","","","","","","","","","",""
"html-keyboard-response","236","14510506","0.0-6.0-1.0-9.0","3","1","dgvhrzpts29wvvq","","null","","<p style=""font-size: 40px;"">+</p>","","null","","","","","","","","","","","","","","","","","","","","","","","","","","","","","","","","","","","","","","","","","",""
"html-keyboard-response","237","14695512","0.0-6.0-1.0-10.0","3","1","dgvhrzpts29wvvq","","null","","","","null","","","SL-TRAIN","","","","","","","","","","","","","","0","944.3999999999069","1085.5","sounds/C/TRAIN/SEQ__10.mp3","11","","","","","","","","","","","","","","","","","","","","",""
"html-button-response","238","14697471","0.0-6.0-1.0-11.0","3","1","dgvhrzpts29wvvq","","1957.1000000000931","","<p>You may take a short break if you wish.</p>","0","","","","","","","","","","","","","","","","","","","","","","","","","","","","","","","","","","","","","","","","","","",""
"html-button-response","239","14708145","0.0-7.0-0.0","3","1","dgvhrzpts29wvvq","","10673.100000000093","","<p>Welcome to the second part of the study. This is a <u>familiarity task</u>.</p><p>You will now hear short sounds and will be asked to rate how familiar they sound to you <b>based on what you heard in the previous part of the study</b>.</p><p>You will rate 12 sounds in total.</p>","0","","","","","","","","","","","","","","","","","","","","","","","","","","","","","","","","","","","","","","","","","","",""
"html-keyboard-response","240","14709149","0.0-7.0-1.0-0.0","3","1","dgvhrzpts29wvvq","","null","","","","null","","","","","","","","","","","","","","","","","","","","","","","","","","","","","","","","","","","","","","","","","",""
"audio-keyboard-response","241","14710135","0.0-7.0-1.0-1.0","3","1","dgvhrzpts29wvvq","","null","","sounds/C/FAM/W004.mp3","","null","","","","","","","","","","","","","","","","","","","","","","","","","","","","","","","","","","","","","","","","","",""
"html-keyboard-response","242","14715753","0.0-7.0-1.0-2.0","3","1","dgvhrzpts29wvvq","","5114.899999999907","","<p>How familiar did this sound to you?</p><p>1&nbsp;&nbsp;&nbsp;&nbsp;&nbsp;&nbsp;&nbsp;&nbsp;&nbsp;&nbsp;&nbsp;&nbsp;&nbsp;&nbsp;&nbsp;&nbsp;&nbsp;&nbsp;&nbsp;2&nbsp;&nbsp;&nbsp;&nbsp;&nbsp;&nbsp;&nbsp;&nbsp;&nbsp;&nbsp;&nbsp;&nbsp;&nbsp;&nbsp;&nbsp;&nbsp;&nbsp;&nbsp;&nbsp;3&nbsp;&nbsp;&nbsp;&nbsp;&nbsp;&nbsp;&nbsp;&nbsp;&nbsp;&nbsp;&nbsp;&nbsp;&nbsp;&nbsp;&nbsp;&nbsp;&nbsp;&nbsp;&nbsp;4</p><p style=""font-size:14px"">Not at all familiar&nbsp;&nbsp;&nbsp;&nbsp;A little familiar&nbsp;&nbsp;&nbsp;Moderately familiar&nbsp;&nbsp;&nbsp;Extremely familiar</p><p>(press the corresponding number on your keyboard)</p>","","52","","","FAM-RESPONSE","","","","","","","","","","","","","","","","","","","sounds/C/FAM/W004.mp3","word","","","","","","","","","","","","","","","","","","",""
"html-keyboard-response","243","14717760","0.0-7.0-1.0-0.1","3","1","dgvhrzpts29wvvq","","null","","","","null","","","","","","","","","","","","","","","","","","","","","","","","","","","","","","","","","","","","","","","","","",""
"audio-keyboard-response","244","14718706","0.0-7.0-1.0-1.1","3","1","dgvhrzpts29wvvq","","null","","sounds/C/FAM/W002.mp3","","null","","","","","","","","","","","","","","","","","","","","","","","","","","","","","","","","","","","","","","","","","",""
"html-keyboard-response","245","14720476","0.0-7.0-1.0-2.1","3","1","dgvhrzpts29wvvq","","1263.2999999998137","","<p>How familiar did this sound to you?</p><p>1&nbsp;&nbsp;&nbsp;&nbsp;&nbsp;&nbsp;&nbsp;&nbsp;&nbsp;&nbsp;&nbsp;&nbsp;&nbsp;&nbsp;&nbsp;&nbsp;&nbsp;&nbsp;&nbsp;2&nbsp;&nbsp;&nbsp;&nbsp;&nbsp;&nbsp;&nbsp;&nbsp;&nbsp;&nbsp;&nbsp;&nbsp;&nbsp;&nbsp;&nbsp;&nbsp;&nbsp;&nbsp;&nbsp;3&nbsp;&nbsp;&nbsp;&nbsp;&nbsp;&nbsp;&nbsp;&nbsp;&nbsp;&nbsp;&nbsp;&nbsp;&nbsp;&nbsp;&nbsp;&nbsp;&nbsp;&nbsp;&nbsp;4</p><p style=""font-size:14px"">Not at all familiar&nbsp;&nbsp;&nbsp;&nbsp;A little familiar&nbsp;&nbsp;&nbsp;Moderately familiar&nbsp;&nbsp;&nbsp;Extremely familiar</p><p>(press the corresponding number on your keyboard)</p>","","52","","","FAM-RESPONSE","","","","","","","","","","","","","","","","","","","sounds/C/FAM/W002.mp3","word","","","","","","","","","","","","","","","","","","",""
"html-keyboard-response","246","14722484","0.0-7.0-1.0-0.2","3","1","dgvhrzpts29wvvq","","null","","","","null","","","","","","","","","","","","","","","","","","","","","","","","","","","","","","","","","","","","","","","","","",""
"audio-keyboard-response","247","14723426","0.0-7.0-1.0-1.2","3","1","dgvhrzpts29wvvq","","null","","sounds/C/FAM/N004.mp3","","null","","","","","","","","","","","","","","","","","","","","","","","","","","","","","","","","","","","","","","","","","",""
"html-keyboard-response","248","14725142","0.0-7.0-1.0-2.2","3","1","dgvhrzpts29wvvq","","1209.5999999996275","","<p>How familiar did this sound to you?</p><p>1&nbsp;&nbsp;&nbsp;&nbsp;&nbsp;&nbsp;&nbsp;&nbsp;&nbsp;&nbsp;&nbsp;&nbsp;&nbsp;&nbsp;&nbsp;&nbsp;&nbsp;&nbsp;&nbsp;2&nbsp;&nbsp;&nbsp;&nbsp;&nbsp;&nbsp;&nbsp;&nbsp;&nbsp;&nbsp;&nbsp;&nbsp;&nbsp;&nbsp;&nbsp;&nbsp;&nbsp;&nbsp;&nbsp;3&nbsp;&nbsp;&nbsp;&nbsp;&nbsp;&nbsp;&nbsp;&nbsp;&nbsp;&nbsp;&nbsp;&nbsp;&nbsp;&nbsp;&nbsp;&nbsp;&nbsp;&nbsp;&nbsp;4</p><p style=""font-size:14px"">Not at all familiar&nbsp;&nbsp;&nbsp;&nbsp;A little familiar&nbsp;&nbsp;&nbsp;Moderately familiar&nbsp;&nbsp;&nbsp;Extremely familiar</p><p>(press the corresponding number on your keyboard)</p>","","51","","","FAM-RESPONSE","","","","","","","","","","","","","","","","","","","sounds/C/FAM/N004.mp3","nonword","","","","","","","","","","","","","","","","","","",""
"html-keyboard-response","249","14727151","0.0-7.0-1.0-0.3","3","1","dgvhrzpts29wvvq","","null","","","","null","","","","","","","","","","","","","","","","","","","","","","","","","","","","","","","","","","","","","","","","","",""
"audio-keyboard-response","250","14728092","0.0-7.0-1.0-1.3","3","1","dgvhrzpts29wvvq","","null","","sounds/C/FAM/W001.mp3","","null","","","","","","","","","","","","","","","","","","","","","","","","","","","","","","","","","","","","","","","","","",""
"html-keyboard-response","251","14732903","0.0-7.0-1.0-2.3","3","1","dgvhrzpts29wvvq","","4307.5","","<p>How familiar did this sound to you?</p><p>1&nbsp;&nbsp;&nbsp;&nbsp;&nbsp;&nbsp;&nbsp;&nbsp;&nbsp;&nbsp;&nbsp;&nbsp;&nbsp;&nbsp;&nbsp;&nbsp;&nbsp;&nbsp;&nbsp;2&nbsp;&nbsp;&nbsp;&nbsp;&nbsp;&nbsp;&nbsp;&nbsp;&nbsp;&nbsp;&nbsp;&nbsp;&nbsp;&nbsp;&nbsp;&nbsp;&nbsp;&nbsp;&nbsp;3&nbsp;&nbsp;&nbsp;&nbsp;&nbsp;&nbsp;&nbsp;&nbsp;&nbsp;&nbsp;&nbsp;&nbsp;&nbsp;&nbsp;&nbsp;&nbsp;&nbsp;&nbsp;&nbsp;4</p><p style=""font-size:14px"">Not at all familiar&nbsp;&nbsp;&nbsp;&nbsp;A little familiar&nbsp;&nbsp;&nbsp;Moderately familiar&nbsp;&nbsp;&nbsp;Extremely familiar</p><p>(press the corresponding number on your keyboard)</p>","","50","","","FAM-RESPONSE","","","","","","","","","","","","","","","","","","","sounds/C/FAM/W001.mp3","word","","","","","","","","","","","","","","","","","","",""
"html-keyboard-response","252","14734912","0.0-7.0-1.0-0.4","3","1","dgvhrzpts29wvvq","","null","","","","null","","","","","","","","","","","","","","","","","","","","","","","","","","","","","","","","","","","","","","","","","",""
"audio-keyboard-response","253","14735857","0.0-7.0-1.0-1.4","3","1","dgvhrzpts29wvvq","","null","","sounds/C/FAM/W003.mp3","","null","","","","","","","","","","","","","","","","","","","","","","","","","","","","","","","","","","","","","","","","","",""
"html-keyboard-response","254","14738798","0.0-7.0-1.0-2.4","3","1","dgvhrzpts29wvvq","","2434.899999999907","","<p>How familiar did this sound to you?</p><p>1&nbsp;&nbsp;&nbsp;&nbsp;&nbsp;&nbsp;&nbsp;&nbsp;&nbsp;&nbsp;&nbsp;&nbsp;&nbsp;&nbsp;&nbsp;&nbsp;&nbsp;&nbsp;&nbsp;2&nbsp;&nbsp;&nbsp;&nbsp;&nbsp;&nbsp;&nbsp;&nbsp;&nbsp;&nbsp;&nbsp;&nbsp;&nbsp;&nbsp;&nbsp;&nbsp;&nbsp;&nbsp;&nbsp;3&nbsp;&nbsp;&nbsp;&nbsp;&nbsp;&nbsp;&nbsp;&nbsp;&nbsp;&nbsp;&nbsp;&nbsp;&nbsp;&nbsp;&nbsp;&nbsp;&nbsp;&nbsp;&nbsp;4</p><p style=""font-size:14px"">Not at all familiar&nbsp;&nbsp;&nbsp;&nbsp;A little familiar&nbsp;&nbsp;&nbsp;Moderately familiar&nbsp;&nbsp;&nbsp;Extremely familiar</p><p>(press the corresponding number on your keyboard)</p>","","50","","","FAM-RESPONSE","","","","","","","","","","","","","","","","","","","sounds/C/FAM/W003.mp3","word","","","","","","","","","","","","","","","","","","",""
"html-keyboard-response","255","14740806","0.0-7.0-1.0-0.5","3","1","dgvhrzpts29wvvq","","null","","","","null","","","","","","","","","","","","","","","","","","","","","","","","","","","","","","","","","","","","","","","","","",""
"audio-keyboard-response","256","14741751","0.0-7.0-1.0-1.5","3","1","dgvhrzpts29wvvq","","null","","sounds/C/FAM/P003.mp3","","null","","","","","","","","","","","","","","","","","","","","","","","","","","","","","","","","","","","","","","","","","",""
"html-keyboard-response","257","14742674","0.0-7.0-1.0-2.5","3","1","dgvhrzpts29wvvq","","418.89999999990687","","<p>How familiar did this sound to you?</p><p>1&nbsp;&nbsp;&nbsp;&nbsp;&nbsp;&nbsp;&nbsp;&nbsp;&nbsp;&nbsp;&nbsp;&nbsp;&nbsp;&nbsp;&nbsp;&nbsp;&nbsp;&nbsp;&nbsp;2&nbsp;&nbsp;&nbsp;&nbsp;&nbsp;&nbsp;&nbsp;&nbsp;&nbsp;&nbsp;&nbsp;&nbsp;&nbsp;&nbsp;&nbsp;&nbsp;&nbsp;&nbsp;&nbsp;3&nbsp;&nbsp;&nbsp;&nbsp;&nbsp;&nbsp;&nbsp;&nbsp;&nbsp;&nbsp;&nbsp;&nbsp;&nbsp;&nbsp;&nbsp;&nbsp;&nbsp;&nbsp;&nbsp;4</p><p style=""font-size:14px"">Not at all familiar&nbsp;&nbsp;&nbsp;&nbsp;A little familiar&nbsp;&nbsp;&nbsp;Moderately familiar&nbsp;&nbsp;&nbsp;Extremely familiar</p><p>(press the corresponding number on your keyboard)</p>","","50","","","FAM-RESPONSE","","","","","","","","","","","","","","","","","","","sounds/C/FAM/P003.mp3","partword","","","","","","","","","","","","","","","","","","",""
"html-keyboard-response","258","14744677","0.0-7.0-1.0-0.6","3","1","dgvhrzpts29wvvq","","null","","","","null","","","","","","","","","","","","","","","","","","","","","","","","","","","","","","","","","","","","","","","","","",""
"audio-keyboard-response","259","14745618","0.0-7.0-1.0-1.6","3","1","dgvhrzpts29wvvq","","null","","sounds/C/FAM/P001.mp3","","null","","","","","","","","","","","","","","","","","","","","","","","","","","","","","","","","","","","","","","","","","",""
"html-keyboard-response","260","14746865","0.0-7.0-1.0-2.6","3","1","dgvhrzpts29wvvq","","740.7000000001863","","<p>How familiar did this sound to you?</p><p>1&nbsp;&nbsp;&nbsp;&nbsp;&nbsp;&nbsp;&nbsp;&nbsp;&nbsp;&nbsp;&nbsp;&nbsp;&nbsp;&nbsp;&nbsp;&nbsp;&nbsp;&nbsp;&nbsp;2&nbsp;&nbsp;&nbsp;&nbsp;&nbsp;&nbsp;&nbsp;&nbsp;&nbsp;&nbsp;&nbsp;&nbsp;&nbsp;&nbsp;&nbsp;&nbsp;&nbsp;&nbsp;&nbsp;3&nbsp;&nbsp;&nbsp;&nbsp;&nbsp;&nbsp;&nbsp;&nbsp;&nbsp;&nbsp;&nbsp;&nbsp;&nbsp;&nbsp;&nbsp;&nbsp;&nbsp;&nbsp;&nbsp;4</p><p style=""font-size:14px"">Not at all familiar&nbsp;&nbsp;&nbsp;&nbsp;A little familiar&nbsp;&nbsp;&nbsp;Moderately familiar&nbsp;&nbsp;&nbsp;Extremely familiar</p><p>(press the corresponding number on your keyboard)</p>","","52","","","FAM-RESPONSE","","","","","","","","","","","","","","","","","","","sounds/C/FAM/P001.mp3","partword","","","","","","","","","","","","","","","","","","",""
"html-keyboard-response","261","14748873","0.0-7.0-1.0-0.7","3","1","dgvhrzpts29wvvq","","null","","","","null","","","","","","","","","","","","","","","","","","","","","","","","","","","","","","","","","","","","","","","","","",""
"audio-keyboard-response","262","14749815","0.0-7.0-1.0-1.7","3","1","dgvhrzpts29wvvq","","null","","sounds/C/FAM/N003.mp3","","null","","","","","","","","","","","","","","","","","","","","","","","","","","","","","","","","","","","","","","","","","",""
"html-keyboard-response","263","14750747","0.0-7.0-1.0-2.7","3","1","dgvhrzpts29wvvq","","425","","<p>How familiar did this sound to you?</p><p>1&nbsp;&nbsp;&nbsp;&nbsp;&nbsp;&nbsp;&nbsp;&nbsp;&nbsp;&nbsp;&nbsp;&nbsp;&nbsp;&nbsp;&nbsp;&nbsp;&nbsp;&nbsp;&nbsp;2&nbsp;&nbsp;&nbsp;&nbsp;&nbsp;&nbsp;&nbsp;&nbsp;&nbsp;&nbsp;&nbsp;&nbsp;&nbsp;&nbsp;&nbsp;&nbsp;&nbsp;&nbsp;&nbsp;3&nbsp;&nbsp;&nbsp;&nbsp;&nbsp;&nbsp;&nbsp;&nbsp;&nbsp;&nbsp;&nbsp;&nbsp;&nbsp;&nbsp;&nbsp;&nbsp;&nbsp;&nbsp;&nbsp;4</p><p style=""font-size:14px"">Not at all familiar&nbsp;&nbsp;&nbsp;&nbsp;A little familiar&nbsp;&nbsp;&nbsp;Moderately familiar&nbsp;&nbsp;&nbsp;Extremely familiar</p><p>(press the corresponding number on your keyboard)</p>","","52","","","FAM-RESPONSE","","","","","","","","","","","","","","","","","","","sounds/C/FAM/N003.mp3","nonword","","","","","","","","","","","","","","","","","","",""
"html-keyboard-response","264","14752757","0.0-7.0-1.0-0.8","3","1","dgvhrzpts29wvvq","","null","","","","null","","","","","","","","","","","","","","","","","","","","","","","","","","","","","","","","","","","","","","","","","",""
"audio-keyboard-response","265","14753698","0.0-7.0-1.0-1.8","3","1","dgvhrzpts29wvvq","","null","","sounds/C/FAM/P004.mp3","","null","","","","","","","","","","","","","","","","","","","","","","","","","","","","","","","","","","","","","","","","","",""
"html-keyboard-response","266","14754575","0.0-7.0-1.0-2.8","3","1","dgvhrzpts29wvvq","","373.79999999981374","","<p>How familiar did this sound to you?</p><p>1&nbsp;&nbsp;&nbsp;&nbsp;&nbsp;&nbsp;&nbsp;&nbsp;&nbsp;&nbsp;&nbsp;&nbsp;&nbsp;&nbsp;&nbsp;&nbsp;&nbsp;&nbsp;&nbsp;2&nbsp;&nbsp;&nbsp;&nbsp;&nbsp;&nbsp;&nbsp;&nbsp;&nbsp;&nbsp;&nbsp;&nbsp;&nbsp;&nbsp;&nbsp;&nbsp;&nbsp;&nbsp;&nbsp;3&nbsp;&nbsp;&nbsp;&nbsp;&nbsp;&nbsp;&nbsp;&nbsp;&nbsp;&nbsp;&nbsp;&nbsp;&nbsp;&nbsp;&nbsp;&nbsp;&nbsp;&nbsp;&nbsp;4</p><p style=""font-size:14px"">Not at all familiar&nbsp;&nbsp;&nbsp;&nbsp;A little familiar&nbsp;&nbsp;&nbsp;Moderately familiar&nbsp;&nbsp;&nbsp;Extremely familiar</p><p>(press the corresponding number on your keyboard)</p>","","52","","","FAM-RESPONSE","","","","","","","","","","","","","","","","","","","sounds/C/FAM/P004.mp3","partword","","","","","","","","","","","","","","","","","","",""
"html-keyboard-response","267","14756587","0.0-7.0-1.0-0.9","3","1","dgvhrzpts29wvvq","","null","","","","null","","","","","","","","","","","","","","","","","","","","","","","","","","","","","","","","","","","","","","","","","",""
"audio-keyboard-response","268","14757533","0.0-7.0-1.0-1.9","3","1","dgvhrzpts29wvvq","","null","","sounds/C/FAM/N002.mp3","","null","","","","","","","","","","","","","","","","","","","","","","","","","","","","","","","","","","","","","","","","","",""
"html-keyboard-response","269","14759261","0.0-7.0-1.0-2.9","3","1","dgvhrzpts29wvvq","","1221.2000000001863","","<p>How familiar did this sound to you?</p><p>1&nbsp;&nbsp;&nbsp;&nbsp;&nbsp;&nbsp;&nbsp;&nbsp;&nbsp;&nbsp;&nbsp;&nbsp;&nbsp;&nbsp;&nbsp;&nbsp;&nbsp;&nbsp;&nbsp;2&nbsp;&nbsp;&nbsp;&nbsp;&nbsp;&nbsp;&nbsp;&nbsp;&nbsp;&nbsp;&nbsp;&nbsp;&nbsp;&nbsp;&nbsp;&nbsp;&nbsp;&nbsp;&nbsp;3&nbsp;&nbsp;&nbsp;&nbsp;&nbsp;&nbsp;&nbsp;&nbsp;&nbsp;&nbsp;&nbsp;&nbsp;&nbsp;&nbsp;&nbsp;&nbsp;&nbsp;&nbsp;&nbsp;4</p><p style=""font-size:14px"">Not at all familiar&nbsp;&nbsp;&nbsp;&nbsp;A little familiar&nbsp;&nbsp;&nbsp;Moderately familiar&nbsp;&nbsp;&nbsp;Extremely familiar</p><p>(press the corresponding number on your keyboard)</p>","","51","","","FAM-RESPONSE","","","","","","","","","","","","","","","","","","","sounds/C/FAM/N002.mp3","nonword","","","","","","","","","","","","","","","","","","",""
"html-keyboard-response","270","14761271","0.0-7.0-1.0-0.10","3","1","dgvhrzpts29wvvq","","null","","","","null","","","","","","","","","","","","","","","","","","","","","","","","","","","","","","","","","","","","","","","","","",""
"audio-keyboard-response","271","14762215","0.0-7.0-1.0-1.10","3","1","dgvhrzpts29wvvq","","null","","sounds/C/FAM/P002.mp3","","null","","","","","","","","","","","","","","","","","","","","","","","","","","","","","","","","","","","","","","","","","",""
"html-keyboard-response","272","14763075","0.0-7.0-1.0-2.10","3","1","dgvhrzpts29wvvq","","357.6999999997206","","<p>How familiar did this sound to you?</p><p>1&nbsp;&nbsp;&nbsp;&nbsp;&nbsp;&nbsp;&nbsp;&nbsp;&nbsp;&nbsp;&nbsp;&nbsp;&nbsp;&nbsp;&nbsp;&nbsp;&nbsp;&nbsp;&nbsp;2&nbsp;&nbsp;&nbsp;&nbsp;&nbsp;&nbsp;&nbsp;&nbsp;&nbsp;&nbsp;&nbsp;&nbsp;&nbsp;&nbsp;&nbsp;&nbsp;&nbsp;&nbsp;&nbsp;3&nbsp;&nbsp;&nbsp;&nbsp;&nbsp;&nbsp;&nbsp;&nbsp;&nbsp;&nbsp;&nbsp;&nbsp;&nbsp;&nbsp;&nbsp;&nbsp;&nbsp;&nbsp;&nbsp;4</p><p style=""font-size:14px"">Not at all familiar&nbsp;&nbsp;&nbsp;&nbsp;A little familiar&nbsp;&nbsp;&nbsp;Moderately familiar&nbsp;&nbsp;&nbsp;Extremely familiar</p><p>(press the corresponding number on your keyboard)</p>","","52","","","FAM-RESPONSE","","","","","","","","","","","","","","","","","","","sounds/C/FAM/P002.mp3","partword","","","","","","","","","","","","","","","","","","",""
"html-keyboard-response","273","14765083","0.0-7.0-1.0-0.11","3","1","dgvhrzpts29wvvq","","null","","","","null","","","","","","","","","","","","","","","","","","","","","","","","","","","","","","","","","","","","","","","","","",""
"audio-keyboard-response","274","14766028","0.0-7.0-1.0-1.11","3","1","dgvhrzpts29wvvq","","null","","sounds/C/FAM/N001.mp3","","null","","","","","","","","","","","","","","","","","","","","","","","","","","","","","","","","","","","","","","","","","",""
"html-keyboard-response","275","14769243","0.0-7.0-1.0-2.11","3","1","dgvhrzpts29wvvq","","2712.5","","<p>How familiar did this sound to you?</p><p>1&nbsp;&nbsp;&nbsp;&nbsp;&nbsp;&nbsp;&nbsp;&nbsp;&nbsp;&nbsp;&nbsp;&nbsp;&nbsp;&nbsp;&nbsp;&nbsp;&nbsp;&nbsp;&nbsp;2&nbsp;&nbsp;&nbsp;&nbsp;&nbsp;&nbsp;&nbsp;&nbsp;&nbsp;&nbsp;&nbsp;&nbsp;&nbsp;&nbsp;&nbsp;&nbsp;&nbsp;&nbsp;&nbsp;3&nbsp;&nbsp;&nbsp;&nbsp;&nbsp;&nbsp;&nbsp;&nbsp;&nbsp;&nbsp;&nbsp;&nbsp;&nbsp;&nbsp;&nbsp;&nbsp;&nbsp;&nbsp;&nbsp;4</p><p style=""font-size:14px"">Not at all familiar&nbsp;&nbsp;&nbsp;&nbsp;A little familiar&nbsp;&nbsp;&nbsp;Moderately familiar&nbsp;&nbsp;&nbsp;Extremely familiar</p><p>(press the corresponding number on your keyboard)</p>","","52","","","FAM-RESPONSE","","","","","","","","","","","","","","","","","","","sounds/C/FAM/N001.mp3","nonword","","","","","","","","","","","","","","","","","","",""
"html-button-response","276","14803215","0.0-8.0-0.0","3","1","dgvhrzpts29wvvq","","32967.700000000186","","<p>You will now listen to longer sound sequences.</p><p>Each sound sequence will last about 16 seconds.</p><p>On each trial, you will be given a <u>TARGET SOUND</u>. Your task is to listen very carefully for this sound.</p><p>Every time you hear the <u>TARGET SOUND</u>, you will press the <b>SPACEBAR</b> as quickly and accurately as you can.</p>","0","","","","","","","","","","","","","","","","","","","","","","","","","","","","","","","","","","","","","","","","","","",""
"html-button-response","277","14811455","0.0-8.0-1.0","3","1","dgvhrzpts29wvvq","","7982.600000000093","","<p>It is very important that you make your responses as quickly and accurately as possible.</p><p>To help you make your responses, you will be able to listen to the <u>TARGET SOUND</u> at the beginning of each trial.</p><p>There will be 36 total trials.</p><p><b>Note: This is meant to be a difficult task. We simply want you to try your best.</p>","0","","","","","","","","","","","","","","","","","","","","","","","","","","","","","","","","","","","","","","","","","","",""
"html-button-response","278","14813509","0.0-8.0-2.0-0.0","3","1","dgvhrzpts29wvvq","","1797.4000000003725","","<p>Trial 1 of 36</p>","0","","","","","","","","","","","","","","","","","","","","","","","","","RU","sounds/syllables/ru_SWS.wav","1200,6600,9300,12000","2","","","","","","","","","","","","","","",""
"html-keyboard-response","279","14833047","0.0-8.0-2.0-1.0","3","1","dgvhrzpts29wvvq","","19536.5","","","","80","","","","","","","","","","","","","","","","","","","","","","","","RU","","1200,6600,9300,12000","2","","","","","","","","","","","","","","",""
"audio-keyboard-response","280","14833394","0.0-8.0-2.0-2.0-0.0","3","1","dgvhrzpts29wvvq","","null","","sounds/syllables/ru_SWS.wav","","null","","","","","","","","","","","","","","","","","","","","","","","","","","","","","","","","","","","","","","","","","",""
"html-keyboard-response","281","14834886","0.0-8.0-2.0-2.0-1.0","3","1","dgvhrzpts29wvvq","","1491","","<p>To replay the <u>TARGET SOUND</u>, press P.</p> When you are ready to begin, press SPACEBAR.","","80","","","","","","","","","","","","","","","","","","","","","","","","","","","","","","","","","","","","","","","","","",""
"audio-keyboard-response","282","14835693","0.0-8.0-2.0-2.1-0.1","3","1","dgvhrzpts29wvvq","","null","","sounds/syllables/ru_SWS.wav","","null","","","","","","","","","","","","","","","","","","","","","","","","","","","","","","","","","","","","","","","","","",""
"html-keyboard-response","283","14837110","0.0-8.0-2.0-2.1-1.1","3","1","dgvhrzpts29wvvq","","1416.3999999999069","","<p>To replay the <u>TARGET SOUND</u>, press P.</p> When you are ready to begin, press SPACEBAR.","","32","","","","","","","","","","","","","","","","","","","","","","","","","","","","","","","","","","","","","","","","","",""
"audio-keyboard-response","284","14852062","0.0-8.0-2.0-3.0","3","1","dgvhrzpts29wvvq","","1333","","sounds/C/TD/RU_07_TD.mp3","","32","","","TD_SUMMARY","","","","","","","","","","","","","","","","","","","","","RU","","1200,6600,9300,12000","2","1200","6600","9300","12000","919.7999999998137","854.2000000001863","956.1000000000931","986","1331.3999999999069_2119.7999999998137_3712.899999999907_6757.899999999907_7246.100000000093_7454.200000000186_9210.399999999907_9683.799999999814_10256.100000000093_11747.600000000093_12404.600000000093_12808.399999999907_12986","2","","","","",""
"html-button-response","285","14853428","0.0-8.0-2.0-0.1","3","1","dgvhrzpts29wvvq","","1361.7999999998137","","<p>Trial 2 of 36</p>","0","","","","","","","","","","","","","","","","","","","","","","","","","TA","sounds/syllables/ta_SWS.wav","5700,8400,10200,12000","2","","","","","","","","","","","","","","",""
"html-keyboard-response","286","14855033","0.0-8.0-2.0-1.1","3","1","dgvhrzpts29wvvq","","1603.4000000003725","","","","80","","","","","","","","","","","","","","","","","","","","","","","","TA","","5700,8400,10200,12000","2","","","","","","","","","","","","","","",""
"audio-keyboard-response","287","14855336","0.0-8.0-2.0-2.2-0.2","3","1","dgvhrzpts29wvvq","","null","","sounds/syllables/ta_SWS.wav","","null","","","","","","","","","","","","","","","","","","","","","","","","","","","","","","","","","","","","","","","","","",""
"html-keyboard-response","288","14856734","0.0-8.0-2.0-2.2-1.2","3","1","dgvhrzpts29wvvq","","1397.1999999997206","","<p>To replay the <u>TARGET SOUND</u>, press P.</p> When you are ready to begin, press SPACEBAR.","","80","","","","","","","","","","","","","","","","","","","","","","","","","","","","","","","","","","","","","","","","","",""
"audio-keyboard-response","289","14857538","0.0-8.0-2.0-2.3-0.3","3","1","dgvhrzpts29wvvq","","null","","sounds/syllables/ta_SWS.wav","","null","","","","","","","","","","","","","","","","","","","","","","","","","","","","","","","","","","","","","","","","","",""
"html-keyboard-response","290","14858467","0.0-8.0-2.0-2.3-1.3","3","1","dgvhrzpts29wvvq","","928.1000000000931","","<p>To replay the <u>TARGET SOUND</u>, press P.</p> When you are ready to begin, press SPACEBAR.","","32","","","","","","","","","","","","","","","","","","","","","","","","","","","","","","","","","","","","","","","","","",""
"audio-keyboard-response","291","14873416","0.0-8.0-2.0-3.1","3","1","dgvhrzpts29wvvq","","1029","","sounds/C/TD/TA_03_TD.mp3","","32","","","TD_SUMMARY","","","","","","","","","","","","","","","","","","","","","TA","","5700,8400,10200,12000","2","5700","8400","10200","12000","null","null","null","null","_____________1024.8000000002794_1601.3999999999069_2750.100000000093_4057.899999999907_5721.5_6966.5_8271.100000000093_9604.399999999907_9808_12054.100000000093_13749","2","","","","",""
"html-button-response","292","14874565","0.0-8.0-2.0-0.2","3","1","dgvhrzpts29wvvq","","1146.2000000001863","","<p>Trial 3 of 36</p>","0","","","","","","","","","","","","","","","","","","","","","","","","","NI","sounds/syllables/ni_SWS.wav","900,5400,9000,10800","1","","","","","","","","","","","","","","",""
"html-keyboard-response","293","14875735","0.0-8.0-2.0-1.2","3","1","dgvhrzpts29wvvq","","1167.3999999999069","","","","80","","","","","","","","","","","","","","","","","","","","","","","","NI","","900,5400,9000,10800","1","","","","","","","","","","","","","","",""
"audio-keyboard-response","294","14876039","0.0-8.0-2.0-2.4-0.4","3","1","dgvhrzpts29wvvq","","null","","sounds/syllables/ni_SWS.wav","","null","","","","","","","","","","","","","","","","","","","","","","","","","","","","","","","","","","","","","","","","","",""
"html-keyboard-response","295","14877499","0.0-8.0-2.0-2.4-1.4","3","1","dgvhrzpts29wvvq","","1458.2999999998137","","<p>To replay the <u>TARGET SOUND</u>, press P.</p> When you are ready to begin, press SPACEBAR.","","80","","","","","","","","","","","","","","","","","","","","","","","","","","","","","","","","","","","","","","","","","",""
"audio-keyboard-response","296","14878301","0.0-8.0-2.0-2.5-0.5","3","1","dgvhrzpts29wvvq","","null","","sounds/syllables/ni_SWS.wav","","null","","","","","","","","","","","","","","","","","","","","","","","","","","","","","","","","","","","","","","","","","",""
"html-keyboard-response","297","14879122","0.0-8.0-2.0-2.5-1.5","3","1","dgvhrzpts29wvvq","","820","","<p>To replay the <u>TARGET SOUND</u>, press P.</p> When you are ready to begin, press SPACEBAR.","","32","","","","","","","","","","","","","","","","","","","","","","","","","","","","","","","","","","","","","","","","","",""
"audio-keyboard-response","298","14894072","0.0-8.0-2.0-3.2","3","1","dgvhrzpts29wvvq","","1061","","sounds/C/TD/NI_10_TD.mp3","","32","","","TD_SUMMARY","","","","","","","","","","","","","","","","","","","","","NI","","900,5400,9000,10800","1","900","5400","9000","10800","642.5","425.60000000009313","540.8000000002794","392.20000000018626","________________________1063_1542.5_2586.5_4186.600000000093_5616_5825.600000000093_7761.399999999907_9342.899999999907_9540.80000000028_11192.200000000186_12450.600000000093_13626.200000000186","2","","","","",""
"html-button-response","299","14895174","0.0-8.0-2.0-0.3","3","1","dgvhrzpts29wvvq","","1099","","<p>Trial 4 of 36</p>","0","","","","","","","","","","","","","","","","","","","","","","","","","PU","sounds/syllables/pu_SWS.wav","3300,6900,8700,10500","3","","","","","","","","","","","","","","",""
"html-keyboard-response","300","14896430","0.0-8.0-2.0-1.3","3","1","dgvhrzpts29wvvq","","1254.8000000002794","","","","80","","","","","","","","","","","","","","","","","","","","","","","","PU","","3300,6900,8700,10500","3","","","","","","","","","","","","","","",""
"audio-keyboard-response","301","14896733","0.0-8.0-2.0-2.6-0.6","3","1","dgvhrzpts29wvvq","","null","","sounds/syllables/pu_SWS.wav","","null","","","","","","","","","","","","","","","","","","","","","","","","","","","","","","","","","","","","","","","","","",""
"html-keyboard-response","302","14898488","0.0-8.0-2.0-2.6-1.6","3","1","dgvhrzpts29wvvq","","1753.8999999999069","","<p>To replay the <u>TARGET SOUND</u>, press P.</p> When you are ready to begin, press SPACEBAR.","","32","","","","","","","","","","","","","","","","","","","","","","","","","","","","","","","","","","","","","","","","","",""
"audio-keyboard-response","303","14913437","0.0-8.0-2.0-3.3","3","1","dgvhrzpts29wvvq","","1019","","sounds/C/TD/PU_08_TD.mp3","","32","","","TD_SUMMARY","","","","","","","","","","","","","","","","","","","","","PU","","3300,6900,8700,10500","3","3300","6900","8700","10500","607.1999999997206","652.2999999998137","580.3999999999069","427.1999999997206","____________________________________1019.8999999999069_2280.1999999997206_3080.6999999997206_3369.2999999998137_3907.1999999997206_6683.399999999907_7552.299999999814_8779.899999999907_9280.399999999907_10628.19999999972_10927.19999999972_12659.799999999814_13300.299999999814","1","","","","",""
"html-button-response","304","14914883","0.0-8.0-2.0-0.4","3","1","dgvhrzpts29wvvq","","1442.6999999997206","","<p>Trial 5 of 36</p>","0","","","","","","","","","","","","","","","","","","","","","","","","","FU","sounds/syllables/fu_SWS.wav","3300,6000,8700,10500","3","","","","","","","","","","","","","","",""
"html-keyboard-response","305","14916578","0.0-8.0-2.0-1.4","3","1","dgvhrzpts29wvvq","","1693.3999999999069","","","","80","","","","","","","","","","","","","","","","","","","","","","","","FU","","3300,6000,8700,10500","3","","","","","","","","","","","","","","",""
"audio-keyboard-response","306","14916882","0.0-8.0-2.0-2.7-0.7","3","1","dgvhrzpts29wvvq","","null","","sounds/syllables/fu_SWS.wav","","null","","","","","","","","","","","","","","","","","","","","","","","","","","","","","","","","","","","","","","","","","",""
"html-keyboard-response","307","14917908","0.0-8.0-2.0-2.7-1.7","3","1","dgvhrzpts29wvvq","","1024.8000000002794","","<p>To replay the <u>TARGET SOUND</u>, press P.</p> When you are ready to begin, press SPACEBAR.","","80","","","","","","","","","","","","","","","","","","","","","","","","","","","","","","","","","","","","","","","","","",""
"audio-keyboard-response","308","14918711","0.0-8.0-2.0-2.8-0.8","3","1","dgvhrzpts29wvvq","","null","","sounds/syllables/fu_SWS.wav","","null","","","","","","","","","","","","","","","","","","","","","","","","","","","","","","","","","","","","","","","","","",""
"html-keyboard-response","309","14919098","0.0-8.0-2.0-2.8-1.8","3","1","dgvhrzpts29wvvq","","384.79999999981374","","<p>To replay the <u>TARGET SOUND</u>, press P.</p> When you are ready to begin, press SPACEBAR.","","32","","","","","","","","","","","","","","","","","","","","","","","","","","","","","","","","","","","","","","","","","",""
"audio-keyboard-response","310","14934050","0.0-8.0-2.0-3.4","3","1","dgvhrzpts29wvvq","","1851","","sounds/C/TD/FU_04_TD.mp3","","32","","","TD_SUMMARY","","","","","","","","","","","","","","","","","","","","","FU","","3300,6000,8700,10500","3","3300","6000","8700","10500","803.1000000000931","938.2000000001863","1087.6000000000931","429.29999999981374","_________________________________________________1854.2000000001863_3283.2000000001863_4103.100000000093_5925_6714_6938.200000000186_7548_8862.600000000093_9210.100000000093_9787.600000000093_10254.399999999907_10929.299999999814_12432.899999999907_12623.5_14093.700000000186","2","","","","",""
