"trial_type","trial_index","time_elapsed","internal_node_id","counterbalance","lang_instruct","ParticipantID","view_history","rt","url","stimulus","button_pressed","key_press","correctRESP","correct","designation","location","correctanswer","responses","sentence","keywords","typed_resp","keyword1_acc","keyword2_acc","keyword3_acc","keyword4_acc","keyword5_acc","total_acc","prop_acc","timeouts","pause_rt01","pause_rt02","train_file","numKeyPress","sound","fam_type","SYLLABLE","EXEMPLAR","TD_LOCS","TD_TYPE","TDLOC_01","TDLOC_02","TDLOC_03","TDLOC_04","TD_RT_01","TD_RT_02","TD_RT_03","TD_RT_04","TD_SUBJ_RTs","number_of_plays","slider_start","response","question_order","syllable","syllable_type"
"pavlovia","0","2","0.0-0.0","3","1","wgq8yvftj94mlp8","","","","","","","","","","","","","","","","","","","","","","","","","","","","","","","","","","","","","","","","","","","","","","","",""
"instructions","1","5135","0.0-1.0","3","1","wgq8yvftj94mlp8","[{""page_index"":0,""viewing_time"":850.6400000042049},{""page_index"":1,""viewing_time"":4279.6199999938835}]","5131.914999998116","","","","","","","","","","","","","","","","","","","","","","","","","","","","","","","","","","","","","","","","","","","","","",""
"external-html","2","8387","0.0-2.0","3","1","wgq8yvftj94mlp8","","3137.4349999969127","consent/consent.html","","","","","","","","","","","","","","","","","","","","","","","","","","","","","","","","","","","","","","","","","","","","",""
"html-button-response","3","9323","0.0-3.0-0.0-0.0","3","1","wgq8yvftj94mlp8","","934.2899999974179","","<p>Welcome to the study. You will first complete a short volume calibration and headphone check.</p><p>Please make sure you are in a quiet listening environment, that you are wearing headphones, and that your computer's volume is turned on.<p></p>","0","","","","","","","","","","","","","","","","","","","","","","","","","","","","","","","","","","","","","","","","","","",""
"html-button-response","4","10463","0.0-3.0-0.0-1.0","3","1","wgq8yvftj94mlp8","","888.5450000016135","","<p>The volume calibration will be first.</p><p>You will hear a thirty-second noise. Please adjust your computer's volume so that this noise is being presented at a comfortable level.<p></p>","0","","","","","","","","","","","","","","","","","","","","","","","","","","","","","","","","","","","","","","","","","","",""
"audio-button-response","5","11833","0.0-3.0-0.0-2.0","3","1","wgq8yvftj94mlp8","","1120","","audCalib/volumetest.mp3","0","","","","","","","","","","","","","","","","","","","","","","","","","","","","","","","","","","","","","","","","","","",""
"html-button-response","6","12757","0.0-3.0-1.0-0.0","3","1","wgq8yvftj94mlp8","","923.5950000002049","","<p>You will now complete a short headphone check.</p><p>On each trial, you will hear three tones. One of these tones will be quieter than the others. Your task is to identify whether the quiet tone occured first, second, or third.</p><p>There are six trials in total.<p></p>","0","","","","","","","","","","","","","","","","","","","","","","","","","","","","","","","","","","","","","","","","","","",""
"html-keyboard-response","7","13510","0.0-3.0-1.0-1.0-0.0","3","1","wgq8yvftj94mlp8","","null","","<div style=""font-size:60px;"">+</div>","","null","","","","","","","","","","","","","","","","","","","","","","","","","","","","","","","","","","","","","","","","","",""
"audio-button-response","8","17109","0.0-3.0-1.0-1.0-1.0","3","1","wgq8yvftj94mlp8","","3600","","audCalib/t3_1.mp3","2","","2","1","headphone-test","","","","","","","","","","","","","","","","","","","","","","","","","","","","","","","","","","","","","","",""
"html-keyboard-response","9","17861","0.0-3.0-1.0-1.0-0.1","3","1","wgq8yvftj94mlp8","","null","","<div style=""font-size:60px;"">+</div>","","null","","","","","","","","","","","","","","","","","","","","","","","","","","","","","","","","","","","","","","","","","",""
"audio-button-response","10","21835","0.0-3.0-1.0-1.0-1.1","3","1","wgq8yvftj94mlp8","","3971","","audCalib/t3_2.mp3","2","","2","1","headphone-test","","","","","","","","","","","","","","","","","","","","","","","","","","","","","","","","","","","","","","",""
"html-keyboard-response","11","22586","0.0-3.0-1.0-1.0-0.2","3","1","wgq8yvftj94mlp8","","null","","<div style=""font-size:60px;"">+</div>","","null","","","","","","","","","","","","","","","","","","","","","","","","","","","","","","","","","","","","","","","","","",""
"audio-button-response","12","26171","0.0-3.0-1.0-1.0-1.2","3","1","wgq8yvftj94mlp8","","3581","","audCalib/t2_2.mp3","1","","1","1","headphone-test","","","","","","","","","","","","","","","","","","","","","","","","","","","","","","","","","","","","","","",""
"html-keyboard-response","13","26922","0.0-3.0-1.0-1.0-0.3","3","1","wgq8yvftj94mlp8","","null","","<div style=""font-size:60px;"">+</div>","","null","","","","","","","","","","","","","","","","","","","","","","","","","","","","","","","","","","","","","","","","","",""
"audio-button-response","14","30531","0.0-3.0-1.0-1.0-1.3","3","1","wgq8yvftj94mlp8","","3611","","audCalib/t1_2.mp3","0","","0","1","headphone-test","","","","","","","","","","","","","","","","","","","","","","","","","","","","","","","","","","","","","","",""
"html-keyboard-response","15","31283","0.0-3.0-1.0-1.0-0.4","3","1","wgq8yvftj94mlp8","","null","","<div style=""font-size:60px;"">+</div>","","null","","","","","","","","","","","","","","","","","","","","","","","","","","","","","","","","","","","","","","","","","",""
"audio-button-response","16","34968","0.0-3.0-1.0-1.0-1.4","3","1","wgq8yvftj94mlp8","","3691","","audCalib/t1_1.mp3","0","","0","1","headphone-test","","","","","","","","","","","","","","","","","","","","","","","","","","","","","","","","","","","","","","",""
"html-keyboard-response","17","35718","0.0-3.0-1.0-1.0-0.5","3","1","wgq8yvftj94mlp8","","null","","<div style=""font-size:60px;"">+</div>","","null","","","","","","","","","","","","","","","","","","","","","","","","","","","","","","","","","","","","","","","","","",""
"audio-button-response","18","39331","0.0-3.0-1.0-1.0-1.5","3","1","wgq8yvftj94mlp8","","3611","","audCalib/t2_1.mp3","1","","1","1","headphone-test","","","","","","","","","","","","","","","","","","","","","","","","","","","","","","","","","","","","","","",""
"html-button-response","19","40510","0.0-3.0-2.0","3","1","wgq8yvftj94mlp8","","927.8950000007171","","<p>The volume calibration and headphone check are now complete.</p>","0","","","","","","","","","","","","","","","","","","","","","","","","","","","","","","","","","","","","","","","","","","",""
"instructions","20","49229","0.0-4.0-0.0","3","1","wgq8yvftj94mlp8","[{""page_index"":0,""viewing_time"":863.8999999966472},{""page_index"":1,""viewing_time"":6649.9150000017835},{""page_index"":2,""viewing_time"":1203.9999999979045}]","8718.024999994668","","","","","","","","","","","","","","","","","","","","","","","","","","","","","","","","","","","","","","","","","","","","","",""
"audio-keyboard-response","21","49527","0.0-4.0-1.0-0.0","3","1","wgq8yvftj94mlp8","","null","","sounds/induction/right/pu_SWS.wav","","null","","","","","","","","","","","","","","","","","","","","","","","","","","","","","","","","","","","","","","","","","",""
"html-button-response","22","51056","0.0-4.0-1.0-1.0","3","1","wgq8yvftj94mlp8","","1528.4049999972922","","What sound did you hear?","1","","","1","INDUCTION-JUDGMENT","right","1","","","","","","","","","","","","","","","","","","","","","","","","","","","","","","","","","","","","",""
"html-keyboard-response","23","52057","0.0-4.0-1.0-2.0","3","1","wgq8yvftj94mlp8","","null","","<p style=""color:green;""><b>Correct!</b></p>","","null","","","","","","","","","","","","","","","","","","","","","","","","","","","","","","","","","","","","","","","","","",""
"audio-keyboard-response","24","52866","0.0-4.0-1.0-0.1","3","1","wgq8yvftj94mlp8","","null","","sounds/induction/left/fe_SWS.wav","","null","","","","","","","","","","","","","","","","","","","","","","","","","","","","","","","","","","","","","","","","","",""
"html-button-response","25","53453","0.0-4.0-1.0-1.1","3","1","wgq8yvftj94mlp8","","586.009999999078","","What sound did you hear?","0","","","0","INDUCTION-JUDGMENT","left","1","","","","","","","","","","","","","","","","","","","","","","","","","","","","","","","","","","","","",""
"html-keyboard-response","26","54454","0.0-4.0-1.0-2.1","3","1","wgq8yvftj94mlp8","","null","","<p style=""color:red;""><b>Incorrect!</b></p>","","null","","","","","","","","","","","","","","","","","","","","","","","","","","","","","","","","","","","","","","","","","",""
"audio-keyboard-response","27","55247","0.0-4.0-1.0-0.2","3","1","wgq8yvftj94mlp8","","null","","sounds/induction/left/ti_SWS.wav","","null","","","","","","","","","","","","","","","","","","","","","","","","","","","","","","","","","","","","","","","","","",""
"html-button-response","28","56197","0.0-4.0-1.0-1.2","3","1","wgq8yvftj94mlp8","","949.6899999940069","","What sound did you hear?","0","","","1","INDUCTION-JUDGMENT","left","0","","","","","","","","","","","","","","","","","","","","","","","","","","","","","","","","","","","","",""
"html-keyboard-response","29","57198","0.0-4.0-1.0-2.2","3","1","wgq8yvftj94mlp8","","null","","<p style=""color:green;""><b>Correct!</b></p>","","null","","","","","","","","","","","","","","","","","","","","","","","","","","","","","","","","","","","","","","","","","",""
"audio-keyboard-response","30","57997","0.0-4.0-1.0-0.3","3","1","wgq8yvftj94mlp8","","null","","sounds/induction/right/pu_SWS.wav","","null","","","","","","","","","","","","","","","","","","","","","","","","","","","","","","","","","","","","","","","","","",""
"html-button-response","31","59113","0.0-4.0-1.0-1.3","3","1","wgq8yvftj94mlp8","","1115.364999997837","","What sound did you hear?","1","","","1","INDUCTION-JUDGMENT","right","1","","","","","","","","","","","","","","","","","","","","","","","","","","","","","","","","","","","","",""
"html-keyboard-response","32","60115","0.0-4.0-1.0-2.3","3","1","wgq8yvftj94mlp8","","null","","<p style=""color:green;""><b>Correct!</b></p>","","null","","","","","","","","","","","","","","","","","","","","","","","","","","","","","","","","","","","","","","","","","",""
"audio-keyboard-response","33","60917","0.0-4.0-1.0-0.4","3","1","wgq8yvftj94mlp8","","null","","sounds/induction/right/fe_SWS.wav","","null","","","","","","","","","","","","","","","","","","","","","","","","","","","","","","","","","","","","","","","","","",""
"html-button-response","34","62311","0.0-4.0-1.0-1.4","3","1","wgq8yvftj94mlp8","","1393.4450000015204","","What sound did you hear?","0","","","1","INDUCTION-JUDGMENT","right","0","","","","","","","","","","","","","","","","","","","","","","","","","","","","","","","","","","","","",""
"html-keyboard-response","35","63312","0.0-4.0-1.0-2.4","3","1","wgq8yvftj94mlp8","","null","","<p style=""color:green;""><b>Correct!</b></p>","","null","","","","","","","","","","","","","","","","","","","","","","","","","","","","","","","","","","","","","","","","","",""
"audio-keyboard-response","36","64117","0.0-4.0-1.0-0.5","3","1","wgq8yvftj94mlp8","","null","","sounds/induction/left/ko_SWS.wav","","null","","","","","","","","","","","","","","","","","","","","","","","","","","","","","","","","","","","","","","","","","",""
"html-button-response","37","64943","0.0-4.0-1.0-1.5","3","1","wgq8yvftj94mlp8","","825.3849999964586","","What sound did you hear?","0","","","0","INDUCTION-JUDGMENT","left","1","","","","","","","","","","","","","","","","","","","","","","","","","","","","","","","","","","","","",""
"html-keyboard-response","38","65944","0.0-4.0-1.0-2.5","3","1","wgq8yvftj94mlp8","","null","","<p style=""color:red;""><b>Incorrect!</b></p>","","null","","","","","","","","","","","","","","","","","","","","","","","","","","","","","","","","","","","","","","","","","",""
"audio-keyboard-response","39","66747","0.0-4.0-1.0-0.6","3","1","wgq8yvftj94mlp8","","null","","sounds/induction/left/su_SWS.wav","","null","","","","","","","","","","","","","","","","","","","","","","","","","","","","","","","","","","","","","","","","","",""
"html-button-response","40","68058","0.0-4.0-1.0-1.6","3","1","wgq8yvftj94mlp8","","1310.3399999963585","","What sound did you hear?","0","","","1","INDUCTION-JUDGMENT","left","0","","","","","","","","","","","","","","","","","","","","","","","","","","","","","","","","","","","","",""
"html-keyboard-response","41","69058","0.0-4.0-1.0-2.6","3","1","wgq8yvftj94mlp8","","null","","<p style=""color:green;""><b>Correct!</b></p>","","null","","","","","","","","","","","","","","","","","","","","","","","","","","","","","","","","","","","","","","","","","",""
"audio-keyboard-response","42","69866","0.0-4.0-1.0-0.7","3","1","wgq8yvftj94mlp8","","null","","sounds/induction/left/ni_SWS.wav","","null","","","","","","","","","","","","","","","","","","","","","","","","","","","","","","","","","","","","","","","","","",""
"html-button-response","43","71971","0.0-4.0-1.0-1.7","3","1","wgq8yvftj94mlp8","","2103.885000004084","","What sound did you hear?","1","","","1","INDUCTION-JUDGMENT","left","1","","","","","","","","","","","","","","","","","","","","","","","","","","","","","","","","","","","","",""
"html-keyboard-response","44","72972","0.0-4.0-1.0-2.7","3","1","wgq8yvftj94mlp8","","null","","<p style=""color:green;""><b>Correct!</b></p>","","null","","","","","","","","","","","","","","","","","","","","","","","","","","","","","","","","","","","","","","","","","",""
"audio-keyboard-response","45","73767","0.0-4.0-1.0-0.8","3","1","wgq8yvftj94mlp8","","null","","sounds/induction/right/fu_SWS.wav","","null","","","","","","","","","","","","","","","","","","","","","","","","","","","","","","","","","","","","","","","","","",""
"html-button-response","46","74693","0.0-4.0-1.0-1.8","3","1","wgq8yvftj94mlp8","","925.5599999960396","","What sound did you hear?","0","","","1","INDUCTION-JUDGMENT","right","0","","","","","","","","","","","","","","","","","","","","","","","","","","","","","","","","","","","","",""
"html-keyboard-response","47","75694","0.0-4.0-1.0-2.8","3","1","wgq8yvftj94mlp8","","null","","<p style=""color:green;""><b>Correct!</b></p>","","null","","","","","","","","","","","","","","","","","","","","","","","","","","","","","","","","","","","","","","","","","",""
"audio-keyboard-response","48","76487","0.0-4.0-1.0-0.9","3","1","wgq8yvftj94mlp8","","null","","sounds/induction/left/su_SWS.wav","","null","","","","","","","","","","","","","","","","","","","","","","","","","","","","","","","","","","","","","","","","","",""
"html-button-response","49","77283","0.0-4.0-1.0-1.9","3","1","wgq8yvftj94mlp8","","796.2899999984074","","What sound did you hear?","0","","","1","INDUCTION-JUDGMENT","left","0","","","","","","","","","","","","","","","","","","","","","","","","","","","","","","","","","","","","",""
"html-keyboard-response","50","78285","0.0-4.0-1.0-2.9","3","1","wgq8yvftj94mlp8","","null","","<p style=""color:green;""><b>Correct!</b></p>","","null","","","","","","","","","","","","","","","","","","","","","","","","","","","","","","","","","","","","","","","","","",""
"audio-keyboard-response","51","79077","0.0-4.0-1.0-0.10","3","1","wgq8yvftj94mlp8","","null","","sounds/induction/left/fu_SWS.wav","","null","","","","","","","","","","","","","","","","","","","","","","","","","","","","","","","","","","","","","","","","","",""
"html-button-response","52","80115","0.0-4.0-1.0-1.10","3","1","wgq8yvftj94mlp8","","1037.2300000017276","","What sound did you hear?","1","","","1","INDUCTION-JUDGMENT","left","1","","","","","","","","","","","","","","","","","","","","","","","","","","","","","","","","","","","","",""
"html-keyboard-response","53","81116","0.0-4.0-1.0-2.10","3","1","wgq8yvftj94mlp8","","null","","<p style=""color:green;""><b>Correct!</b></p>","","null","","","","","","","","","","","","","","","","","","","","","","","","","","","","","","","","","","","","","","","","","",""
"audio-keyboard-response","54","81917","0.0-4.0-1.0-0.11","3","1","wgq8yvftj94mlp8","","null","","sounds/induction/right/ta_SWS.wav","","null","","","","","","","","","","","","","","","","","","","","","","","","","","","","","","","","","","","","","","","","","",""
"html-button-response","55","83339","0.0-4.0-1.0-1.11","3","1","wgq8yvftj94mlp8","","1421.9999999986612","","What sound did you hear?","1","","","1","INDUCTION-JUDGMENT","right","1","","","","","","","","","","","","","","","","","","","","","","","","","","","","","","","","","","","","",""
"html-keyboard-response","56","84340","0.0-4.0-1.0-2.11","3","1","wgq8yvftj94mlp8","","null","","<p style=""color:green;""><b>Correct!</b></p>","","null","","","","","","","","","","","","","","","","","","","","","","","","","","","","","","","","","","","","","","","","","",""
"audio-keyboard-response","57","85147","0.0-4.0-1.0-0.12","3","1","wgq8yvftj94mlp8","","null","","sounds/induction/right/ni_SWS.wav","","null","","","","","","","","","","","","","","","","","","","","","","","","","","","","","","","","","","","","","","","","","",""
"html-button-response","58","86253","0.0-4.0-1.0-1.12","3","1","wgq8yvftj94mlp8","","1106.0649999999441","","What sound did you hear?","0","","","1","INDUCTION-JUDGMENT","right","0","","","","","","","","","","","","","","","","","","","","","","","","","","","","","","","","","","","","",""
"html-keyboard-response","59","87254","0.0-4.0-1.0-2.12","3","1","wgq8yvftj94mlp8","","null","","<p style=""color:green;""><b>Correct!</b></p>","","null","","","","","","","","","","","","","","","","","","","","","","","","","","","","","","","","","","","","","","","","","",""
"audio-keyboard-response","60","88047","0.0-4.0-1.0-0.13","3","1","wgq8yvftj94mlp8","","null","","sounds/induction/left/ni_SWS.wav","","null","","","","","","","","","","","","","","","","","","","","","","","","","","","","","","","","","","","","","","","","","",""
"html-button-response","61","88627","0.0-4.0-1.0-1.13","3","1","wgq8yvftj94mlp8","","579.9800000022515","","What sound did you hear?","1","","","1","INDUCTION-JUDGMENT","left","1","","","","","","","","","","","","","","","","","","","","","","","","","","","","","","","","","","","","",""
"html-keyboard-response","62","89628","0.0-4.0-1.0-2.13","3","1","wgq8yvftj94mlp8","","null","","<p style=""color:green;""><b>Correct!</b></p>","","null","","","","","","","","","","","","","","","","","","","","","","","","","","","","","","","","","","","","","","","","","",""
"audio-keyboard-response","63","90436","0.0-4.0-1.0-0.14","3","1","wgq8yvftj94mlp8","","null","","sounds/induction/right/ta_SWS.wav","","null","","","","","","","","","","","","","","","","","","","","","","","","","","","","","","","","","","","","","","","","","",""
"html-button-response","64","91589","0.0-4.0-1.0-1.14","3","1","wgq8yvftj94mlp8","","1152.1600000050967","","What sound did you hear?","1","","","1","INDUCTION-JUDGMENT","right","1","","","","","","","","","","","","","","","","","","","","","","","","","","","","","","","","","","","","",""
"html-keyboard-response","65","92590","0.0-4.0-1.0-2.14","3","1","wgq8yvftj94mlp8","","null","","<p style=""color:green;""><b>Correct!</b></p>","","null","","","","","","","","","","","","","","","","","","","","","","","","","","","","","","","","","","","","","","","","","",""
"audio-keyboard-response","66","93397","0.0-4.0-1.0-0.15","3","1","wgq8yvftj94mlp8","","null","","sounds/induction/right/ru_SWS.wav","","null","","","","","","","","","","","","","","","","","","","","","","","","","","","","","","","","","","","","","","","","","",""
"html-button-response","67","94214","0.0-4.0-1.0-1.15","3","1","wgq8yvftj94mlp8","","816.3750000021537","","What sound did you hear?","1","","","1","INDUCTION-JUDGMENT","right","1","","","","","","","","","","","","","","","","","","","","","","","","","","","","","","","","","","","","",""
"html-keyboard-response","68","95215","0.0-4.0-1.0-2.15","3","1","wgq8yvftj94mlp8","","null","","<p style=""color:green;""><b>Correct!</b></p>","","null","","","","","","","","","","","","","","","","","","","","","","","","","","","","","","","","","","","","","","","","","",""
"audio-keyboard-response","69","96026","0.0-4.0-1.0-0.16","3","1","wgq8yvftj94mlp8","","null","","sounds/induction/left/ge_SWS.wav","","null","","","","","","","","","","","","","","","","","","","","","","","","","","","","","","","","","","","","","","","","","",""
"html-button-response","70","96621","0.0-4.0-1.0-1.16","3","1","wgq8yvftj94mlp8","","594.1450000027544","","What sound did you hear?","0","","","0","INDUCTION-JUDGMENT","left","1","","","","","","","","","","","","","","","","","","","","","","","","","","","","","","","","","","","","",""
"html-keyboard-response","71","97622","0.0-4.0-1.0-2.16","3","1","wgq8yvftj94mlp8","","null","","<p style=""color:red;""><b>Incorrect!</b></p>","","null","","","","","","","","","","","","","","","","","","","","","","","","","","","","","","","","","","","","","","","","","",""
"audio-keyboard-response","72","98426","0.0-4.0-1.0-0.17","3","1","wgq8yvftj94mlp8","","null","","sounds/induction/right/ru_SWS.wav","","null","","","","","","","","","","","","","","","","","","","","","","","","","","","","","","","","","","","","","","","","","",""
"html-button-response","73","99345","0.0-4.0-1.0-1.17","3","1","wgq8yvftj94mlp8","","918.2249999939813","","What sound did you hear?","1","","","1","INDUCTION-JUDGMENT","right","1","","","","","","","","","","","","","","","","","","","","","","","","","","","","","","","","","","","","",""
"html-keyboard-response","74","100347","0.0-4.0-1.0-2.17","3","1","wgq8yvftj94mlp8","","null","","<p style=""color:green;""><b>Correct!</b></p>","","null","","","","","","","","","","","","","","","","","","","","","","","","","","","","","","","","","","","","","","","","","",""
"audio-keyboard-response","75","101157","0.0-4.0-1.0-0.18","3","1","wgq8yvftj94mlp8","","null","","sounds/induction/right/fe_SWS.wav","","null","","","","","","","","","","","","","","","","","","","","","","","","","","","","","","","","","","","","","","","","","",""
"html-button-response","76","102584","0.0-4.0-1.0-1.18","3","1","wgq8yvftj94mlp8","","1426.0749999957625","","What sound did you hear?","0","","","1","INDUCTION-JUDGMENT","right","0","","","","","","","","","","","","","","","","","","","","","","","","","","","","","","","","","","","","",""
"html-keyboard-response","77","103585","0.0-4.0-1.0-2.18","3","1","wgq8yvftj94mlp8","","null","","<p style=""color:green;""><b>Correct!</b></p>","","null","","","","","","","","","","","","","","","","","","","","","","","","","","","","","","","","","","","","","","","","","",""
"audio-keyboard-response","78","104387","0.0-4.0-1.0-0.19","3","1","wgq8yvftj94mlp8","","null","","sounds/induction/left/re_SWS.wav","","null","","","","","","","","","","","","","","","","","","","","","","","","","","","","","","","","","","","","","","","","","",""
"html-button-response","79","105469","0.0-4.0-1.0-1.19","3","1","wgq8yvftj94mlp8","","1081.6849999973783","","What sound did you hear?","0","","","1","INDUCTION-JUDGMENT","left","0","","","","","","","","","","","","","","","","","","","","","","","","","","","","","","","","","","","","",""
"html-keyboard-response","80","106470","0.0-4.0-1.0-2.19","3","1","wgq8yvftj94mlp8","","null","","<p style=""color:green;""><b>Correct!</b></p>","","null","","","","","","","","","","","","","","","","","","","","","","","","","","","","","","","","","","","","","","","","","",""
"audio-keyboard-response","81","107277","0.0-4.0-1.0-0.20","3","1","wgq8yvftj94mlp8","","null","","sounds/induction/left/ge_SWS.wav","","null","","","","","","","","","","","","","","","","","","","","","","","","","","","","","","","","","","","","","","","","","",""
"html-button-response","82","108271","0.0-4.0-1.0-1.20","3","1","wgq8yvftj94mlp8","","994.169999998121","","What sound did you hear?","1","","","1","INDUCTION-JUDGMENT","left","1","","","","","","","","","","","","","","","","","","","","","","","","","","","","","","","","","","","","",""
"html-keyboard-response","83","109272","0.0-4.0-1.0-2.20","3","1","wgq8yvftj94mlp8","","null","","<p style=""color:green;""><b>Correct!</b></p>","","null","","","","","","","","","","","","","","","","","","","","","","","","","","","","","","","","","","","","","","","","","",""
"audio-keyboard-response","84","110077","0.0-4.0-1.0-0.21","3","1","wgq8yvftj94mlp8","","null","","sounds/induction/left/pu_SWS.wav","","null","","","","","","","","","","","","","","","","","","","","","","","","","","","","","","","","","","","","","","","","","",""
"html-button-response","85","111045","0.0-4.0-1.0-1.21","3","1","wgq8yvftj94mlp8","","967.8150000036112","","What sound did you hear?","0","","","1","INDUCTION-JUDGMENT","left","0","","","","","","","","","","","","","","","","","","","","","","","","","","","","","","","","","","","","",""
"html-keyboard-response","86","112046","0.0-4.0-1.0-2.21","3","1","wgq8yvftj94mlp8","","null","","<p style=""color:green;""><b>Correct!</b></p>","","null","","","","","","","","","","","","","","","","","","","","","","","","","","","","","","","","","","","","","","","","","",""
"audio-keyboard-response","87","112847","0.0-4.0-1.0-0.22","3","1","wgq8yvftj94mlp8","","null","","sounds/induction/left/fu_SWS.wav","","null","","","","","","","","","","","","","","","","","","","","","","","","","","","","","","","","","","","","","","","","","",""
"html-button-response","88","113670","0.0-4.0-1.0-1.22","3","1","wgq8yvftj94mlp8","","822.0250000013039","","What sound did you hear?","1","","","1","INDUCTION-JUDGMENT","left","1","","","","","","","","","","","","","","","","","","","","","","","","","","","","","","","","","","","","",""
"html-keyboard-response","89","114671","0.0-4.0-1.0-2.22","3","1","wgq8yvftj94mlp8","","null","","<p style=""color:green;""><b>Correct!</b></p>","","null","","","","","","","","","","","","","","","","","","","","","","","","","","","","","","","","","","","","","","","","","",""
"audio-keyboard-response","90","115477","0.0-4.0-1.0-0.23","3","1","wgq8yvftj94mlp8","","null","","sounds/induction/right/su_SWS.wav","","null","","","","","","","","","","","","","","","","","","","","","","","","","","","","","","","","","","","","","","","","","",""
"html-button-response","91","116312","0.0-4.0-1.0-1.23","3","1","wgq8yvftj94mlp8","","834.5100000005914","","What sound did you hear?","1","","","1","INDUCTION-JUDGMENT","right","1","","","","","","","","","","","","","","","","","","","","","","","","","","","","","","","","","","","","",""
"html-keyboard-response","92","117313","0.0-4.0-1.0-2.23","3","1","wgq8yvftj94mlp8","","null","","<p style=""color:green;""><b>Correct!</b></p>","","null","","","","","","","","","","","","","","","","","","","","","","","","","","","","","","","","","","","","","","","","","",""
"audio-keyboard-response","93","118117","0.0-4.0-1.0-0.24","3","1","wgq8yvftj94mlp8","","null","","sounds/induction/left/pu_SWS.wav","","null","","","","","","","","","","","","","","","","","","","","","","","","","","","","","","","","","","","","","","","","","",""
"html-button-response","94","119038","0.0-4.0-1.0-1.24","3","1","wgq8yvftj94mlp8","","920.590000001539","","What sound did you hear?","0","","","1","INDUCTION-JUDGMENT","left","0","","","","","","","","","","","","","","","","","","","","","","","","","","","","","","","","","","","","",""
"html-keyboard-response","95","120039","0.0-4.0-1.0-2.24","3","1","wgq8yvftj94mlp8","","null","","<p style=""color:green;""><b>Correct!</b></p>","","null","","","","","","","","","","","","","","","","","","","","","","","","","","","","","","","","","","","","","","","","","",""
"audio-keyboard-response","96","120837","0.0-4.0-1.0-0.25","3","1","wgq8yvftj94mlp8","","null","","sounds/induction/left/ru_SWS.wav","","null","","","","","","","","","","","","","","","","","","","","","","","","","","","","","","","","","","","","","","","","","",""
"html-button-response","97","121376","0.0-4.0-1.0-1.25","3","1","wgq8yvftj94mlp8","","538.0000000004657","","What sound did you hear?","0","","","1","INDUCTION-JUDGMENT","left","0","","","","","","","","","","","","","","","","","","","","","","","","","","","","","","","","","","","","",""
"html-keyboard-response","98","122377","0.0-4.0-1.0-2.25","3","1","wgq8yvftj94mlp8","","null","","<p style=""color:green;""><b>Correct!</b></p>","","null","","","","","","","","","","","","","","","","","","","","","","","","","","","","","","","","","","","","","","","","","",""
"audio-keyboard-response","99","123186","0.0-4.0-1.0-0.26","3","1","wgq8yvftj94mlp8","","null","","sounds/induction/left/re_SWS.wav","","null","","","","","","","","","","","","","","","","","","","","","","","","","","","","","","","","","","","","","","","","","",""
"html-button-response","100","123937","0.0-4.0-1.0-1.26","3","1","wgq8yvftj94mlp8","","750.2949999980046","","What sound did you hear?","1","","","0","INDUCTION-JUDGMENT","left","0","","","","","","","","","","","","","","","","","","","","","","","","","","","","","","","","","","","","",""
"html-keyboard-response","101","124939","0.0-4.0-1.0-2.26","3","1","wgq8yvftj94mlp8","","null","","<p style=""color:red;""><b>Incorrect!</b></p>","","null","","","","","","","","","","","","","","","","","","","","","","","","","","","","","","","","","","","","","","","","","",""
"audio-keyboard-response","102","125747","0.0-4.0-1.0-0.27","3","1","wgq8yvftj94mlp8","","null","","sounds/induction/right/ni_SWS.wav","","null","","","","","","","","","","","","","","","","","","","","","","","","","","","","","","","","","","","","","","","","","",""
"html-button-response","103","126897","0.0-4.0-1.0-1.27","3","1","wgq8yvftj94mlp8","","1149.8350000038045","","What sound did you hear?","1","","","0","INDUCTION-JUDGMENT","right","0","","","","","","","","","","","","","","","","","","","","","","","","","","","","","","","","","","","","",""
"html-keyboard-response","104","127898","0.0-4.0-1.0-2.27","3","1","wgq8yvftj94mlp8","","null","","<p style=""color:red;""><b>Incorrect!</b></p>","","null","","","","","","","","","","","","","","","","","","","","","","","","","","","","","","","","","","","","","","","","","",""
"audio-keyboard-response","105","128706","0.0-4.0-1.0-0.28","3","1","wgq8yvftj94mlp8","","null","","sounds/induction/left/me_SWS.wav","","null","","","","","","","","","","","","","","","","","","","","","","","","","","","","","","","","","","","","","","","","","",""
"html-button-response","106","129565","0.0-4.0-1.0-1.28","3","1","wgq8yvftj94mlp8","","858.3199999993667","","What sound did you hear?","1","","","1","INDUCTION-JUDGMENT","left","1","","","","","","","","","","","","","","","","","","","","","","","","","","","","","","","","","","","","",""
"html-keyboard-response","107","130566","0.0-4.0-1.0-2.28","3","1","wgq8yvftj94mlp8","","null","","<p style=""color:green;""><b>Correct!</b></p>","","null","","","","","","","","","","","","","","","","","","","","","","","","","","","","","","","","","","","","","","","","","",""
"audio-keyboard-response","108","131367","0.0-4.0-1.0-0.29","3","1","wgq8yvftj94mlp8","","null","","sounds/induction/right/ti_SWS.wav","","null","","","","","","","","","","","","","","","","","","","","","","","","","","","","","","","","","","","","","","","","","",""
"html-button-response","109","132215","0.0-4.0-1.0-1.29","3","1","wgq8yvftj94mlp8","","848.1649999957881","","What sound did you hear?","1","","","1","INDUCTION-JUDGMENT","right","1","","","","","","","","","","","","","","","","","","","","","","","","","","","","","","","","","","","","",""
"html-keyboard-response","110","133217","0.0-4.0-1.0-2.29","3","1","wgq8yvftj94mlp8","","null","","<p style=""color:green;""><b>Correct!</b></p>","","null","","","","","","","","","","","","","","","","","","","","","","","","","","","","","","","","","","","","","","","","","",""
"audio-keyboard-response","111","134027","0.0-4.0-1.0-0.30","3","1","wgq8yvftj94mlp8","","null","","sounds/induction/right/fu_SWS.wav","","null","","","","","","","","","","","","","","","","","","","","","","","","","","","","","","","","","","","","","","","","","",""
"html-button-response","112","134761","0.0-4.0-1.0-1.30","3","1","wgq8yvftj94mlp8","","733.4100000007311","","What sound did you hear?","0","","","1","INDUCTION-JUDGMENT","right","0","","","","","","","","","","","","","","","","","","","","","","","","","","","","","","","","","","","","",""
"html-keyboard-response","113","135762","0.0-4.0-1.0-2.30","3","1","wgq8yvftj94mlp8","","null","","<p style=""color:green;""><b>Correct!</b></p>","","null","","","","","","","","","","","","","","","","","","","","","","","","","","","","","","","","","","","","","","","","","",""
"audio-keyboard-response","114","136557","0.0-4.0-1.0-0.31","3","1","wgq8yvftj94mlp8","","null","","sounds/induction/right/su_SWS.wav","","null","","","","","","","","","","","","","","","","","","","","","","","","","","","","","","","","","","","","","","","","","",""
"html-button-response","115","137146","0.0-4.0-1.0-1.31","3","1","wgq8yvftj94mlp8","","589.0250000011292","","What sound did you hear?","0","","","0","INDUCTION-JUDGMENT","right","1","","","","","","","","","","","","","","","","","","","","","","","","","","","","","","","","","","","","",""
"html-keyboard-response","116","138147","0.0-4.0-1.0-2.31","3","1","wgq8yvftj94mlp8","","null","","<p style=""color:red;""><b>Incorrect!</b></p>","","null","","","","","","","","","","","","","","","","","","","","","","","","","","","","","","","","","","","","","","","","","",""
"audio-keyboard-response","117","138957","0.0-4.0-1.0-0.32","3","1","wgq8yvftj94mlp8","","null","","sounds/induction/right/re_SWS.wav","","null","","","","","","","","","","","","","","","","","","","","","","","","","","","","","","","","","","","","","","","","","",""
"html-button-response","118","139801","0.0-4.0-1.0-1.32","3","1","wgq8yvftj94mlp8","","843.7849999972968","","What sound did you hear?","1","","","1","INDUCTION-JUDGMENT","right","1","","","","","","","","","","","","","","","","","","","","","","","","","","","","","","","","","","","","",""
"html-keyboard-response","119","140802","0.0-4.0-1.0-2.32","3","1","wgq8yvftj94mlp8","","null","","<p style=""color:green;""><b>Correct!</b></p>","","null","","","","","","","","","","","","","","","","","","","","","","","","","","","","","","","","","","","","","","","","","",""
"audio-keyboard-response","120","141597","0.0-4.0-1.0-0.33","3","1","wgq8yvftj94mlp8","","null","","sounds/induction/right/me_SWS.wav","","null","","","","","","","","","","","","","","","","","","","","","","","","","","","","","","","","","","","","","","","","","",""
"html-button-response","121","142220","0.0-4.0-1.0-1.33","3","1","wgq8yvftj94mlp8","","622.1800000057556","","What sound did you hear?","0","","","1","INDUCTION-JUDGMENT","right","0","","","","","","","","","","","","","","","","","","","","","","","","","","","","","","","","","","","","",""
"html-keyboard-response","122","143221","0.0-4.0-1.0-2.33","3","1","wgq8yvftj94mlp8","","null","","<p style=""color:green;""><b>Correct!</b></p>","","null","","","","","","","","","","","","","","","","","","","","","","","","","","","","","","","","","","","","","","","","","",""
"audio-keyboard-response","123","144027","0.0-4.0-1.0-0.34","3","1","wgq8yvftj94mlp8","","null","","sounds/induction/left/ko_SWS.wav","","null","","","","","","","","","","","","","","","","","","","","","","","","","","","","","","","","","","","","","","","","","",""
"html-button-response","124","144530","0.0-4.0-1.0-1.34","3","1","wgq8yvftj94mlp8","","502.78999999864027","","What sound did you hear?","0","","","0","INDUCTION-JUDGMENT","left","1","","","","","","","","","","","","","","","","","","","","","","","","","","","","","","","","","","","","",""
"html-keyboard-response","125","145532","0.0-4.0-1.0-2.34","3","1","wgq8yvftj94mlp8","","null","","<p style=""color:red;""><b>Incorrect!</b></p>","","null","","","","","","","","","","","","","","","","","","","","","","","","","","","","","","","","","","","","","","","","","",""
"audio-keyboard-response","126","146327","0.0-4.0-1.0-0.35","3","1","wgq8yvftj94mlp8","","null","","sounds/induction/right/ko_SWS.wav","","null","","","","","","","","","","","","","","","","","","","","","","","","","","","","","","","","","","","","","","","","","",""
"html-button-response","127","146987","0.0-4.0-1.0-1.35","3","1","wgq8yvftj94mlp8","","659.6950000021025","","What sound did you hear?","0","","","1","INDUCTION-JUDGMENT","right","0","","","","","","","","","","","","","","","","","","","","","","","","","","","","","","","","","","","","",""
"html-keyboard-response","128","147988","0.0-4.0-1.0-2.35","3","1","wgq8yvftj94mlp8","","null","","<p style=""color:green;""><b>Correct!</b></p>","","null","","","","","","","","","","","","","","","","","","","","","","","","","","","","","","","","","","","","","","","","","",""
"audio-keyboard-response","129","148797","0.0-4.0-1.0-0.36","3","1","wgq8yvftj94mlp8","","null","","sounds/induction/left/fe_SWS.wav","","null","","","","","","","","","","","","","","","","","","","","","","","","","","","","","","","","","","","","","","","","","",""
"html-button-response","130","149442","0.0-4.0-1.0-1.36","3","1","wgq8yvftj94mlp8","","644.6500000020023","","What sound did you hear?","0","","","0","INDUCTION-JUDGMENT","left","1","","","","","","","","","","","","","","","","","","","","","","","","","","","","","","","","","","","","",""
"html-keyboard-response","131","150442","0.0-4.0-1.0-2.36","3","1","wgq8yvftj94mlp8","","null","","<p style=""color:red;""><b>Incorrect!</b></p>","","null","","","","","","","","","","","","","","","","","","","","","","","","","","","","","","","","","","","","","","","","","",""
"audio-keyboard-response","132","151236","0.0-4.0-1.0-0.37","3","1","wgq8yvftj94mlp8","","null","","sounds/induction/left/ru_SWS.wav","","null","","","","","","","","","","","","","","","","","","","","","","","","","","","","","","","","","","","","","","","","","",""
"html-button-response","133","151861","0.0-4.0-1.0-1.37","3","1","wgq8yvftj94mlp8","","623.7899999978254","","What sound did you hear?","0","","","1","INDUCTION-JUDGMENT","left","0","","","","","","","","","","","","","","","","","","","","","","","","","","","","","","","","","","","","",""
"html-keyboard-response","134","152862","0.0-4.0-1.0-2.37","3","1","wgq8yvftj94mlp8","","null","","<p style=""color:green;""><b>Correct!</b></p>","","null","","","","","","","","","","","","","","","","","","","","","","","","","","","","","","","","","","","","","","","","","",""
"audio-keyboard-response","135","153667","0.0-4.0-1.0-0.38","3","1","wgq8yvftj94mlp8","","null","","sounds/induction/right/ge_SWS.wav","","null","","","","","","","","","","","","","","","","","","","","","","","","","","","","","","","","","","","","","","","","","",""
"html-button-response","136","154304","0.0-4.0-1.0-1.38","3","1","wgq8yvftj94mlp8","","636.4099999991595","","What sound did you hear?","1","","","0","INDUCTION-JUDGMENT","right","0","","","","","","","","","","","","","","","","","","","","","","","","","","","","","","","","","","","","",""
"html-keyboard-response","137","155305","0.0-4.0-1.0-2.38","3","1","wgq8yvftj94mlp8","","null","","<p style=""color:red;""><b>Incorrect!</b></p>","","null","","","","","","","","","","","","","","","","","","","","","","","","","","","","","","","","","","","","","","","","","",""
"audio-keyboard-response","138","156107","0.0-4.0-1.0-0.39","3","1","wgq8yvftj94mlp8","","null","","sounds/induction/left/ti_SWS.wav","","null","","","","","","","","","","","","","","","","","","","","","","","","","","","","","","","","","","","","","","","","","",""
"html-button-response","139","156763","0.0-4.0-1.0-1.39","3","1","wgq8yvftj94mlp8","","655.9800000031828","","What sound did you hear?","0","","","1","INDUCTION-JUDGMENT","left","0","","","","","","","","","","","","","","","","","","","","","","","","","","","","","","","","","","","","",""
"html-keyboard-response","140","157764","0.0-4.0-1.0-2.39","3","1","wgq8yvftj94mlp8","","null","","<p style=""color:green;""><b>Correct!</b></p>","","null","","","","","","","","","","","","","","","","","","","","","","","","","","","","","","","","","","","","","","","","","",""
"audio-keyboard-response","141","158557","0.0-4.0-1.0-0.40","3","1","wgq8yvftj94mlp8","","null","","sounds/induction/left/me_SWS.wav","","null","","","","","","","","","","","","","","","","","","","","","","","","","","","","","","","","","","","","","","","","","",""
"html-button-response","142","159297","0.0-4.0-1.0-1.40","3","1","wgq8yvftj94mlp8","","740.1749999989988","","What sound did you hear?","1","","","1","INDUCTION-JUDGMENT","left","1","","","","","","","","","","","","","","","","","","","","","","","","","","","","","","","","","","","","",""
"html-keyboard-response","143","160299","0.0-4.0-1.0-2.40","3","1","wgq8yvftj94mlp8","","null","","<p style=""color:green;""><b>Correct!</b></p>","","null","","","","","","","","","","","","","","","","","","","","","","","","","","","","","","","","","","","","","","","","","",""
"audio-keyboard-response","144","161107","0.0-4.0-1.0-0.41","3","1","wgq8yvftj94mlp8","","null","","sounds/induction/right/re_SWS.wav","","null","","","","","","","","","","","","","","","","","","","","","","","","","","","","","","","","","","","","","","","","","",""
"html-button-response","145","161870","0.0-4.0-1.0-1.41","3","1","wgq8yvftj94mlp8","","762.2549999941839","","What sound did you hear?","1","","","1","INDUCTION-JUDGMENT","right","1","","","","","","","","","","","","","","","","","","","","","","","","","","","","","","","","","","","","",""
"html-keyboard-response","146","162871","0.0-4.0-1.0-2.41","3","1","wgq8yvftj94mlp8","","null","","<p style=""color:green;""><b>Correct!</b></p>","","null","","","","","","","","","","","","","","","","","","","","","","","","","","","","","","","","","","","","","","","","","",""
"audio-keyboard-response","147","163677","0.0-4.0-1.0-0.42","3","1","wgq8yvftj94mlp8","","null","","sounds/induction/right/me_SWS.wav","","null","","","","","","","","","","","","","","","","","","","","","","","","","","","","","","","","","","","","","","","","","",""
"html-button-response","148","164291","0.0-4.0-1.0-1.42","3","1","wgq8yvftj94mlp8","","613.6800000022049","","What sound did you hear?","0","","","1","INDUCTION-JUDGMENT","right","0","","","","","","","","","","","","","","","","","","","","","","","","","","","","","","","","","","","","",""
"html-keyboard-response","149","165293","0.0-4.0-1.0-2.42","3","1","wgq8yvftj94mlp8","","null","","<p style=""color:green;""><b>Correct!</b></p>","","null","","","","","","","","","","","","","","","","","","","","","","","","","","","","","","","","","","","","","","","","","",""
"audio-keyboard-response","150","166086","0.0-4.0-1.0-0.43","3","1","wgq8yvftj94mlp8","","null","","sounds/induction/right/ge_SWS.wav","","null","","","","","","","","","","","","","","","","","","","","","","","","","","","","","","","","","","","","","","","","","",""
"html-button-response","151","167038","0.0-4.0-1.0-1.43","3","1","wgq8yvftj94mlp8","","951.6599999988102","","What sound did you hear?","0","","","1","INDUCTION-JUDGMENT","right","0","","","","","","","","","","","","","","","","","","","","","","","","","","","","","","","","","","","","",""
"html-keyboard-response","152","168040","0.0-4.0-1.0-2.43","3","1","wgq8yvftj94mlp8","","null","","<p style=""color:green;""><b>Correct!</b></p>","","null","","","","","","","","","","","","","","","","","","","","","","","","","","","","","","","","","","","","","","","","","",""
"audio-keyboard-response","153","168837","0.0-4.0-1.0-0.44","3","1","wgq8yvftj94mlp8","","null","","sounds/induction/left/ta_SWS.wav","","null","","","","","","","","","","","","","","","","","","","","","","","","","","","","","","","","","","","","","","","","","",""
"html-button-response","154","169842","0.0-4.0-1.0-1.44","3","1","wgq8yvftj94mlp8","","1004.4199999974808","","What sound did you hear?","0","","","1","INDUCTION-JUDGMENT","left","0","","","","","","","","","","","","","","","","","","","","","","","","","","","","","","","","","","","","",""
"html-keyboard-response","155","170842","0.0-4.0-1.0-2.44","3","1","wgq8yvftj94mlp8","","null","","<p style=""color:green;""><b>Correct!</b></p>","","null","","","","","","","","","","","","","","","","","","","","","","","","","","","","","","","","","","","","","","","","","",""
"audio-keyboard-response","156","171637","0.0-4.0-1.0-0.45","3","1","wgq8yvftj94mlp8","","null","","sounds/induction/left/ta_SWS.wav","","null","","","","","","","","","","","","","","","","","","","","","","","","","","","","","","","","","","","","","","","","","",""
"html-button-response","157","172661","0.0-4.0-1.0-1.45","3","1","wgq8yvftj94mlp8","","1023.8900000040303","","What sound did you hear?","0","","","1","INDUCTION-JUDGMENT","left","0","","","","","","","","","","","","","","","","","","","","","","","","","","","","","","","","","","","","",""
"html-keyboard-response","158","173662","0.0-4.0-1.0-2.45","3","1","wgq8yvftj94mlp8","","null","","<p style=""color:green;""><b>Correct!</b></p>","","null","","","","","","","","","","","","","","","","","","","","","","","","","","","","","","","","","","","","","","","","","",""
"audio-keyboard-response","159","174466","0.0-4.0-1.0-0.46","3","1","wgq8yvftj94mlp8","","null","","sounds/induction/right/ko_SWS.wav","","null","","","","","","","","","","","","","","","","","","","","","","","","","","","","","","","","","","","","","","","","","",""
"html-button-response","160","174977","0.0-4.0-1.0-1.46","3","1","wgq8yvftj94mlp8","","510.3349999990314","","What sound did you hear?","1","","","0","INDUCTION-JUDGMENT","right","0","","","","","","","","","","","","","","","","","","","","","","","","","","","","","","","","","","","","",""
"html-keyboard-response","161","175978","0.0-4.0-1.0-2.46","3","1","wgq8yvftj94mlp8","","null","","<p style=""color:red;""><b>Incorrect!</b></p>","","null","","","","","","","","","","","","","","","","","","","","","","","","","","","","","","","","","","","","","","","","","",""
"audio-keyboard-response","162","176786","0.0-4.0-1.0-0.47","3","1","wgq8yvftj94mlp8","","null","","sounds/induction/right/ti_SWS.wav","","null","","","","","","","","","","","","","","","","","","","","","","","","","","","","","","","","","","","","","","","","","",""
"html-button-response","163","177937","0.0-4.0-1.0-1.47","3","1","wgq8yvftj94mlp8","","1150.0149999992573","","What sound did you hear?","1","","","1","INDUCTION-JUDGMENT","right","1","","","","","","","","","","","","","","","","","","","","","","","","","","","","","","","","","","","","",""
"html-keyboard-response","164","178938","0.0-4.0-1.0-2.47","3","1","wgq8yvftj94mlp8","","null","","<p style=""color:green;""><b>Correct!</b></p>","","null","","","","","","","","","","","","","","","","","","","","","","","","","","","","","","","","","","","","","","","","","",""
"html-button-response","165","184975","0.0-5.0-0.0","3","1","wgq8yvftj94mlp8","","5535.98499999498","","<p>Thank you for your answers.</p><p>You will now listen to similar sounds. The main difference is that the sounds will be longer and will make up complete sentences.</p><p>Please listen carefully to each sentence. After each sentence, you will be asked to type back what you heard to the best of your ability. After you provide your response, you will be given feedback about the correct answer.</p><p>There are 10 sentences in total.","0","","","","","","","","","","","","","","","","","","","","","","","","","","","","","","","","","","","","","","","","","","",""
"audio-keyboard-response","166","187797","0.0-5.0-1.0-0.0","3","1","wgq8yvftj94mlp8","","null","","sounds/sentences/left/14_02_cfSWS.wav","","null","","","","","","","","","","","","","","","","","","","","","","","","","","","","","","","","","","","","","","","","","",""
"sentence-resp","167","201385","0.0-5.0-1.0-1.0","3","1","wgq8yvftj94mlp8","","13588","","","","","","","SWS-SENT-RESPONSE","","","{""Q0"":""rueeruooorreereree""}","He said the same phrase thirty times.","said,same,phrase,thirty,times","RUEERUOOORREEREREE","0","0","0","0","0","0","0","","","","","","","","","","","","","","","","","","","","","","","","","",""
"html-keyboard-response","168","202638","0.0-5.0-1.0-2.0","3","1","wgq8yvftj94mlp8","","null","","","","null","","","","","","","","","","","","","","","","","","","","","","","","","","","","","","","","","","","","","","","","","",""
"audio-keyboard-response","169","204957","0.0-5.0-1.0-3.0","3","1","wgq8yvftj94mlp8","","null","","sounds/sentences/left/14_02_cfSWS.wav","","null","","","","","","","","","","","","","","","","","","","","","","","","","","","","","","","","","","","","","","","","","",""
"html-keyboard-response","170","205958","0.0-5.0-1.0-4.0","3","1","wgq8yvftj94mlp8","","null","","","","null","","","","","","","","","","","","","","","","","","","","","","","","","","","","","","","","","","","","","","","","","",""
"html-button-response","171","207215","0.0-5.0-1.0-5.0","3","1","wgq8yvftj94mlp8","","756.2350000007427","","<p>Press the button below when you are ready to continue.</p>","0","","","","","","","","","","","","","","","","","","","","","","","","","","","","","","","","","","","","","","","","","","",""
"audio-keyboard-response","172","209966","0.0-5.0-1.0-0.1","3","1","wgq8yvftj94mlp8","","null","","sounds/sentences/right/14_08_cfSWS.wav","","null","","","","","","","","","","","","","","","","","","","","","","","","","","","","","","","","","","","","","","","","","",""
"sentence-resp","173","231011","0.0-5.0-1.0-1.1","3","1","wgq8yvftj94mlp8","","21044","","","","","","","SWS-SENT-RESPONSE","","","{""Q0"":""he went to swim in the goo""}","Clothes and lodging are free to new men.","clothes,lodging,free,new,men","HE WENT TO SWIM IN THE GOO","0","0","0","0","0","0","0","","","","","","","","","","","","","","","","","","","","","","","","","",""
"html-keyboard-response","174","232264","0.0-5.0-1.0-2.1","3","1","wgq8yvftj94mlp8","","null","","","","null","","","","","","","","","","","","","","","","","","","","","","","","","","","","","","","","","","","","","","","","","",""
"audio-keyboard-response","175","234517","0.0-5.0-1.0-3.1","3","1","wgq8yvftj94mlp8","","null","","sounds/sentences/right/14_08_cfSWS.wav","","null","","","","","","","","","","","","","","","","","","","","","","","","","","","","","","","","","","","","","","","","","",""
"html-keyboard-response","176","235518","0.0-5.0-1.0-4.1","3","1","wgq8yvftj94mlp8","","null","","","","null","","","","","","","","","","","","","","","","","","","","","","","","","","","","","","","","","","","","","","","","","",""
"html-button-response","177","236897","0.0-5.0-1.0-5.1","3","1","wgq8yvftj94mlp8","","878.3450000046287","","<p>Press the button below when you are ready to continue.</p>","0","","","","","","","","","","","","","","","","","","","","","","","","","","","","","","","","","","","","","","","","","","",""
"audio-keyboard-response","178","239647","0.0-5.0-1.0-0.2","3","1","wgq8yvftj94mlp8","","null","","sounds/sentences/right/14_06_cfSWS.wav","","null","","","","","","","","","","","","","","","","","","","","","","","","","","","","","","","","","","","","","","","","","",""
"sentence-resp","179","251413","0.0-5.0-1.0-1.2","3","1","wgq8yvftj94mlp8","","11765","","","","","","","SWS-SENT-RESPONSE","","","{""Q0"":""even she doesn't like cheese""}","Bring your problems to the wise chief.","bring,your,problems,wise,chief","EVEN SHE DOESN'T LIKE CHEESE","0","0","0","0","0","0","0","","","","","","","","","","","","","","","","","","","","","","","","","",""
"html-keyboard-response","180","252666","0.0-5.0-1.0-2.2","3","1","wgq8yvftj94mlp8","","null","","","","null","","","","","","","","","","","","","","","","","","","","","","","","","","","","","","","","","","","","","","","","","",""
"audio-keyboard-response","181","254907","0.0-5.0-1.0-3.2","3","1","wgq8yvftj94mlp8","","null","","sounds/sentences/right/14_06_cfSWS.wav","","null","","","","","","","","","","","","","","","","","","","","","","","","","","","","","","","","","","","","","","","","","",""
"html-keyboard-response","182","255908","0.0-5.0-1.0-4.2","3","1","wgq8yvftj94mlp8","","null","","","","null","","","","","","","","","","","","","","","","","","","","","","","","","","","","","","","","","","","","","","","","","",""
"html-button-response","183","256935","0.0-5.0-1.0-5.2","3","1","wgq8yvftj94mlp8","","525.1399999979185","","<p>Press the button below when you are ready to continue.</p>","0","","","","","","","","","","","","","","","","","","","","","","","","","","","","","","","","","","","","","","","","","","",""
"audio-keyboard-response","184","259817","0.0-5.0-1.0-0.3","3","1","wgq8yvftj94mlp8","","null","","sounds/sentences/right/14_07_cfSWS.wav","","null","","","","","","","","","","","","","","","","","","","","","","","","","","","","","","","","","","","","","","","","","",""
"sentence-resp","185","267889","0.0-5.0-1.0-1.3","3","1","wgq8yvftj94mlp8","","8072","","","","","","","SWS-SENT-RESPONSE","","","{""Q0"":""something about the friends you cherish""}","Write a fond note to the friend you cherish.","write,fond,note,friend,cherish","SOMETHING ABOUT THE FRIENDS YOU CHERISH","0","0","0","0","1","1","0.2","","","","","","","","","","","","","","","","","","","","","","","","","",""
"html-keyboard-response","186","269141","0.0-5.0-1.0-2.3","3","1","wgq8yvftj94mlp8","","null","","","","null","","","","","","","","","","","","","","","","","","","","","","","","","","","","","","","","","","","","","","","","","",""
"audio-keyboard-response","187","271527","0.0-5.0-1.0-3.3","3","1","wgq8yvftj94mlp8","","null","","sounds/sentences/right/14_07_cfSWS.wav","","null","","","","","","","","","","","","","","","","","","","","","","","","","","","","","","","","","","","","","","","","","",""
"html-keyboard-response","188","272528","0.0-5.0-1.0-4.3","3","1","wgq8yvftj94mlp8","","null","","","","null","","","","","","","","","","","","","","","","","","","","","","","","","","","","","","","","","","","","","","","","","",""
"html-button-response","189","273599","0.0-5.0-1.0-5.3","3","1","wgq8yvftj94mlp8","","570.7450000045355","","<p>Press the button below when you are ready to continue.</p>","0","","","","","","","","","","","","","","","","","","","","","","","","","","","","","","","","","","","","","","","","","","",""
"audio-keyboard-response","190","276327","0.0-5.0-1.0-0.4","3","1","wgq8yvftj94mlp8","","null","","sounds/sentences/right/14_09_cfSWS.wav","","null","","","","","","","","","","","","","","","","","","","","","","","","","","","","","","","","","","","","","","","","","",""
"sentence-resp","191","287361","0.0-5.0-1.0-1.4","3","1","wgq8yvftj94mlp8","","11033","","","","","","","SWS-SENT-RESPONSE","","","{""Q0"":""we found squid and strawberry tree""}","We frown when events take a bad turn.","frown,events,take,bad,turn","WE FOUND SQUID AND STRAWBERRY TREE","0","0","0","0","0","0","0","","","","","","","","","","","","","","","","","","","","","","","","","",""
"html-keyboard-response","192","288613","0.0-5.0-1.0-2.4","3","1","wgq8yvftj94mlp8","","null","","","","null","","","","","","","","","","","","","","","","","","","","","","","","","","","","","","","","","","","","","","","","","",""
"audio-keyboard-response","193","290836","0.0-5.0-1.0-3.4","3","1","wgq8yvftj94mlp8","","null","","sounds/sentences/right/14_09_cfSWS.wav","","null","","","","","","","","","","","","","","","","","","","","","","","","","","","","","","","","","","","","","","","","","",""
"html-keyboard-response","194","291837","0.0-5.0-1.0-4.4","3","1","wgq8yvftj94mlp8","","null","","","","null","","","","","","","","","","","","","","","","","","","","","","","","","","","","","","","","","","","","","","","","","",""
"html-button-response","195","292876","0.0-5.0-1.0-5.4","3","1","wgq8yvftj94mlp8","","537.5300000014249","","<p>Press the button below when you are ready to continue.</p>","0","","","","","","","","","","","","","","","","","","","","","","","","","","","","","","","","","","","","","","","","","","",""
"audio-keyboard-response","196","295436","0.0-5.0-1.0-0.5","3","1","wgq8yvftj94mlp8","","null","","sounds/sentences/left/14_04_cfSWS.wav","","null","","","","","","","","","","","","","","","","","","","","","","","","","","","","","","","","","","","","","","","","","",""
"sentence-resp","197","331547","0.0-5.0-1.0-1.5","3","1","wgq8yvftj94mlp8","","36110","","","","","","","SWS-SENT-RESPONSE","","","{""Q0"":""we reap go in shoe""}","Two plus seven is less than ten.","two,plus,seven,less,ten","WE REAP GO IN SHOE","0","0","0","0","0","0","0","","","","","","","","","","","","","","","","","","","","","","","","","",""
"html-keyboard-response","198","332800","0.0-5.0-1.0-2.5","3","1","wgq8yvftj94mlp8","","null","","","","null","","","","","","","","","","","","","","","","","","","","","","","","","","","","","","","","","","","","","","","","","",""
"audio-keyboard-response","199","334881","0.0-5.0-1.0-3.5","3","1","wgq8yvftj94mlp8","","null","","sounds/sentences/left/14_04_cfSWS.wav","","null","","","","","","","","","","","","","","","","","","","","","","","","","","","","","","","","","","","","","","","","","",""
"html-keyboard-response","200","335882","0.0-5.0-1.0-4.5","3","1","wgq8yvftj94mlp8","","null","","","","null","","","","","","","","","","","","","","","","","","","","","","","","","","","","","","","","","","","","","","","","","",""
"html-button-response","201","337277","0.0-5.0-1.0-5.5","3","1","wgq8yvftj94mlp8","","894.3600000056904","","<p>Press the button below when you are ready to continue.</p>","0","","","","","","","","","","","","","","","","","","","","","","","","","","","","","","","","","","","","","","","","","","",""
"audio-keyboard-response","202","340261","0.0-5.0-1.0-0.6","3","1","wgq8yvftj94mlp8","","null","","sounds/sentences/left/14_05_cfSWS.wav","","null","","","","","","","","","","","","","","","","","","","","","","","","","","","","","","","","","","","","","","","","","",""
"sentence-resp","203","348555","0.0-5.0-1.0-1.6","3","1","wgq8yvftj94mlp8","","8292","","","","","","","SWS-SENT-RESPONSE","","","{""Q0"":""samantha is such a sweet girl""}","The glow deepened in the eyes of the sweet girl.","glow,deepened,eyes,sweet,girl","SAMANTHA IS SUCH A SWEET GIRL","0","0","0","1","1","2","0.4","","","","","","","","","","","","","","","","","","","","","","","","","",""
"html-keyboard-response","204","349807","0.0-5.0-1.0-2.6","3","1","wgq8yvftj94mlp8","","null","","","","null","","","","","","","","","","","","","","","","","","","","","","","","","","","","","","","","","","","","","","","","","",""
"audio-keyboard-response","205","352290","0.0-5.0-1.0-3.6","3","1","wgq8yvftj94mlp8","","null","","sounds/sentences/left/14_05_cfSWS.wav","","null","","","","","","","","","","","","","","","","","","","","","","","","","","","","","","","","","","","","","","","","","",""
"html-keyboard-response","206","353292","0.0-5.0-1.0-4.6","3","1","wgq8yvftj94mlp8","","null","","","","null","","","","","","","","","","","","","","","","","","","","","","","","","","","","","","","","","","","","","","","","","",""
"html-button-response","207","354397","0.0-5.0-1.0-5.6","3","1","wgq8yvftj94mlp8","","604.5299999968847","","<p>Press the button below when you are ready to continue.</p>","0","","","","","","","","","","","","","","","","","","","","","","","","","","","","","","","","","","","","","","","","","","",""
"audio-keyboard-response","208","357511","0.0-5.0-1.0-0.7","3","1","wgq8yvftj94mlp8","","null","","sounds/sentences/left/14_01_cfSWS.wav","","null","","","","","","","","","","","","","","","","","","","","","","","","","","","","","","","","","","","","","","","","","",""
"sentence-resp","209","373533","0.0-5.0-1.0-1.7","3","1","wgq8yvftj94mlp8","","16022","","","","","","","SWS-SENT-RESPONSE","","","{""Q0"":""the crab is real small compared to the fish""}","A cramp is no small danger on a swim.","cramp,no,small,danger,swim","THE CRAB IS REAL SMALL COMPARED TO THE FISH","0","0","1","0","0","1","0.2","","","","","","","","","","","","","","","","","","","","","","","","","",""
"html-keyboard-response","210","374785","0.0-5.0-1.0-2.7","3","1","wgq8yvftj94mlp8","","null","","","","null","","","","","","","","","","","","","","","","","","","","","","","","","","","","","","","","","","","","","","","","","",""
"audio-keyboard-response","211","377401","0.0-5.0-1.0-3.7","3","1","wgq8yvftj94mlp8","","null","","sounds/sentences/left/14_01_cfSWS.wav","","null","","","","","","","","","","","","","","","","","","","","","","","","","","","","","","","","","","","","","","","","","",""
"html-keyboard-response","212","378402","0.0-5.0-1.0-4.7","3","1","wgq8yvftj94mlp8","","null","","","","null","","","","","","","","","","","","","","","","","","","","","","","","","","","","","","","","","","","","","","","","","",""
"html-button-response","213","379442","0.0-5.0-1.0-5.7","3","1","wgq8yvftj94mlp8","","539.3200000034994","","<p>Press the button below when you are ready to continue.</p>","0","","","","","","","","","","","","","","","","","","","","","","","","","","","","","","","","","","","","","","","","","","",""
"audio-keyboard-response","214","382030","0.0-5.0-1.0-0.8","3","1","wgq8yvftj94mlp8","","null","","sounds/sentences/left/14_03_cfSWS.wav","","null","","","","","","","","","","","","","","","","","","","","","","","","","","","","","","","","","","","","","","","","","",""
"sentence-resp","215","388197","0.0-5.0-1.0-1.8","3","1","wgq8yvftj94mlp8","","6166","","","","","","","SWS-SENT-RESPONSE","","","{""Q0"":""back to back without lease""}","Pluck the bright rose without leaves.","pluck,bright,rose,without,leaves","BACK TO BACK WITHOUT LEASE","0","0","0","1","0","1","0.2","","","","","","","","","","","","","","","","","","","","","","","","","",""
"html-keyboard-response","216","389449","0.0-5.0-1.0-2.8","3","1","wgq8yvftj94mlp8","","null","","","","null","","","","","","","","","","","","","","","","","","","","","","","","","","","","","","","","","","","","","","","","","",""
"audio-keyboard-response","217","391530","0.0-5.0-1.0-3.8","3","1","wgq8yvftj94mlp8","","null","","sounds/sentences/left/14_03_cfSWS.wav","","null","","","","","","","","","","","","","","","","","","","","","","","","","","","","","","","","","","","","","","","","","",""
"html-keyboard-response","218","392531","0.0-5.0-1.0-4.8","3","1","wgq8yvftj94mlp8","","null","","","","null","","","","","","","","","","","","","","","","","","","","","","","","","","","","","","","","","","","","","","","","","",""
"html-button-response","219","393471","0.0-5.0-1.0-5.8","3","1","wgq8yvftj94mlp8","","439.40000000293367","","<p>Press the button below when you are ready to continue.</p>","0","","","","","","","","","","","","","","","","","","","","","","","","","","","","","","","","","","","","","","","","","","",""
"audio-keyboard-response","220","396490","0.0-5.0-1.0-0.9","3","1","wgq8yvftj94mlp8","","null","","sounds/sentences/right/14_10_cfSWS.wav","","null","","","","","","","","","","","","","","","","","","","","","","","","","","","","","","","","","","","","","","","","","",""
"sentence-resp","221","406430","0.0-5.0-1.0-1.9","3","1","wgq8yvftj94mlp8","","9939","","","","","","","SWS-SENT-RESPONSE","","","{""Q0"":""sorry the strong line with a smokey taste""}","Port is a strong wine with a smoky taste.","port,strong,wine,smoky,taste","SORRY THE STRONG LINE WITH A SMOKEY TASTE","0","1","0","0","1","2","0.4","","","","","","","","","","","","","","","","","","","","","","","","","",""
"html-keyboard-response","222","407682","0.0-5.0-1.0-2.9","3","1","wgq8yvftj94mlp8","","null","","","","null","","","","","","","","","","","","","","","","","","","","","","","","","","","","","","","","","","","","","","","","","",""
"audio-keyboard-response","223","410201","0.0-5.0-1.0-3.9","3","1","wgq8yvftj94mlp8","","null","","sounds/sentences/right/14_10_cfSWS.wav","","null","","","","","","","","","","","","","","","","","","","","","","","","","","","","","","","","","","","","","","","","","",""
"html-keyboard-response","224","411202","0.0-5.0-1.0-4.9","3","1","wgq8yvftj94mlp8","","null","","","","null","","","","","","","","","","","","","","","","","","","","","","","","","","","","","","","","","","","","","","","","","",""
"html-button-response","225","412531","0.0-5.0-1.0-5.9","3","1","wgq8yvftj94mlp8","","827.6100000002771","","<p>Press the button below when you are ready to continue.</p>","0","","","","","","","","","","","","","","","","","","","","","","","","","","","","","","","","","","","","","","","","","","",""
"html-keyboard-response","226","429480","0.0-6.0-0.0","3","1","wgq8yvftj94mlp8","","16447.26499999524","","<p>In this part of the study, you will hear sounds similar to those you just heard.</p><p>Please focus on these sounds, as you may be asked questions about them later.</p><p>Occasionally, the sounds will pause for up to two seconds. When this happens, please press SPACEBAR as quickly as you can.</br>This helps ensure that you are paying attention to the sounds.</p><p>This part of the study will take about 12 minutes to complete, and you will be given the opportunity to take a couple of short breaks every few minutes.</p><p><strong>Press SPACEBAR to begin</strong></p>","","32","","","","","","","","","","","","","","","","","","","","","","","","","","","","","","","","","","","","","","","","","",""
"html-keyboard-response","227","430481","0.0-6.0-1.0-0.0","3","1","wgq8yvftj94mlp8","","null","","<p style=""font-size: 40px;"">+</p>","","null","","","","","","","","","","","","","","","","","","","","","","","","","","","","","","","","","","","","","","","","","",""
"html-keyboard-response","228","615488","0.0-6.0-1.0-1.0","3","1","wgq8yvftj94mlp8","","null","","","","null","","","SL-TRAIN","","","","","","","","","","","","","","0","1118.545000004815","846.7799999998533","sounds/C/TRAIN/SEQ__01.mp3","4","","","","","","","","","","","","","","","","","","","","",""
"html-button-response","229","618388","0.0-6.0-1.0-2.0","3","1","wgq8yvftj94mlp8","","2898.430000001099","","<p>You may take a short break if you wish.</p>","0","","","","","","","","","","","","","","","","","","","","","","","","","","","","","","","","","","","","","","","","","","",""
"html-keyboard-response","230","619389","0.0-6.0-1.0-3.0","3","1","wgq8yvftj94mlp8","","null","","<p style=""font-size: 40px;"">+</p>","","null","","","","","","","","","","","","","","","","","","","","","","","","","","","","","","","","","","","","","","","","","",""
"html-keyboard-response","231","804392","0.0-6.0-1.0-4.0","3","1","wgq8yvftj94mlp8","","null","","","","null","","","SL-TRAIN","","","","","","","","","","","","","","0","1159.8850000009406","1601.4599999981","sounds/C/TRAIN/SEQ__11.mp3","9","","","","","","","","","","","","","","","","","","","","",""
"html-button-response","232","806708","0.0-6.0-1.0-5.0","3","1","wgq8yvftj94mlp8","","2314.4600000013597","","<p>You may take a short break if you wish.</p>","0","","","","","","","","","","","","","","","","","","","","","","","","","","","","","","","","","","","","","","","","","","",""
"html-keyboard-response","233","807708","0.0-6.0-1.0-6.0","3","1","wgq8yvftj94mlp8","","null","","<p style=""font-size: 40px;"">+</p>","","null","","","","","","","","","","","","","","","","","","","","","","","","","","","","","","","","","","","","","","","","","",""
"html-keyboard-response","234","992710","0.0-6.0-1.0-7.0","3","1","wgq8yvftj94mlp8","","null","","","","null","","","SL-TRAIN","","","","","","","","","","","","","","0","976.5499999993481","825.6099999998696","sounds/C/TRAIN/SEQ__09.mp3","18","","","","","","","","","","","","","","","","","","","","",""
"html-button-response","235","994866","0.0-6.0-1.0-8.0","3","1","wgq8yvftj94mlp8","","2155.0500000012107","","<p>You may take a short break if you wish.</p>","0","","","","","","","","","","","","","","","","","","","","","","","","","","","","","","","","","","","","","","","","","","",""
"html-keyboard-response","236","995867","0.0-6.0-1.0-9.0","3","1","wgq8yvftj94mlp8","","null","","<p style=""font-size: 40px;"">+</p>","","null","","","","","","","","","","","","","","","","","","","","","","","","","","","","","","","","","","","","","","","","","",""
"html-keyboard-response","237","1180869","0.0-6.0-1.0-10.0","3","1","wgq8yvftj94mlp8","","null","","","","null","","","SL-TRAIN","","","","","","","","","","","","","","0","1957.940000000177","1528.214999998454","sounds/C/TRAIN/SEQ__06.mp3","34","","","","","","","","","","","","","","","","","","","","",""
"html-button-response","238","1182783","0.0-6.0-1.0-11.0","3","1","wgq8yvftj94mlp8","","1913.4499999999534","","<p>You may take a short break if you wish.</p>","0","","","","","","","","","","","","","","","","","","","","","","","","","","","","","","","","","","","","","","","","","","",""
"html-button-response","239","1186321","0.0-7.0-0.0","3","1","wgq8yvftj94mlp8","","3536.7499999993015","","<p>Welcome to the second part of the study. This is a <u>familiarity task</u>.</p><p>You will now hear short sounds and will be asked to rate how familiar they sound to you <b>based on what you heard in the previous part of the study</b>.</p><p>You will rate 12 sounds in total.</p>","0","","","","","","","","","","","","","","","","","","","","","","","","","","","","","","","","","","","","","","","","","","",""
"html-keyboard-response","240","1187323","0.0-7.0-1.0-0.0","3","1","wgq8yvftj94mlp8","","null","","","","null","","","","","","","","","","","","","","","","","","","","","","","","","","","","","","","","","","","","","","","","","",""
"audio-keyboard-response","241","1188281","0.0-7.0-1.0-1.0","3","1","wgq8yvftj94mlp8","","null","","sounds/C/FAM/N004.mp3","","null","","","","","","","","","","","","","","","","","","","","","","","","","","","","","","","","","","","","","","","","","",""
"html-keyboard-response","242","1190951","0.0-7.0-1.0-2.0","3","1","wgq8yvftj94mlp8","","2168.5299999953713","","<p>How familiar did this sound to you?</p><p>1&nbsp;&nbsp;&nbsp;&nbsp;&nbsp;&nbsp;&nbsp;&nbsp;&nbsp;&nbsp;&nbsp;&nbsp;&nbsp;&nbsp;&nbsp;&nbsp;&nbsp;&nbsp;&nbsp;2&nbsp;&nbsp;&nbsp;&nbsp;&nbsp;&nbsp;&nbsp;&nbsp;&nbsp;&nbsp;&nbsp;&nbsp;&nbsp;&nbsp;&nbsp;&nbsp;&nbsp;&nbsp;&nbsp;3&nbsp;&nbsp;&nbsp;&nbsp;&nbsp;&nbsp;&nbsp;&nbsp;&nbsp;&nbsp;&nbsp;&nbsp;&nbsp;&nbsp;&nbsp;&nbsp;&nbsp;&nbsp;&nbsp;4</p><p style=""font-size:14px"">Not at all familiar&nbsp;&nbsp;&nbsp;&nbsp;A little familiar&nbsp;&nbsp;&nbsp;Moderately familiar&nbsp;&nbsp;&nbsp;Extremely familiar</p><p>(press the corresponding number on your keyboard)</p>","","52","","","FAM-RESPONSE","","","","","","","","","","","","","","","","","","","sounds/C/FAM/N004.mp3","nonword","","","","","","","","","","","","","","","","","","",""
"html-keyboard-response","243","1192951","0.0-7.0-1.0-0.1","3","1","wgq8yvftj94mlp8","","null","","","","null","","","","","","","","","","","","","","","","","","","","","","","","","","","","","","","","","","","","","","","","","",""
"audio-keyboard-response","244","1193891","0.0-7.0-1.0-1.1","3","1","wgq8yvftj94mlp8","","null","","sounds/C/FAM/N002.mp3","","null","","","","","","","","","","","","","","","","","","","","","","","","","","","","","","","","","","","","","","","","","",""
"html-keyboard-response","245","1196666","0.0-7.0-1.0-2.1","3","1","wgq8yvftj94mlp8","","2273.694999996107","","<p>How familiar did this sound to you?</p><p>1&nbsp;&nbsp;&nbsp;&nbsp;&nbsp;&nbsp;&nbsp;&nbsp;&nbsp;&nbsp;&nbsp;&nbsp;&nbsp;&nbsp;&nbsp;&nbsp;&nbsp;&nbsp;&nbsp;2&nbsp;&nbsp;&nbsp;&nbsp;&nbsp;&nbsp;&nbsp;&nbsp;&nbsp;&nbsp;&nbsp;&nbsp;&nbsp;&nbsp;&nbsp;&nbsp;&nbsp;&nbsp;&nbsp;3&nbsp;&nbsp;&nbsp;&nbsp;&nbsp;&nbsp;&nbsp;&nbsp;&nbsp;&nbsp;&nbsp;&nbsp;&nbsp;&nbsp;&nbsp;&nbsp;&nbsp;&nbsp;&nbsp;4</p><p style=""font-size:14px"">Not at all familiar&nbsp;&nbsp;&nbsp;&nbsp;A little familiar&nbsp;&nbsp;&nbsp;Moderately familiar&nbsp;&nbsp;&nbsp;Extremely familiar</p><p>(press the corresponding number on your keyboard)</p>","","51","","","FAM-RESPONSE","","","","","","","","","","","","","","","","","","","sounds/C/FAM/N002.mp3","nonword","","","","","","","","","","","","","","","","","","",""
"html-keyboard-response","246","1198667","0.0-7.0-1.0-0.2","3","1","wgq8yvftj94mlp8","","null","","","","null","","","","","","","","","","","","","","","","","","","","","","","","","","","","","","","","","","","","","","","","","",""
"audio-keyboard-response","247","1199611","0.0-7.0-1.0-1.2","3","1","wgq8yvftj94mlp8","","null","","sounds/C/FAM/W002.mp3","","null","","","","","","","","","","","","","","","","","","","","","","","","","","","","","","","","","","","","","","","","","",""
"html-keyboard-response","248","1201056","0.0-7.0-1.0-2.2","3","1","wgq8yvftj94mlp8","","943.715000001248","","<p>How familiar did this sound to you?</p><p>1&nbsp;&nbsp;&nbsp;&nbsp;&nbsp;&nbsp;&nbsp;&nbsp;&nbsp;&nbsp;&nbsp;&nbsp;&nbsp;&nbsp;&nbsp;&nbsp;&nbsp;&nbsp;&nbsp;2&nbsp;&nbsp;&nbsp;&nbsp;&nbsp;&nbsp;&nbsp;&nbsp;&nbsp;&nbsp;&nbsp;&nbsp;&nbsp;&nbsp;&nbsp;&nbsp;&nbsp;&nbsp;&nbsp;3&nbsp;&nbsp;&nbsp;&nbsp;&nbsp;&nbsp;&nbsp;&nbsp;&nbsp;&nbsp;&nbsp;&nbsp;&nbsp;&nbsp;&nbsp;&nbsp;&nbsp;&nbsp;&nbsp;4</p><p style=""font-size:14px"">Not at all familiar&nbsp;&nbsp;&nbsp;&nbsp;A little familiar&nbsp;&nbsp;&nbsp;Moderately familiar&nbsp;&nbsp;&nbsp;Extremely familiar</p><p>(press the corresponding number on your keyboard)</p>","","52","","","FAM-RESPONSE","","","","","","","","","","","","","","","","","","","sounds/C/FAM/W002.mp3","word","","","","","","","","","","","","","","","","","","",""
"html-keyboard-response","249","1203058","0.0-7.0-1.0-0.3","3","1","wgq8yvftj94mlp8","","null","","","","null","","","","","","","","","","","","","","","","","","","","","","","","","","","","","","","","","","","","","","","","","",""
"audio-keyboard-response","250","1204001","0.0-7.0-1.0-1.3","3","1","wgq8yvftj94mlp8","","null","","sounds/C/FAM/W001.mp3","","null","","","","","","","","","","","","","","","","","","","","","","","","","","","","","","","","","","","","","","","","","",""
"html-keyboard-response","251","1205817","0.0-7.0-1.0-2.3","3","1","wgq8yvftj94mlp8","","1314.5250000015367","","<p>How familiar did this sound to you?</p><p>1&nbsp;&nbsp;&nbsp;&nbsp;&nbsp;&nbsp;&nbsp;&nbsp;&nbsp;&nbsp;&nbsp;&nbsp;&nbsp;&nbsp;&nbsp;&nbsp;&nbsp;&nbsp;&nbsp;2&nbsp;&nbsp;&nbsp;&nbsp;&nbsp;&nbsp;&nbsp;&nbsp;&nbsp;&nbsp;&nbsp;&nbsp;&nbsp;&nbsp;&nbsp;&nbsp;&nbsp;&nbsp;&nbsp;3&nbsp;&nbsp;&nbsp;&nbsp;&nbsp;&nbsp;&nbsp;&nbsp;&nbsp;&nbsp;&nbsp;&nbsp;&nbsp;&nbsp;&nbsp;&nbsp;&nbsp;&nbsp;&nbsp;4</p><p style=""font-size:14px"">Not at all familiar&nbsp;&nbsp;&nbsp;&nbsp;A little familiar&nbsp;&nbsp;&nbsp;Moderately familiar&nbsp;&nbsp;&nbsp;Extremely familiar</p><p>(press the corresponding number on your keyboard)</p>","","52","","","FAM-RESPONSE","","","","","","","","","","","","","","","","","","","sounds/C/FAM/W001.mp3","word","","","","","","","","","","","","","","","","","","",""
"html-keyboard-response","252","1207818","0.0-7.0-1.0-0.4","3","1","wgq8yvftj94mlp8","","null","","","","null","","","","","","","","","","","","","","","","","","","","","","","","","","","","","","","","","","","","","","","","","",""
"audio-keyboard-response","253","1208761","0.0-7.0-1.0-1.4","3","1","wgq8yvftj94mlp8","","null","","sounds/C/FAM/W003.mp3","","null","","","","","","","","","","","","","","","","","","","","","","","","","","","","","","","","","","","","","","","","","",""
"html-keyboard-response","254","1211215","0.0-7.0-1.0-2.4","3","1","wgq8yvftj94mlp8","","1953.300000000978","","<p>How familiar did this sound to you?</p><p>1&nbsp;&nbsp;&nbsp;&nbsp;&nbsp;&nbsp;&nbsp;&nbsp;&nbsp;&nbsp;&nbsp;&nbsp;&nbsp;&nbsp;&nbsp;&nbsp;&nbsp;&nbsp;&nbsp;2&nbsp;&nbsp;&nbsp;&nbsp;&nbsp;&nbsp;&nbsp;&nbsp;&nbsp;&nbsp;&nbsp;&nbsp;&nbsp;&nbsp;&nbsp;&nbsp;&nbsp;&nbsp;&nbsp;3&nbsp;&nbsp;&nbsp;&nbsp;&nbsp;&nbsp;&nbsp;&nbsp;&nbsp;&nbsp;&nbsp;&nbsp;&nbsp;&nbsp;&nbsp;&nbsp;&nbsp;&nbsp;&nbsp;4</p><p style=""font-size:14px"">Not at all familiar&nbsp;&nbsp;&nbsp;&nbsp;A little familiar&nbsp;&nbsp;&nbsp;Moderately familiar&nbsp;&nbsp;&nbsp;Extremely familiar</p><p>(press the corresponding number on your keyboard)</p>","","51","","","FAM-RESPONSE","","","","","","","","","","","","","","","","","","","sounds/C/FAM/W003.mp3","word","","","","","","","","","","","","","","","","","","",""
"html-keyboard-response","255","1213217","0.0-7.0-1.0-0.5","3","1","wgq8yvftj94mlp8","","null","","","","null","","","","","","","","","","","","","","","","","","","","","","","","","","","","","","","","","","","","","","","","","",""
"audio-keyboard-response","256","1214161","0.0-7.0-1.0-1.5","3","1","wgq8yvftj94mlp8","","null","","sounds/C/FAM/N001.mp3","","null","","","","","","","","","","","","","","","","","","","","","","","","","","","","","","","","","","","","","","","","","",""
"html-keyboard-response","257","1214917","0.0-7.0-1.0-2.5","3","1","wgq8yvftj94mlp8","","255.1999999997206","","<p>How familiar did this sound to you?</p><p>1&nbsp;&nbsp;&nbsp;&nbsp;&nbsp;&nbsp;&nbsp;&nbsp;&nbsp;&nbsp;&nbsp;&nbsp;&nbsp;&nbsp;&nbsp;&nbsp;&nbsp;&nbsp;&nbsp;2&nbsp;&nbsp;&nbsp;&nbsp;&nbsp;&nbsp;&nbsp;&nbsp;&nbsp;&nbsp;&nbsp;&nbsp;&nbsp;&nbsp;&nbsp;&nbsp;&nbsp;&nbsp;&nbsp;3&nbsp;&nbsp;&nbsp;&nbsp;&nbsp;&nbsp;&nbsp;&nbsp;&nbsp;&nbsp;&nbsp;&nbsp;&nbsp;&nbsp;&nbsp;&nbsp;&nbsp;&nbsp;&nbsp;4</p><p style=""font-size:14px"">Not at all familiar&nbsp;&nbsp;&nbsp;&nbsp;A little familiar&nbsp;&nbsp;&nbsp;Moderately familiar&nbsp;&nbsp;&nbsp;Extremely familiar</p><p>(press the corresponding number on your keyboard)</p>","","52","","","FAM-RESPONSE","","","","","","","","","","","","","","","","","","","sounds/C/FAM/N001.mp3","nonword","","","","","","","","","","","","","","","","","","",""
"html-keyboard-response","258","1216919","0.0-7.0-1.0-0.6","3","1","wgq8yvftj94mlp8","","null","","","","null","","","","","","","","","","","","","","","","","","","","","","","","","","","","","","","","","","","","","","","","","",""
"audio-keyboard-response","259","1217851","0.0-7.0-1.0-1.6","3","1","wgq8yvftj94mlp8","","null","","sounds/C/FAM/P001.mp3","","null","","","","","","","","","","","","","","","","","","","","","","","","","","","","","","","","","","","","","","","","","",""
"html-keyboard-response","260","1220385","0.0-7.0-1.0-2.6","3","1","wgq8yvftj94mlp8","","2033.4999999979045","","<p>How familiar did this sound to you?</p><p>1&nbsp;&nbsp;&nbsp;&nbsp;&nbsp;&nbsp;&nbsp;&nbsp;&nbsp;&nbsp;&nbsp;&nbsp;&nbsp;&nbsp;&nbsp;&nbsp;&nbsp;&nbsp;&nbsp;2&nbsp;&nbsp;&nbsp;&nbsp;&nbsp;&nbsp;&nbsp;&nbsp;&nbsp;&nbsp;&nbsp;&nbsp;&nbsp;&nbsp;&nbsp;&nbsp;&nbsp;&nbsp;&nbsp;3&nbsp;&nbsp;&nbsp;&nbsp;&nbsp;&nbsp;&nbsp;&nbsp;&nbsp;&nbsp;&nbsp;&nbsp;&nbsp;&nbsp;&nbsp;&nbsp;&nbsp;&nbsp;&nbsp;4</p><p style=""font-size:14px"">Not at all familiar&nbsp;&nbsp;&nbsp;&nbsp;A little familiar&nbsp;&nbsp;&nbsp;Moderately familiar&nbsp;&nbsp;&nbsp;Extremely familiar</p><p>(press the corresponding number on your keyboard)</p>","","49","","","FAM-RESPONSE","","","","","","","","","","","","","","","","","","","sounds/C/FAM/P001.mp3","partword","","","","","","","","","","","","","","","","","","",""
"html-keyboard-response","261","1222388","0.0-7.0-1.0-0.7","3","1","wgq8yvftj94mlp8","","null","","","","null","","","","","","","","","","","","","","","","","","","","","","","","","","","","","","","","","","","","","","","","","",""
"audio-keyboard-response","262","1223331","0.0-7.0-1.0-1.7","3","1","wgq8yvftj94mlp8","","null","","sounds/C/FAM/P003.mp3","","null","","","","","","","","","","","","","","","","","","","","","","","","","","","","","","","","","","","","","","","","","",""
"html-keyboard-response","263","1225590","0.0-7.0-1.0-2.7","3","1","wgq8yvftj94mlp8","","1758.7550000024494","","<p>How familiar did this sound to you?</p><p>1&nbsp;&nbsp;&nbsp;&nbsp;&nbsp;&nbsp;&nbsp;&nbsp;&nbsp;&nbsp;&nbsp;&nbsp;&nbsp;&nbsp;&nbsp;&nbsp;&nbsp;&nbsp;&nbsp;2&nbsp;&nbsp;&nbsp;&nbsp;&nbsp;&nbsp;&nbsp;&nbsp;&nbsp;&nbsp;&nbsp;&nbsp;&nbsp;&nbsp;&nbsp;&nbsp;&nbsp;&nbsp;&nbsp;3&nbsp;&nbsp;&nbsp;&nbsp;&nbsp;&nbsp;&nbsp;&nbsp;&nbsp;&nbsp;&nbsp;&nbsp;&nbsp;&nbsp;&nbsp;&nbsp;&nbsp;&nbsp;&nbsp;4</p><p style=""font-size:14px"">Not at all familiar&nbsp;&nbsp;&nbsp;&nbsp;A little familiar&nbsp;&nbsp;&nbsp;Moderately familiar&nbsp;&nbsp;&nbsp;Extremely familiar</p><p>(press the corresponding number on your keyboard)</p>","","50","","","FAM-RESPONSE","","","","","","","","","","","","","","","","","","","sounds/C/FAM/P003.mp3","partword","","","","","","","","","","","","","","","","","","",""
"html-keyboard-response","264","1227591","0.0-7.0-1.0-0.8","3","1","wgq8yvftj94mlp8","","null","","","","null","","","","","","","","","","","","","","","","","","","","","","","","","","","","","","","","","","","","","","","","","",""
"audio-keyboard-response","265","1228531","0.0-7.0-1.0-1.8","3","1","wgq8yvftj94mlp8","","null","","sounds/C/FAM/W004.mp3","","null","","","","","","","","","","","","","","","","","","","","","","","","","","","","","","","","","","","","","","","","","",""
"html-keyboard-response","266","1230140","0.0-7.0-1.0-2.8","3","1","wgq8yvftj94mlp8","","1108.6599999982864","","<p>How familiar did this sound to you?</p><p>1&nbsp;&nbsp;&nbsp;&nbsp;&nbsp;&nbsp;&nbsp;&nbsp;&nbsp;&nbsp;&nbsp;&nbsp;&nbsp;&nbsp;&nbsp;&nbsp;&nbsp;&nbsp;&nbsp;2&nbsp;&nbsp;&nbsp;&nbsp;&nbsp;&nbsp;&nbsp;&nbsp;&nbsp;&nbsp;&nbsp;&nbsp;&nbsp;&nbsp;&nbsp;&nbsp;&nbsp;&nbsp;&nbsp;3&nbsp;&nbsp;&nbsp;&nbsp;&nbsp;&nbsp;&nbsp;&nbsp;&nbsp;&nbsp;&nbsp;&nbsp;&nbsp;&nbsp;&nbsp;&nbsp;&nbsp;&nbsp;&nbsp;4</p><p style=""font-size:14px"">Not at all familiar&nbsp;&nbsp;&nbsp;&nbsp;A little familiar&nbsp;&nbsp;&nbsp;Moderately familiar&nbsp;&nbsp;&nbsp;Extremely familiar</p><p>(press the corresponding number on your keyboard)</p>","","51","","","FAM-RESPONSE","","","","","","","","","","","","","","","","","","","sounds/C/FAM/W004.mp3","word","","","","","","","","","","","","","","","","","","",""
"html-keyboard-response","267","1232142","0.0-7.0-1.0-0.9","3","1","wgq8yvftj94mlp8","","null","","","","null","","","","","","","","","","","","","","","","","","","","","","","","","","","","","","","","","","","","","","","","","",""
"audio-keyboard-response","268","1233091","0.0-7.0-1.0-1.9","3","1","wgq8yvftj94mlp8","","null","","sounds/C/FAM/P004.mp3","","null","","","","","","","","","","","","","","","","","","","","","","","","","","","","","","","","","","","","","","","","","",""
"html-keyboard-response","269","1233865","0.0-7.0-1.0-2.9","3","1","wgq8yvftj94mlp8","","272.9849999959115","","<p>How familiar did this sound to you?</p><p>1&nbsp;&nbsp;&nbsp;&nbsp;&nbsp;&nbsp;&nbsp;&nbsp;&nbsp;&nbsp;&nbsp;&nbsp;&nbsp;&nbsp;&nbsp;&nbsp;&nbsp;&nbsp;&nbsp;2&nbsp;&nbsp;&nbsp;&nbsp;&nbsp;&nbsp;&nbsp;&nbsp;&nbsp;&nbsp;&nbsp;&nbsp;&nbsp;&nbsp;&nbsp;&nbsp;&nbsp;&nbsp;&nbsp;3&nbsp;&nbsp;&nbsp;&nbsp;&nbsp;&nbsp;&nbsp;&nbsp;&nbsp;&nbsp;&nbsp;&nbsp;&nbsp;&nbsp;&nbsp;&nbsp;&nbsp;&nbsp;&nbsp;4</p><p style=""font-size:14px"">Not at all familiar&nbsp;&nbsp;&nbsp;&nbsp;A little familiar&nbsp;&nbsp;&nbsp;Moderately familiar&nbsp;&nbsp;&nbsp;Extremely familiar</p><p>(press the corresponding number on your keyboard)</p>","","52","","","FAM-RESPONSE","","","","","","","","","","","","","","","","","","","sounds/C/FAM/P004.mp3","partword","","","","","","","","","","","","","","","","","","",""
"html-keyboard-response","270","1235866","0.0-7.0-1.0-0.10","3","1","wgq8yvftj94mlp8","","null","","","","null","","","","","","","","","","","","","","","","","","","","","","","","","","","","","","","","","","","","","","","","","",""
"audio-keyboard-response","271","1236811","0.0-7.0-1.0-1.10","3","1","wgq8yvftj94mlp8","","null","","sounds/C/FAM/P002.mp3","","null","","","","","","","","","","","","","","","","","","","","","","","","","","","","","","","","","","","","","","","","","",""
"html-keyboard-response","272","1238513","0.0-7.0-1.0-2.10","3","1","wgq8yvftj94mlp8","","1201.2499999981374","","<p>How familiar did this sound to you?</p><p>1&nbsp;&nbsp;&nbsp;&nbsp;&nbsp;&nbsp;&nbsp;&nbsp;&nbsp;&nbsp;&nbsp;&nbsp;&nbsp;&nbsp;&nbsp;&nbsp;&nbsp;&nbsp;&nbsp;2&nbsp;&nbsp;&nbsp;&nbsp;&nbsp;&nbsp;&nbsp;&nbsp;&nbsp;&nbsp;&nbsp;&nbsp;&nbsp;&nbsp;&nbsp;&nbsp;&nbsp;&nbsp;&nbsp;3&nbsp;&nbsp;&nbsp;&nbsp;&nbsp;&nbsp;&nbsp;&nbsp;&nbsp;&nbsp;&nbsp;&nbsp;&nbsp;&nbsp;&nbsp;&nbsp;&nbsp;&nbsp;&nbsp;4</p><p style=""font-size:14px"">Not at all familiar&nbsp;&nbsp;&nbsp;&nbsp;A little familiar&nbsp;&nbsp;&nbsp;Moderately familiar&nbsp;&nbsp;&nbsp;Extremely familiar</p><p>(press the corresponding number on your keyboard)</p>","","51","","","FAM-RESPONSE","","","","","","","","","","","","","","","","","","","sounds/C/FAM/P002.mp3","partword","","","","","","","","","","","","","","","","","","",""
"html-keyboard-response","273","1240516","0.0-7.0-1.0-0.11","3","1","wgq8yvftj94mlp8","","null","","","","null","","","","","","","","","","","","","","","","","","","","","","","","","","","","","","","","","","","","","","","","","",""
"audio-keyboard-response","274","1241451","0.0-7.0-1.0-1.11","3","1","wgq8yvftj94mlp8","","null","","sounds/C/FAM/N003.mp3","","null","","","","","","","","","","","","","","","","","","","","","","","","","","","","","","","","","","","","","","","","","",""
"html-keyboard-response","275","1242162","0.0-7.0-1.0-2.11","3","1","wgq8yvftj94mlp8","","209.75499999616295","","<p>How familiar did this sound to you?</p><p>1&nbsp;&nbsp;&nbsp;&nbsp;&nbsp;&nbsp;&nbsp;&nbsp;&nbsp;&nbsp;&nbsp;&nbsp;&nbsp;&nbsp;&nbsp;&nbsp;&nbsp;&nbsp;&nbsp;2&nbsp;&nbsp;&nbsp;&nbsp;&nbsp;&nbsp;&nbsp;&nbsp;&nbsp;&nbsp;&nbsp;&nbsp;&nbsp;&nbsp;&nbsp;&nbsp;&nbsp;&nbsp;&nbsp;3&nbsp;&nbsp;&nbsp;&nbsp;&nbsp;&nbsp;&nbsp;&nbsp;&nbsp;&nbsp;&nbsp;&nbsp;&nbsp;&nbsp;&nbsp;&nbsp;&nbsp;&nbsp;&nbsp;4</p><p style=""font-size:14px"">Not at all familiar&nbsp;&nbsp;&nbsp;&nbsp;A little familiar&nbsp;&nbsp;&nbsp;Moderately familiar&nbsp;&nbsp;&nbsp;Extremely familiar</p><p>(press the corresponding number on your keyboard)</p>","","52","","","FAM-RESPONSE","","","","","","","","","","","","","","","","","","","sounds/C/FAM/N003.mp3","nonword","","","","","","","","","","","","","","","","","","",""
"html-button-response","276","1253094","0.0-8.0-0.0","3","1","wgq8yvftj94mlp8","","9930.53499999945","","<p>You will now listen to longer sound sequences.</p><p>Each sound sequence will last about 16 seconds.</p><p>On each trial, you will be given a <u>TARGET SOUND</u>. Your task is to listen very carefully for this sound.</p><p>Every time you hear the <u>TARGET SOUND</u>, you will press the <b>SPACEBAR</b> as quickly and accurately as you can.</p>","0","","","","","","","","","","","","","","","","","","","","","","","","","","","","","","","","","","","","","","","","","","",""
"html-button-response","277","1259402","0.0-8.0-1.0","3","1","wgq8yvftj94mlp8","","6056.7300000039395","","<p>It is very important that you make your responses as quickly and accurately as possible.</p><p>To help you make your responses, you will be able to listen to the <u>TARGET SOUND</u> at the beginning of each trial.</p><p>There will be 36 total trials.</p><p><b>Note: This is meant to be a difficult task. We simply want you to try your best.</p>","0","","","","","","","","","","","","","","","","","","","","","","","","","","","","","","","","","","","","","","","","","","",""
"html-button-response","278","1261269","0.0-8.0-2.0-0.0","3","1","wgq8yvftj94mlp8","","1613.8500000014901","","<p>Trial 1 of 36</p>","0","","","","","","","","","","","","","","","","","","","","","","","","","RE","sounds/syllables/re_SWS.wav","3000,5700,7500,11100","2","","","","","","","","","","","","","","",""
"html-keyboard-response","279","1263426","0.0-8.0-2.0-1.0","3","1","wgq8yvftj94mlp8","","2156.834999994375","","","","80","","","","","","","","","","","","","","","","","","","","","","","","RE","","3000,5700,7500,11100","2","","","","","","","","","","","","","","",""
"audio-keyboard-response","280","1263731","0.0-8.0-2.0-2.0-0.0","3","1","wgq8yvftj94mlp8","","null","","sounds/syllables/re_SWS.wav","","null","","","","","","","","","","","","","","","","","","","","","","","","","","","","","","","","","","","","","","","","","",""
"html-keyboard-response","281","1265462","0.0-8.0-2.0-2.0-1.0","3","1","wgq8yvftj94mlp8","","1731.1549999939743","","<p>To replay the <u>TARGET SOUND</u>, press P.</p> When you are ready to begin, press SPACEBAR.","","32","","","","","","","","","","","","","","","","","","","","","","","","","","","","","","","","","","","","","","","","","",""
"audio-keyboard-response","282","1280411","0.0-8.0-2.0-3.0","3","1","wgq8yvftj94mlp8","","1731","","sounds/C/TD/RE_02_TD.mp3","","80","","","TD_SUMMARY","","","","","","","","","","","","","","","","","","","","","RE","","3000,5700,7500,11100","2","3000","5700","7500","11100","505.6650000042282","354.91500000073574","841.9199999989942","null","3505.665000004228_4896.865000002552_5597.090000002878_5858.775000000605_6054.915000000736_8341.919999998994_9477.100000003818_9752.175000001444","1","","","","",""
"html-button-response","283","1281978","0.0-8.0-2.0-0.1","3","1","wgq8yvftj94mlp8","","1565.2350000017323","","<p>Trial 2 of 36</p>","0","","","","","","","","","","","","","","","","","","","","","","","","","TI","sounds/syllables/ti_SWS.wav","1500,6900,8700,11400","3","","","","","","","","","","","","","","",""
"html-keyboard-response","284","1285185","0.0-8.0-2.0-1.1","3","1","wgq8yvftj94mlp8","","3206.01500000339","","","","80","","","","","","","","","","","","","","","","","","","","","","","","TI","","1500,6900,8700,11400","3","","","","","","","","","","","","","","",""
"audio-keyboard-response","285","1285491","0.0-8.0-2.0-2.1-0.1","3","1","wgq8yvftj94mlp8","","null","","sounds/syllables/ti_SWS.wav","","null","","","","","","","","","","","","","","","","","","","","","","","","","","","","","","","","","","","","","","","","","",""
"html-keyboard-response","286","1287561","0.0-8.0-2.0-2.1-1.1","3","1","wgq8yvftj94mlp8","","2069.9150000000373","","<p>To replay the <u>TARGET SOUND</u>, press P.</p> When you are ready to begin, press SPACEBAR.","","32","","","","","","","","","","","","","","","","","","","","","","","","","","","","","","","","","","","","","","","","","",""
"audio-keyboard-response","287","1302511","0.0-8.0-2.0-3.1","3","1","wgq8yvftj94mlp8","","600","","sounds/C/TD/TI_08_TD.mp3","","80","","","TD_SUMMARY","","","","","","","","","","","","","","","","","","","","","TI","","1500,6900,8700,11400","3","1500","6900","8700","11400","null","1072.0799999996088","711.9849999989383","1063.1049999953248","________4468.0549999976065_5778.744999995921_6394.834999999031_7061.184999998659_7579.574999995995_7972.079999999609_8764.234999995213_9411.984999998938_10218.679999998072_10619.449999998324_11058.825000000186_11398.05999999959_11659.939999997616_11948.969999997644_12198.259999997448_12463.104999995325_12746.66499999864_13042.574999999488_13392.234999999404_13678.524999995716_13910.289999999804","1","","","","",""
"html-button-response","288","1304123","0.0-8.0-2.0-0.2","3","1","wgq8yvftj94mlp8","","1610.8999999994412","","<p>Trial 3 of 36</p>","0","","","","","","","","","","","","","","","","","","","","","","","","","TI","sounds/syllables/ti_SWS.wav","1500,3300,10500,13200","3","","","","","","","","","","","","","","",""
"html-keyboard-response","289","1305592","0.0-8.0-2.0-1.2","3","1","wgq8yvftj94mlp8","","1468.5249999966472","","","","80","","","","","","","","","","","","","","","","","","","","","","","","TI","","1500,3300,10500,13200","3","","","","","","","","","","","","","","",""
"audio-keyboard-response","290","1305891","0.0-8.0-2.0-2.2-0.2","3","1","wgq8yvftj94mlp8","","null","","sounds/syllables/ti_SWS.wav","","null","","","","","","","","","","","","","","","","","","","","","","","","","","","","","","","","","","","","","","","","","",""
"html-keyboard-response","291","1306884","0.0-8.0-2.0-2.2-1.2","3","1","wgq8yvftj94mlp8","","992.2499999955762","","<p>To replay the <u>TARGET SOUND</u>, press P.</p> When you are ready to begin, press SPACEBAR.","","32","","","","","","","","","","","","","","","","","","","","","","","","","","","","","","","","","","","","","","","","","",""
"audio-keyboard-response","292","1321831","0.0-8.0-2.0-3.2","3","1","wgq8yvftj94mlp8","","2909","","sounds/C/TD/TI_01_TD.mp3","","80","","","TD_SUMMARY","","","","","","","","","","","","","","","","","","","","","TI","","1500,3300,10500,13200","3","1500","3300","10500","13200","null","null","null","null","","1","","","","",""
"html-button-response","293","1323200","0.0-8.0-2.0-0.3","3","1","wgq8yvftj94mlp8","","1368.0099999981467","","<p>Trial 4 of 36</p>","0","","","","","","","","","","","","","","","","","","","","","","","","","RE","sounds/syllables/re_SWS.wav","2100,9300,11100,12900","2","","","","","","","","","","","","","","",""
"html-keyboard-response","294","1324149","0.0-8.0-2.0-1.3","3","1","wgq8yvftj94mlp8","","948.0449999975972","","","","80","","","","","","","","","","","","","","","","","","","","","","","","RE","","2100,9300,11100,12900","2","","","","","","","","","","","","","","",""
"audio-keyboard-response","295","1324451","0.0-8.0-2.0-2.3-0.3","3","1","wgq8yvftj94mlp8","","null","","sounds/syllables/re_SWS.wav","","null","","","","","","","","","","","","","","","","","","","","","","","","","","","","","","","","","","","","","","","","","",""
"html-keyboard-response","296","1325334","0.0-8.0-2.0-2.3-1.3","3","1","wgq8yvftj94mlp8","","882.8200000063516","","<p>To replay the <u>TARGET SOUND</u>, press P.</p> When you are ready to begin, press SPACEBAR.","","32","","","","","","","","","","","","","","","","","","","","","","","","","","","","","","","","","","","","","","","","","",""
"audio-keyboard-response","297","1340281","0.0-8.0-2.0-3.3","3","1","wgq8yvftj94mlp8","","1611","","sounds/C/TD/RE_01_TD.mp3","","80","","","TD_SUMMARY","","","","","","","","","","","","","","","","","","","","","RE","","2100,9300,11100,12900","2","2100","9300","11100","12900","null","null","null","null","_____________________________3358.459999995772_3682.6949999958742_3912.589999999851","1","","","","",""
"html-button-response","298","1342385","0.0-8.0-2.0-0.4","3","1","wgq8yvftj94mlp8","","2103.069999997504","","<p>Trial 5 of 36</p>","0","","","","","","","","","","","","","","","","","","","","","","","","","FU","sounds/syllables/fu_SWS.wav","3300,6000,9600,11400","3","","","","","","","","","","","","","","",""
"html-keyboard-response","299","1342764","0.0-8.0-2.0-1.4","3","1","wgq8yvftj94mlp8","","377.9399999983143","","","","80","","","","","","","","","","","","","","","","","","","","","","","","FU","","3300,6000,9600,11400","3","","","","","","","","","","","","","","",""
"audio-keyboard-response","300","1343061","0.0-8.0-2.0-2.4-0.4","3","1","wgq8yvftj94mlp8","","null","","sounds/syllables/fu_SWS.wav","","null","","","","","","","","","","","","","","","","","","","","","","","","","","","","","","","","","","","","","","","","","",""
"html-keyboard-response","301","1343537","0.0-8.0-2.0-2.4-1.4","3","1","wgq8yvftj94mlp8","","475.2650000008289","","<p>To replay the <u>TARGET SOUND</u>, press P.</p> When you are ready to begin, press SPACEBAR.","","32","","","","","","","","","","","","","","","","","","","","","","","","","","","","","","","","","","","","","","","","","",""
"audio-keyboard-response","302","1358481","0.0-8.0-2.0-3.4","3","1","wgq8yvftj94mlp8","","1672","","sounds/C/TD/FU_01_TD.mp3","","80","","","TD_SUMMARY","","","","","","","","","","","","","","","","","","","","","FU","","3300,6000,9600,11400","3","3300","6000","9600","11400","null","null","null","null","________________________________2492.9100000008475","1","","","","",""
"html-button-response","303","1359903","0.0-8.0-2.0-0.5","3","1","wgq8yvftj94mlp8","","1421.1850000063423","","<p>Trial 6 of 36</p>","0","","","","","","","","","","","","","","","","","","","","","","","","","KO","sounds/syllables/ko_SWS.wav","900,6300,8100,11700","1","","","","","","","","","","","","","","",""
"html-keyboard-response","304","1362143","0.0-8.0-2.0-1.5","3","1","wgq8yvftj94mlp8","","2238.900000004098","","","","80","","","","","","","","","","","","","","","","","","","","","","","","KO","","900,6300,8100,11700","1","","","","","","","","","","","","","","",""
"audio-keyboard-response","305","1362451","0.0-8.0-2.0-2.5-0.5","3","1","wgq8yvftj94mlp8","","null","","sounds/syllables/ko_SWS.wav","","null","","","","","","","","","","","","","","","","","","","","","","","","","","","","","","","","","","","","","","","","","",""
"html-keyboard-response","306","1364285","0.0-8.0-2.0-2.5-1.5","3","1","wgq8yvftj94mlp8","","1833.6300000010524","","<p>To replay the <u>TARGET SOUND</u>, press P.</p> When you are ready to begin, press SPACEBAR.","","80","","","","","","","","","","","","","","","","","","","","","","","","","","","","","","","","","","","","","","","","","",""
"audio-keyboard-response","307","1365091","0.0-8.0-2.0-2.6-0.6","3","1","wgq8yvftj94mlp8","","null","","sounds/syllables/ko_SWS.wav","","null","","","","","","","","","","","","","","","","","","","","","","","","","","","","","","","","","","","","","","","","","",""
"html-keyboard-response","308","1365143","0.0-8.0-2.0-2.6-1.6","3","1","wgq8yvftj94mlp8","","51.46000000229105","","<p>To replay the <u>TARGET SOUND</u>, press P.</p> When you are ready to begin, press SPACEBAR.","","32","","","","","","","","","","","","","","","","","","","","","","","","","","","","","","","","","","","","","","","","","",""
"audio-keyboard-response","309","1380091","0.0-8.0-2.0-3.5","3","1","wgq8yvftj94mlp8","","1341","","sounds/C/TD/KO_06_TD.mp3","","80","","","TD_SUMMARY","","","","","","","","","","","","","","","","","","","","","KO","","900,6300,8100,11700","1","900","6300","8100","11700","1152.770000002114","null","null","null","_________________________________1711.0950000060257_2052.770000002114_2273.230000006035_2531.054999999469_2823.8600000040606_3132.850000001723_6432.860000000801","2","","","","",""
"html-button-response","310","1381836","0.0-8.0-2.0-0.6","3","1","wgq8yvftj94mlp8","","1743.2200000039302","","<p>Trial 7 of 36</p>","0","","","","","","","","","","","","","","","","","","","","","","","","","GE","sounds/syllables/ge_SWS.wav","1500,5100,6900,10500","3","","","","","","","","","","","","","","",""
"html-keyboard-response","311","1383091","0.0-8.0-2.0-1.6","3","1","wgq8yvftj94mlp8","","1254.949999995064","","","","80","","","","","","","","","","","","","","","","","","","","","","","","GE","","1500,5100,6900,10500","3","","","","","","","","","","","","","","",""
"audio-keyboard-response","312","1383401","0.0-8.0-2.0-2.7-0.7","3","1","wgq8yvftj94mlp8","","null","","sounds/syllables/ge_SWS.wav","","null","","","","","","","","","","","","","","","","","","","","","","","","","","","","","","","","","","","","","","","","","",""
