"trial_type","trial_index","time_elapsed","internal_node_id","counterbalance","lang_instruct","ParticipantID","view_history","rt","url","stimulus","button_pressed","key_press","correctRESP","correct","designation","location","correctanswer","responses","sentence","keywords","typed_resp","keyword1_acc","keyword2_acc","keyword3_acc","keyword4_acc","keyword5_acc","total_acc","prop_acc"
"pavlovia","0","4","0.0-0.0","2","1","ak9s845qk8nv623","","","","","","","","","","","","","","","","","","","","","",""
"instructions","1","7070","0.0-1.0","2","1","ak9s845qk8nv623","[{""page_index"":0,""viewing_time"":2068},{""page_index"":1,""viewing_time"":4995}]","7065","","","","","","","","","","","","","","","","","","","",""
"external-html","2","10111","0.0-2.0","2","1","ak9s845qk8nv623","","2927","consent/consent.html","","","","","","","","","","","","","","","","","","",""
"html-button-response","3","12894","0.0-3.0-0.0-0.0","2","1","ak9s845qk8nv623","","2780","","<p>Welcome to the study. You will first complete a short volume calibration and headphone check.</p><p>Please make sure you are in a quiet listening environment, that you are wearing headphones, and that your computer's volume is turned on.<p></p>","0","","","","","","","","","","","","","","","","",""
"html-button-response","4","13612","0.0-3.0-0.0-1.0","2","1","ak9s845qk8nv623","","465","","<p>The volume calibration will be first.</p><p>You will hear a thirty-second noise. Please adjust your computer's volume so that this noise is being presented at a comfortable level.<p></p>","0","","","","","","","","","","","","","","","","",""
"audio-button-response","5","20599","0.0-3.0-0.0-2.0","2","1","ak9s845qk8nv623","","6637","","audCalib/volumetest.mp3","0","","","","","","","","","","","","","","","","",""
"html-button-response","6","27938","0.0-3.0-1.0-0.0","2","1","ak9s845qk8nv623","","7338","","<p>You will now complete a short headphone check.</p><p>On each trial, you will hear three tones. One of these tones will be quieter than the others. Your task is to identify whether the quiet tone occured first, second, or third.</p><p>There are six trials in total.<p></p>","0","","","","","","","","","","","","","","","","",""
"html-keyboard-response","7","28692","0.0-3.0-1.0-1.0-0.0","2","1","ak9s845qk8nv623","","null","","<div style=""font-size:60px;"">+</div>","","null","","","","","","","","","","","","","","","",""
"audio-button-response","8","39522","0.0-3.0-1.0-1.0-1.0","2","1","ak9s845qk8nv623","","10827","","audCalib/t1_2.mp3","1","","0","0","headphone-test","","","","","","","","","","","","",""
"html-keyboard-response","9","40277","0.0-3.0-1.0-1.0-0.1","2","1","ak9s845qk8nv623","","null","","<div style=""font-size:60px;"">+</div>","","null","","","","","","","","","","","","","","","",""
"audio-button-response","10","44796","0.0-3.0-1.0-1.0-1.1","2","1","ak9s845qk8nv623","","4517","","audCalib/t2_2.mp3","0","","1","0","headphone-test","","","","","","","","","","","","",""
"html-keyboard-response","11","45550","0.0-3.0-1.0-1.0-0.2","2","1","ak9s845qk8nv623","","null","","<div style=""font-size:60px;"">+</div>","","null","","","","","","","","","","","","","","","",""
"audio-button-response","12","49412","0.0-3.0-1.0-1.0-1.2","2","1","ak9s845qk8nv623","","3861","","audCalib/t3_2.mp3","0","","2","0","headphone-test","","","","","","","","","","","","",""
"html-keyboard-response","13","50164","0.0-3.0-1.0-1.0-0.3","2","1","ak9s845qk8nv623","","null","","<div style=""font-size:60px;"">+</div>","","null","","","","","","","","","","","","","","","",""
"audio-button-response","14","54928","0.0-3.0-1.0-1.0-1.3","2","1","ak9s845qk8nv623","","4760","","audCalib/t3_1.mp3","0","","2","0","headphone-test","","","","","","","","","","","","",""
"html-keyboard-response","15","55682","0.0-3.0-1.0-1.0-0.4","2","1","ak9s845qk8nv623","","null","","<div style=""font-size:60px;"">+</div>","","null","","","","","","","","","","","","","","","",""
"audio-button-response","16","59870","0.0-3.0-1.0-1.0-1.4","2","1","ak9s845qk8nv623","","4184","","audCalib/t2_1.mp3","0","","1","0","headphone-test","","","","","","","","","","","","",""
"html-keyboard-response","17","60623","0.0-3.0-1.0-1.0-0.5","2","1","ak9s845qk8nv623","","null","","<div style=""font-size:60px;"">+</div>","","null","","","","","","","","","","","","","","","",""
"audio-button-response","18","65155","0.0-3.0-1.0-1.0-1.5","2","1","ak9s845qk8nv623","","4528","","audCalib/t1_1.mp3","1","","0","0","headphone-test","","","","","","","","","","","","",""
"html-button-response","19","67476","0.0-3.0-2.0","2","1","ak9s845qk8nv623","","2070","","<p>The volume calibration and headphone check are now complete.</p>","0","","","","","","","","","","","","","","","","",""
"instructions","20","74101","0.0-4.0-0.0","2","1","ak9s845qk8nv623","[{""page_index"":0,""viewing_time"":1333},{""page_index"":1,""viewing_time"":3566},{""page_index"":2,""viewing_time"":1725}]","6624","","","","","","","","","","","","","","","","","","","",""
"audio-keyboard-response","21","74404","0.0-4.0-1.0-0.0","2","1","ak9s845qk8nv623","","null","","sounds/induction/right/ge_SWS.wav","","null","","","","","","","","","","","","","","","",""
"html-button-response","22","77526","0.0-4.0-1.0-1.0","2","1","ak9s845qk8nv623","","3121","","What sound did you hear?","0","","","1","INDUCTION-JUDGMENT","right","0","","","","","","","","","","",""
"html-keyboard-response","23","78529","0.0-4.0-1.0-2.0","2","1","ak9s845qk8nv623","","null","","<p style=""color:green;""><b>Correct!</b></p>","","null","","","","","","","","","","","","","","","",""
"audio-keyboard-response","24","79331","0.0-4.0-1.0-0.1","2","1","ak9s845qk8nv623","","null","","sounds/induction/left/ru_SWS.wav","","null","","","","","","","","","","","","","","","",""
"html-button-response","25","80943","0.0-4.0-1.0-1.1","2","1","ak9s845qk8nv623","","1609","","What sound did you hear?","0","","","1","INDUCTION-JUDGMENT","left","0","","","","","","","","","","",""
"html-keyboard-response","26","81945","0.0-4.0-1.0-2.1","2","1","ak9s845qk8nv623","","null","","<p style=""color:green;""><b>Correct!</b></p>","","null","","","","","","","","","","","","","","","",""
"audio-keyboard-response","27","82747","0.0-4.0-1.0-0.2","2","1","ak9s845qk8nv623","","null","","sounds/induction/right/fe_SWS.wav","","null","","","","","","","","","","","","","","","",""
"html-button-response","28","84234","0.0-4.0-1.0-1.2","2","1","ak9s845qk8nv623","","1485","","What sound did you hear?","0","","","1","INDUCTION-JUDGMENT","right","0","","","","","","","","","","",""
"html-keyboard-response","29","85237","0.0-4.0-1.0-2.2","2","1","ak9s845qk8nv623","","null","","<p style=""color:green;""><b>Correct!</b></p>","","null","","","","","","","","","","","","","","","",""
"audio-keyboard-response","30","86040","0.0-4.0-1.0-0.3","2","1","ak9s845qk8nv623","","null","","sounds/induction/left/su_SWS.wav","","null","","","","","","","","","","","","","","","",""
"html-button-response","31","87301","0.0-4.0-1.0-1.3","2","1","ak9s845qk8nv623","","1259","","What sound did you hear?","0","","","1","INDUCTION-JUDGMENT","left","0","","","","","","","","","","",""
"html-keyboard-response","32","88304","0.0-4.0-1.0-2.3","2","1","ak9s845qk8nv623","","null","","<p style=""color:green;""><b>Correct!</b></p>","","null","","","","","","","","","","","","","","","",""
"audio-keyboard-response","33","89107","0.0-4.0-1.0-0.4","2","1","ak9s845qk8nv623","","null","","sounds/induction/right/su_SWS.wav","","null","","","","","","","","","","","","","","","",""
"html-button-response","34","90035","0.0-4.0-1.0-1.4","2","1","ak9s845qk8nv623","","926","","What sound did you hear?","1","","","1","INDUCTION-JUDGMENT","right","1","","","","","","","","","","",""
"html-keyboard-response","35","91037","0.0-4.0-1.0-2.4","2","1","ak9s845qk8nv623","","null","","<p style=""color:green;""><b>Correct!</b></p>","","null","","","","","","","","","","","","","","","",""
"audio-keyboard-response","36","91841","0.0-4.0-1.0-0.5","2","1","ak9s845qk8nv623","","null","","sounds/induction/right/ni_SWS.wav","","null","","","","","","","","","","","","","","","",""
"html-button-response","37","93602","0.0-4.0-1.0-1.5","2","1","ak9s845qk8nv623","","1759","","What sound did you hear?","1","","","0","INDUCTION-JUDGMENT","right","0","","","","","","","","","","",""
"html-keyboard-response","38","94604","0.0-4.0-1.0-2.5","2","1","ak9s845qk8nv623","","null","","<p style=""color:red;""><b>Incorrect!</b></p>","","null","","","","","","","","","","","","","","","",""
"audio-keyboard-response","39","95406","0.0-4.0-1.0-0.6","2","1","ak9s845qk8nv623","","null","","sounds/induction/right/me_SWS.wav","","null","","","","","","","","","","","","","","","",""
"html-button-response","40","96583","0.0-4.0-1.0-1.6","2","1","ak9s845qk8nv623","","1177","","What sound did you hear?","1","","","0","INDUCTION-JUDGMENT","right","0","","","","","","","","","","",""
"html-keyboard-response","41","97586","0.0-4.0-1.0-2.6","2","1","ak9s845qk8nv623","","null","","<p style=""color:red;""><b>Incorrect!</b></p>","","null","","","","","","","","","","","","","","","",""
"audio-keyboard-response","42","98390","0.0-4.0-1.0-0.7","2","1","ak9s845qk8nv623","","null","","sounds/induction/right/fu_SWS.wav","","null","","","","","","","","","","","","","","","",""
"html-button-response","43","99192","0.0-4.0-1.0-1.7","2","1","ak9s845qk8nv623","","800.0000000000146","","What sound did you hear?","0","","","1","INDUCTION-JUDGMENT","right","0","","","","","","","","","","",""
"html-keyboard-response","44","100195","0.0-4.0-1.0-2.7","2","1","ak9s845qk8nv623","","null","","<p style=""color:green;""><b>Correct!</b></p>","","null","","","","","","","","","","","","","","","",""
"audio-keyboard-response","45","100998","0.0-4.0-1.0-0.8","2","1","ak9s845qk8nv623","","null","","sounds/induction/right/ni_SWS.wav","","null","","","","","","","","","","","","","","","",""
"html-button-response","46","102833","0.0-4.0-1.0-1.8","2","1","ak9s845qk8nv623","","1835","","What sound did you hear?","1","","","0","INDUCTION-JUDGMENT","right","0","","","","","","","","","","",""
"html-keyboard-response","47","103836","0.0-4.0-1.0-2.8","2","1","ak9s845qk8nv623","","null","","<p style=""color:red;""><b>Incorrect!</b></p>","","null","","","","","","","","","","","","","","","",""
"audio-keyboard-response","48","104637","0.0-4.0-1.0-0.9","2","1","ak9s845qk8nv623","","null","","sounds/induction/left/ta_SWS.wav","","null","","","","","","","","","","","","","","","",""
"html-button-response","49","106390","0.0-4.0-1.0-1.9","2","1","ak9s845qk8nv623","","1752","","What sound did you hear?","1","","","0","INDUCTION-JUDGMENT","left","0","","","","","","","","","","",""
"html-keyboard-response","50","107392","0.0-4.0-1.0-2.9","2","1","ak9s845qk8nv623","","null","","<p style=""color:red;""><b>Incorrect!</b></p>","","null","","","","","","","","","","","","","","","",""
"audio-keyboard-response","51","108195","0.0-4.0-1.0-0.10","2","1","ak9s845qk8nv623","","null","","sounds/induction/left/ta_SWS.wav","","null","","","","","","","","","","","","","","","",""
"html-button-response","52","109250","0.0-4.0-1.0-1.10","2","1","ak9s845qk8nv623","","1054","","What sound did you hear?","0","","","1","INDUCTION-JUDGMENT","left","0","","","","","","","","","","",""
"html-keyboard-response","53","110253","0.0-4.0-1.0-2.10","2","1","ak9s845qk8nv623","","null","","<p style=""color:green;""><b>Correct!</b></p>","","null","","","","","","","","","","","","","","","",""
"audio-keyboard-response","54","111056","0.0-4.0-1.0-0.11","2","1","ak9s845qk8nv623","","null","","sounds/induction/left/re_SWS.wav","","null","","","","","","","","","","","","","","","",""
"html-button-response","55","112840","0.0-4.0-1.0-1.11","2","1","ak9s845qk8nv623","","1781.9999999999854","","What sound did you hear?","0","","","1","INDUCTION-JUDGMENT","left","0","","","","","","","","","","",""
"html-keyboard-response","56","113842","0.0-4.0-1.0-2.11","2","1","ak9s845qk8nv623","","null","","<p style=""color:green;""><b>Correct!</b></p>","","null","","","","","","","","","","","","","","","",""
"audio-keyboard-response","57","114646","0.0-4.0-1.0-0.12","2","1","ak9s845qk8nv623","","null","","sounds/induction/right/ko_SWS.wav","","null","","","","","","","","","","","","","","","",""
"html-button-response","58","115907","0.0-4.0-1.0-1.12","2","1","ak9s845qk8nv623","","1261","","What sound did you hear?","0","","","1","INDUCTION-JUDGMENT","right","0","","","","","","","","","","",""
"html-keyboard-response","59","116909","0.0-4.0-1.0-2.12","2","1","ak9s845qk8nv623","","null","","<p style=""color:green;""><b>Correct!</b></p>","","null","","","","","","","","","","","","","","","",""
"audio-keyboard-response","60","117712","0.0-4.0-1.0-0.13","2","1","ak9s845qk8nv623","","null","","sounds/induction/right/fe_SWS.wav","","null","","","","","","","","","","","","","","","",""
"html-button-response","61","121048","0.0-4.0-1.0-1.13","2","1","ak9s845qk8nv623","","3335","","What sound did you hear?","0","","","1","INDUCTION-JUDGMENT","right","0","","","","","","","","","","",""
"html-keyboard-response","62","122052","0.0-4.0-1.0-2.13","2","1","ak9s845qk8nv623","","null","","<p style=""color:green;""><b>Correct!</b></p>","","null","","","","","","","","","","","","","","","",""
"audio-keyboard-response","63","122853","0.0-4.0-1.0-0.14","2","1","ak9s845qk8nv623","","null","","sounds/induction/left/ru_SWS.wav","","null","","","","","","","","","","","","","","","",""
"html-button-response","64","124765","0.0-4.0-1.0-1.14","2","1","ak9s845qk8nv623","","1911","","What sound did you hear?","0","","","1","INDUCTION-JUDGMENT","left","0","","","","","","","","","","",""
"html-keyboard-response","65","125768","0.0-4.0-1.0-2.14","2","1","ak9s845qk8nv623","","null","","<p style=""color:green;""><b>Correct!</b></p>","","null","","","","","","","","","","","","","","","",""
"audio-keyboard-response","66","126571","0.0-4.0-1.0-0.15","2","1","ak9s845qk8nv623","","null","","sounds/induction/left/ni_SWS.wav","","null","","","","","","","","","","","","","","","",""
"html-button-response","67","128331","0.0-4.0-1.0-1.15","2","1","ak9s845qk8nv623","","1759","","What sound did you hear?","1","","","1","INDUCTION-JUDGMENT","left","1","","","","","","","","","","",""
"html-keyboard-response","68","129334","0.0-4.0-1.0-2.15","2","1","ak9s845qk8nv623","","null","","<p style=""color:green;""><b>Correct!</b></p>","","null","","","","","","","","","","","","","","","",""
"audio-keyboard-response","69","130136","0.0-4.0-1.0-0.16","2","1","ak9s845qk8nv623","","null","","sounds/induction/left/ti_SWS.wav","","null","","","","","","","","","","","","","","","",""
"html-button-response","70","132031","0.0-4.0-1.0-1.16","2","1","ak9s845qk8nv623","","1894","","What sound did you hear?","1","","","0","INDUCTION-JUDGMENT","left","0","","","","","","","","","","",""
"html-keyboard-response","71","133034","0.0-4.0-1.0-2.16","2","1","ak9s845qk8nv623","","null","","<p style=""color:red;""><b>Incorrect!</b></p>","","null","","","","","","","","","","","","","","","",""
"audio-keyboard-response","72","133835","0.0-4.0-1.0-0.17","2","1","ak9s845qk8nv623","","null","","sounds/induction/left/ti_SWS.wav","","null","","","","","","","","","","","","","","","",""
"html-button-response","73","136372","0.0-4.0-1.0-1.17","2","1","ak9s845qk8nv623","","2536","","What sound did you hear?","0","","","1","INDUCTION-JUDGMENT","left","0","","","","","","","","","","",""
"html-keyboard-response","74","137374","0.0-4.0-1.0-2.17","2","1","ak9s845qk8nv623","","null","","<p style=""color:green;""><b>Correct!</b></p>","","null","","","","","","","","","","","","","","","",""
"audio-keyboard-response","75","138176","0.0-4.0-1.0-0.18","2","1","ak9s845qk8nv623","","null","","sounds/induction/right/me_SWS.wav","","null","","","","","","","","","","","","","","","",""
"html-button-response","76","141106","0.0-4.0-1.0-1.18","2","1","ak9s845qk8nv623","","2929","","What sound did you hear?","1","","","0","INDUCTION-JUDGMENT","right","0","","","","","","","","","","",""
"html-keyboard-response","77","142109","0.0-4.0-1.0-2.18","2","1","ak9s845qk8nv623","","null","","<p style=""color:red;""><b>Incorrect!</b></p>","","null","","","","","","","","","","","","","","","",""
"audio-keyboard-response","78","142912","0.0-4.0-1.0-0.19","2","1","ak9s845qk8nv623","","null","","sounds/induction/left/su_SWS.wav","","null","","","","","","","","","","","","","","","",""
"html-button-response","79","144563","0.0-4.0-1.0-1.19","2","1","ak9s845qk8nv623","","1650","","What sound did you hear?","0","","","1","INDUCTION-JUDGMENT","left","0","","","","","","","","","","",""
"html-keyboard-response","80","145565","0.0-4.0-1.0-2.19","2","1","ak9s845qk8nv623","","null","","<p style=""color:green;""><b>Correct!</b></p>","","null","","","","","","","","","","","","","","","",""
"audio-keyboard-response","81","146368","0.0-4.0-1.0-0.20","2","1","ak9s845qk8nv623","","null","","sounds/induction/right/re_SWS.wav","","null","","","","","","","","","","","","","","","",""
"html-button-response","82","147297","0.0-4.0-1.0-1.20","2","1","ak9s845qk8nv623","","928.0000000000291","","What sound did you hear?","1","","","1","INDUCTION-JUDGMENT","right","1","","","","","","","","","","",""
"html-keyboard-response","83","148299","0.0-4.0-1.0-2.20","2","1","ak9s845qk8nv623","","null","","<p style=""color:green;""><b>Correct!</b></p>","","null","","","","","","","","","","","","","","","",""
"audio-keyboard-response","84","149101","0.0-4.0-1.0-0.21","2","1","ak9s845qk8nv623","","null","","sounds/induction/right/ti_SWS.wav","","null","","","","","","","","","","","","","","","",""
"html-button-response","85","150937","0.0-4.0-1.0-1.21","2","1","ak9s845qk8nv623","","1835","","What sound did you hear?","0","","","0","INDUCTION-JUDGMENT","right","1","","","","","","","","","","",""
"html-keyboard-response","86","151939","0.0-4.0-1.0-2.21","2","1","ak9s845qk8nv623","","null","","<p style=""color:red;""><b>Incorrect!</b></p>","","null","","","","","","","","","","","","","","","",""
"audio-keyboard-response","87","152741","0.0-4.0-1.0-0.22","2","1","ak9s845qk8nv623","","null","","sounds/induction/right/fu_SWS.wav","","null","","","","","","","","","","","","","","","",""
"html-button-response","88","153679","0.0-4.0-1.0-1.22","2","1","ak9s845qk8nv623","","937","","What sound did you hear?","0","","","1","INDUCTION-JUDGMENT","right","0","","","","","","","","","","",""
"html-keyboard-response","89","154682","0.0-4.0-1.0-2.22","2","1","ak9s845qk8nv623","","null","","<p style=""color:green;""><b>Correct!</b></p>","","null","","","","","","","","","","","","","","","",""
"audio-keyboard-response","90","155485","0.0-4.0-1.0-0.23","2","1","ak9s845qk8nv623","","null","","sounds/induction/right/su_SWS.wav","","null","","","","","","","","","","","","","","","",""
"html-button-response","91","156779","0.0-4.0-1.0-1.23","2","1","ak9s845qk8nv623","","1293.000000000029","","What sound did you hear?","1","","","1","INDUCTION-JUDGMENT","right","1","","","","","","","","","","",""
"html-keyboard-response","92","157781","0.0-4.0-1.0-2.23","2","1","ak9s845qk8nv623","","null","","<p style=""color:green;""><b>Correct!</b></p>","","null","","","","","","","","","","","","","","","",""
"audio-keyboard-response","93","158584","0.0-4.0-1.0-0.24","2","1","ak9s845qk8nv623","","null","","sounds/induction/left/fe_SWS.wav","","null","","","","","","","","","","","","","","","",""
"html-button-response","94","160125","0.0-4.0-1.0-1.24","2","1","ak9s845qk8nv623","","1540","","What sound did you hear?","0","","","0","INDUCTION-JUDGMENT","left","1","","","","","","","","","","",""
"html-keyboard-response","95","161127","0.0-4.0-1.0-2.24","2","1","ak9s845qk8nv623","","null","","<p style=""color:red;""><b>Incorrect!</b></p>","","null","","","","","","","","","","","","","","","",""
"audio-keyboard-response","96","161930","0.0-4.0-1.0-0.25","2","1","ak9s845qk8nv623","","null","","sounds/induction/left/me_SWS.wav","","null","","","","","","","","","","","","","","","",""
"html-button-response","97","164201","0.0-4.0-1.0-1.25","2","1","ak9s845qk8nv623","","2270.000000000029","","What sound did you hear?","0","","","0","INDUCTION-JUDGMENT","left","1","","","","","","","","","","",""
"html-keyboard-response","98","165203","0.0-4.0-1.0-2.25","2","1","ak9s845qk8nv623","","null","","<p style=""color:red;""><b>Incorrect!</b></p>","","null","","","","","","","","","","","","","","","",""
"audio-keyboard-response","99","166005","0.0-4.0-1.0-0.26","2","1","ak9s845qk8nv623","","null","","sounds/induction/right/pu_SWS.wav","","null","","","","","","","","","","","","","","","",""
"html-button-response","100","167277","0.0-4.0-1.0-1.26","2","1","ak9s845qk8nv623","","1270","","What sound did you hear?","1","","","1","INDUCTION-JUDGMENT","right","1","","","","","","","","","","",""
"html-keyboard-response","101","168281","0.0-4.0-1.0-2.26","2","1","ak9s845qk8nv623","","null","","<p style=""color:green;""><b>Correct!</b></p>","","null","","","","","","","","","","","","","","","",""
"audio-keyboard-response","102","169085","0.0-4.0-1.0-0.27","2","1","ak9s845qk8nv623","","null","","sounds/induction/right/ge_SWS.wav","","null","","","","","","","","","","","","","","","",""
"html-button-response","103","170391","0.0-4.0-1.0-1.27","2","1","ak9s845qk8nv623","","1305.000000000029","","What sound did you hear?","0","","","1","INDUCTION-JUDGMENT","right","0","","","","","","","","","","",""
"html-keyboard-response","104","171398","0.0-4.0-1.0-2.27","2","1","ak9s845qk8nv623","","null","","<p style=""color:green;""><b>Correct!</b></p>","","null","","","","","","","","","","","","","","","",""
"audio-keyboard-response","105","172200","0.0-4.0-1.0-0.28","2","1","ak9s845qk8nv623","","null","","sounds/induction/right/pu_SWS.wav","","null","","","","","","","","","","","","","","","",""
"html-button-response","106","173299","0.0-4.0-1.0-1.28","2","1","ak9s845qk8nv623","","1098","","What sound did you hear?","1","","","1","INDUCTION-JUDGMENT","right","1","","","","","","","","","","",""
"html-keyboard-response","107","174301","0.0-4.0-1.0-2.28","2","1","ak9s845qk8nv623","","null","","<p style=""color:green;""><b>Correct!</b></p>","","null","","","","","","","","","","","","","","","",""
"audio-keyboard-response","108","175104","0.0-4.0-1.0-0.29","2","1","ak9s845qk8nv623","","null","","sounds/induction/left/ko_SWS.wav","","null","","","","","","","","","","","","","","","",""
"html-button-response","109","176513","0.0-4.0-1.0-1.29","2","1","ak9s845qk8nv623","","1408","","What sound did you hear?","1","","","1","INDUCTION-JUDGMENT","left","1","","","","","","","","","","",""
"html-keyboard-response","110","177515","0.0-4.0-1.0-2.29","2","1","ak9s845qk8nv623","","null","","<p style=""color:green;""><b>Correct!</b></p>","","null","","","","","","","","","","","","","","","",""
"audio-keyboard-response","111","178317","0.0-4.0-1.0-0.30","2","1","ak9s845qk8nv623","","null","","sounds/induction/left/me_SWS.wav","","null","","","","","","","","","","","","","","","",""
"html-button-response","112","180006","0.0-4.0-1.0-1.30","2","1","ak9s845qk8nv623","","1688","","What sound did you hear?","1","","","1","INDUCTION-JUDGMENT","left","1","","","","","","","","","","",""
"html-keyboard-response","113","181009","0.0-4.0-1.0-2.30","2","1","ak9s845qk8nv623","","null","","<p style=""color:green;""><b>Correct!</b></p>","","null","","","","","","","","","","","","","","","",""
"audio-keyboard-response","114","181810","0.0-4.0-1.0-0.31","2","1","ak9s845qk8nv623","","null","","sounds/induction/left/fu_SWS.wav","","null","","","","","","","","","","","","","","","",""
"html-button-response","115","183468","0.0-4.0-1.0-1.31","2","1","ak9s845qk8nv623","","1657","","What sound did you hear?","1","","","1","INDUCTION-JUDGMENT","left","1","","","","","","","","","","",""
"html-keyboard-response","116","184471","0.0-4.0-1.0-2.31","2","1","ak9s845qk8nv623","","null","","<p style=""color:green;""><b>Correct!</b></p>","","null","","","","","","","","","","","","","","","",""
"audio-keyboard-response","117","185272","0.0-4.0-1.0-0.32","2","1","ak9s845qk8nv623","","null","","sounds/induction/left/ni_SWS.wav","","null","","","","","","","","","","","","","","","",""
"html-button-response","118","187067","0.0-4.0-1.0-1.32","2","1","ak9s845qk8nv623","","1794.999999999971","","What sound did you hear?","0","","","0","INDUCTION-JUDGMENT","left","1","","","","","","","","","","",""
"html-keyboard-response","119","188069","0.0-4.0-1.0-2.32","2","1","ak9s845qk8nv623","","null","","<p style=""color:red;""><b>Incorrect!</b></p>","","null","","","","","","","","","","","","","","","",""
"audio-keyboard-response","120","188872","0.0-4.0-1.0-0.33","2","1","ak9s845qk8nv623","","null","","sounds/induction/left/fe_SWS.wav","","null","","","","","","","","","","","","","","","",""
"html-button-response","121","190196","0.0-4.0-1.0-1.33","2","1","ak9s845qk8nv623","","1322","","What sound did you hear?","1","","","1","INDUCTION-JUDGMENT","left","1","","","","","","","","","","",""
"html-keyboard-response","122","191199","0.0-4.0-1.0-2.33","2","1","ak9s845qk8nv623","","null","","<p style=""color:green;""><b>Correct!</b></p>","","null","","","","","","","","","","","","","","","",""
"audio-keyboard-response","123","192002","0.0-4.0-1.0-0.34","2","1","ak9s845qk8nv623","","null","","sounds/induction/right/ta_SWS.wav","","null","","","","","","","","","","","","","","","",""
"html-button-response","124","194318","0.0-4.0-1.0-1.34","2","1","ak9s845qk8nv623","","2315","","What sound did you hear?","1","","","1","INDUCTION-JUDGMENT","right","1","","","","","","","","","","",""
"html-keyboard-response","125","195321","0.0-4.0-1.0-2.34","2","1","ak9s845qk8nv623","","null","","<p style=""color:green;""><b>Correct!</b></p>","","null","","","","","","","","","","","","","","","",""
"audio-keyboard-response","126","196122","0.0-4.0-1.0-0.35","2","1","ak9s845qk8nv623","","null","","sounds/induction/left/pu_SWS.wav","","null","","","","","","","","","","","","","","","",""
"html-button-response","127","198019","0.0-4.0-1.0-1.35","2","1","ak9s845qk8nv623","","1894.999999999971","","What sound did you hear?","0","","","1","INDUCTION-JUDGMENT","left","0","","","","","","","","","","",""
"html-keyboard-response","128","199021","0.0-4.0-1.0-2.35","2","1","ak9s845qk8nv623","","null","","<p style=""color:green;""><b>Correct!</b></p>","","null","","","","","","","","","","","","","","","",""
"audio-keyboard-response","129","199823","0.0-4.0-1.0-0.36","2","1","ak9s845qk8nv623","","null","","sounds/induction/right/ta_SWS.wav","","null","","","","","","","","","","","","","","","",""
"html-button-response","130","202454","0.0-4.0-1.0-1.36","2","1","ak9s845qk8nv623","","2630","","What sound did you hear?","1","","","1","INDUCTION-JUDGMENT","right","1","","","","","","","","","","",""
"html-keyboard-response","131","203457","0.0-4.0-1.0-2.36","2","1","ak9s845qk8nv623","","null","","<p style=""color:green;""><b>Correct!</b></p>","","null","","","","","","","","","","","","","","","",""
"audio-keyboard-response","132","204258","0.0-4.0-1.0-0.37","2","1","ak9s845qk8nv623","","null","","sounds/induction/left/ko_SWS.wav","","null","","","","","","","","","","","","","","","",""
"html-button-response","133","205553","0.0-4.0-1.0-1.37","2","1","ak9s845qk8nv623","","1294","","What sound did you hear?","1","","","1","INDUCTION-JUDGMENT","left","1","","","","","","","","","","",""
"html-keyboard-response","134","206556","0.0-4.0-1.0-2.37","2","1","ak9s845qk8nv623","","null","","<p style=""color:green;""><b>Correct!</b></p>","","null","","","","","","","","","","","","","","","",""
"audio-keyboard-response","135","207357","0.0-4.0-1.0-0.38","2","1","ak9s845qk8nv623","","null","","sounds/induction/right/re_SWS.wav","","null","","","","","","","","","","","","","","","",""
"html-button-response","136","209267","0.0-4.0-1.0-1.38","2","1","ak9s845qk8nv623","","1908.000000000029","","What sound did you hear?","1","","","1","INDUCTION-JUDGMENT","right","1","","","","","","","","","","",""
"html-keyboard-response","137","210269","0.0-4.0-1.0-2.38","2","1","ak9s845qk8nv623","","null","","<p style=""color:green;""><b>Correct!</b></p>","","null","","","","","","","","","","","","","","","",""
"audio-keyboard-response","138","211071","0.0-4.0-1.0-0.39","2","1","ak9s845qk8nv623","","null","","sounds/induction/right/ru_SWS.wav","","null","","","","","","","","","","","","","","","",""
"html-button-response","139","212672","0.0-4.0-1.0-1.39","2","1","ak9s845qk8nv623","","1600","","What sound did you hear?","1","","","1","INDUCTION-JUDGMENT","right","1","","","","","","","","","","",""
"html-keyboard-response","140","213675","0.0-4.0-1.0-2.39","2","1","ak9s845qk8nv623","","null","","<p style=""color:green;""><b>Correct!</b></p>","","null","","","","","","","","","","","","","","","",""
"audio-keyboard-response","141","214477","0.0-4.0-1.0-0.40","2","1","ak9s845qk8nv623","","null","","sounds/induction/right/ti_SWS.wav","","null","","","","","","","","","","","","","","","",""
"html-button-response","142","215934","0.0-4.0-1.0-1.40","2","1","ak9s845qk8nv623","","1456","","What sound did you hear?","0","","","0","INDUCTION-JUDGMENT","right","1","","","","","","","","","","",""
"html-keyboard-response","143","216936","0.0-4.0-1.0-2.40","2","1","ak9s845qk8nv623","","null","","<p style=""color:red;""><b>Incorrect!</b></p>","","null","","","","","","","","","","","","","","","",""
"audio-keyboard-response","144","217738","0.0-4.0-1.0-0.41","2","1","ak9s845qk8nv623","","null","","sounds/induction/right/ko_SWS.wav","","null","","","","","","","","","","","","","","","",""
"html-button-response","145","219578","0.0-4.0-1.0-1.41","2","1","ak9s845qk8nv623","","1839","","What sound did you hear?","0","","","1","INDUCTION-JUDGMENT","right","0","","","","","","","","","","",""
"html-keyboard-response","146","220580","0.0-4.0-1.0-2.41","2","1","ak9s845qk8nv623","","null","","<p style=""color:green;""><b>Correct!</b></p>","","null","","","","","","","","","","","","","","","",""
"audio-keyboard-response","147","221383","0.0-4.0-1.0-0.42","2","1","ak9s845qk8nv623","","null","","sounds/induction/left/re_SWS.wav","","null","","","","","","","","","","","","","","","",""
"html-button-response","148","222498","0.0-4.0-1.0-1.42","2","1","ak9s845qk8nv623","","1114.000000000029","","What sound did you hear?","0","","","1","INDUCTION-JUDGMENT","left","0","","","","","","","","","","",""
"html-keyboard-response","149","223501","0.0-4.0-1.0-2.42","2","1","ak9s845qk8nv623","","null","","<p style=""color:green;""><b>Correct!</b></p>","","null","","","","","","","","","","","","","","","",""
"audio-keyboard-response","150","224303","0.0-4.0-1.0-0.43","2","1","ak9s845qk8nv623","","null","","sounds/induction/left/fu_SWS.wav","","null","","","","","","","","","","","","","","","",""
"html-button-response","151","226782","0.0-4.0-1.0-1.43","2","1","ak9s845qk8nv623","","2477","","What sound did you hear?","1","","","1","INDUCTION-JUDGMENT","left","1","","","","","","","","","","",""
"html-keyboard-response","152","227784","0.0-4.0-1.0-2.43","2","1","ak9s845qk8nv623","","null","","<p style=""color:green;""><b>Correct!</b></p>","","null","","","","","","","","","","","","","","","",""
"audio-keyboard-response","153","228586","0.0-4.0-1.0-0.44","2","1","ak9s845qk8nv623","","null","","sounds/induction/left/pu_SWS.wav","","null","","","","","","","","","","","","","","","",""
"html-button-response","154","229480","0.0-4.0-1.0-1.44","2","1","ak9s845qk8nv623","","893","","What sound did you hear?","0","","","1","INDUCTION-JUDGMENT","left","0","","","","","","","","","","",""
"html-keyboard-response","155","230482","0.0-4.0-1.0-2.44","2","1","ak9s845qk8nv623","","null","","<p style=""color:green;""><b>Correct!</b></p>","","null","","","","","","","","","","","","","","","",""
"audio-keyboard-response","156","231285","0.0-4.0-1.0-0.45","2","1","ak9s845qk8nv623","","null","","sounds/induction/right/ru_SWS.wav","","null","","","","","","","","","","","","","","","",""
"html-button-response","157","232120","0.0-4.0-1.0-1.45","2","1","ak9s845qk8nv623","","834","","What sound did you hear?","1","","","1","INDUCTION-JUDGMENT","right","1","","","","","","","","","","",""
"html-keyboard-response","158","233122","0.0-4.0-1.0-2.45","2","1","ak9s845qk8nv623","","null","","<p style=""color:green;""><b>Correct!</b></p>","","null","","","","","","","","","","","","","","","",""
"audio-keyboard-response","159","233924","0.0-4.0-1.0-0.46","2","1","ak9s845qk8nv623","","null","","sounds/induction/left/ge_SWS.wav","","null","","","","","","","","","","","","","","","",""
"html-button-response","160","235097","0.0-4.0-1.0-1.46","2","1","ak9s845qk8nv623","","1171","","What sound did you hear?","1","","","1","INDUCTION-JUDGMENT","left","1","","","","","","","","","","",""
"html-keyboard-response","161","236099","0.0-4.0-1.0-2.46","2","1","ak9s845qk8nv623","","null","","<p style=""color:green;""><b>Correct!</b></p>","","null","","","","","","","","","","","","","","","",""
"audio-keyboard-response","162","236900","0.0-4.0-1.0-0.47","2","1","ak9s845qk8nv623","","null","","sounds/induction/left/ge_SWS.wav","","null","","","","","","","","","","","","","","","",""
"html-button-response","163","237719","0.0-4.0-1.0-1.47","2","1","ak9s845qk8nv623","","817.0000000000291","","What sound did you hear?","1","","","1","INDUCTION-JUDGMENT","left","1","","","","","","","","","","",""
"html-keyboard-response","164","238721","0.0-4.0-1.0-2.47","2","1","ak9s845qk8nv623","","null","","<p style=""color:green;""><b>Correct!</b></p>","","null","","","","","","","","","","","","","","","",""
"html-button-response","165","241560","0.0-5.0-0.0","2","1","ak9s845qk8nv623","","2336","","<p>Thank you for your answers.</p><p>You will now listen to similar sounds. The main difference is that the sounds will be longer and will make up complete sentences.</p><p>Please listen carefully to each sentence. After each sentence, you will be asked to type back what you heard to the best of your ability. After you provide your response, you will be given feedback about the correct answer.</p><p>There are 10 sentences in total.","0","","","","","","","","","","","","","","","","",""
"audio-keyboard-response","166","244450","0.0-5.0-1.0-0.0","2","1","ak9s845qk8nv623","","null","","sounds/sentences/right/14_07_cfSWS.wav","","null","","","","","","","","","","","","","","","",""
"sentence-resp","167","260408","0.0-5.0-1.0-1.0","2","1","ak9s845qk8nv623","","15955","","","","","","","SWS-SENT-RESPONSE","","","{""Q0"":""I can’t even make out what it says. Sounds like aliens to me""}","Write a fond note to the friend you cherish.","write,fond,note,friend,cherish","I CAN’T EVEN MAKE OUT WHAT IT SAYS SOUNDS LIKE ALIENS TO ME","0","0","0","0","0","0","0"
"html-keyboard-response","168","261662","0.0-5.0-1.0-2.0","2","1","ak9s845qk8nv623","","null","","","","null","","","","","","","","","","","","","","","",""
"audio-keyboard-response","169","264052","0.0-5.0-1.0-3.0","2","1","ak9s845qk8nv623","","null","","sounds/sentences/right/14_07_cfSWS.wav","","null","","","","","","","","","","","","","","","",""
"html-keyboard-response","170","265055","0.0-5.0-1.0-4.0","2","1","ak9s845qk8nv623","","null","","","","null","","","","","","","","","","","","","","","",""
"html-button-response","171","267036","0.0-5.0-1.0-5.0","2","1","ak9s845qk8nv623","","1479.0000000000582","","<p>Press the button below when you are ready to continue.</p>","0","","","","","","","","","","","","","","","","",""
"audio-keyboard-response","172","269623","0.0-5.0-1.0-0.1","2","1","ak9s845qk8nv623","","null","","sounds/sentences/left/14_03_cfSWS.wav","","null","","","","","","","","","","","","","","","",""
"sentence-resp","173","297623","0.0-5.0-1.0-1.1","2","1","ak9s845qk8nv623","","27998","","","","","","","SWS-SENT-RESPONSE","","","{""Q0"":""It sounded like someone trying to explain something in a gibberish/alien voice ""}","Pluck the bright rose without leaves.","pluck,bright,rose,without,leaves","IT SOUNDED LIKE SOMEONE TRYING TO EXPLAIN SOMETHING IN A GIBBERISH/ALIEN VOICE ","0","0","0","0","0","0","0"
"html-keyboard-response","174","298876","0.0-5.0-1.0-2.1","2","1","ak9s845qk8nv623","","null","","","","null","","","","","","","","","","","","","","","",""
"audio-keyboard-response","175","300959","0.0-5.0-1.0-3.1","2","1","ak9s845qk8nv623","","null","","sounds/sentences/left/14_03_cfSWS.wav","","null","","","","","","","","","","","","","","","",""
"html-keyboard-response","176","301961","0.0-5.0-1.0-4.1","2","1","ak9s845qk8nv623","","null","","","","null","","","","","","","","","","","","","","","",""
"html-button-response","177","304144","0.0-5.0-1.0-5.1","2","1","ak9s845qk8nv623","","1680.0000000000582","","<p>Press the button below when you are ready to continue.</p>","0","","","","","","","","","","","","","","","","",""
"audio-keyboard-response","178","307260","0.0-5.0-1.0-0.2","2","1","ak9s845qk8nv623","","null","","sounds/sentences/left/14_01_cfSWS.wav","","null","","","","","","","","","","","","","","","",""
"sentence-resp","179","316313","0.0-5.0-1.0-1.2","2","1","ak9s845qk8nv623","","9051","","","","","","","SWS-SENT-RESPONSE","","","{""Q0"":""Pluck the right rose with small leaves ""}","A cramp is no small danger on a swim.","cramp,no,small,danger,swim","PLUCK THE RIGHT ROSE WITH SMALL LEAVES ","0","0","1","0","0","1","0.2"
"html-keyboard-response","180","317566","0.0-5.0-1.0-2.2","2","1","ak9s845qk8nv623","","null","","","","null","","","","","","","","","","","","","","","",""
"audio-keyboard-response","181","320183","0.0-5.0-1.0-3.2","2","1","ak9s845qk8nv623","","null","","sounds/sentences/left/14_01_cfSWS.wav","","null","","","","","","","","","","","","","","","",""
"html-keyboard-response","182","321191","0.0-5.0-1.0-4.2","2","1","ak9s845qk8nv623","","null","","","","null","","","","","","","","","","","","","","","",""
"html-button-response","183","322446","0.0-5.0-1.0-5.2","2","1","ak9s845qk8nv623","","754.0000000000582","","<p>Press the button below when you are ready to continue.</p>","0","","","","","","","","","","","","","","","","",""
"audio-keyboard-response","184","325204","0.0-5.0-1.0-0.3","2","1","ak9s845qk8nv623","","null","","sounds/sentences/right/14_08_cfSWS.wav","","null","","","","","","","","","","","","","","","",""
"sentence-resp","185","334917","0.0-5.0-1.0-1.3","2","1","ak9s845qk8nv623","","9711","","","","","","","SWS-SENT-RESPONSE","","","{""Q0"":""A cramp is no small problem on a swim""}","Clothes and lodging are free to new men.","clothes,lodging,free,new,men","A CRAMP IS NO SMALL PROBLEM ON A SWIM","0","0","0","0","0","0","0"
"html-keyboard-response","186","336170","0.0-5.0-1.0-2.3","2","1","ak9s845qk8nv623","","null","","","","null","","","","","","","","","","","","","","","",""
"audio-keyboard-response","187","338425","0.0-5.0-1.0-3.3","2","1","ak9s845qk8nv623","","null","","sounds/sentences/right/14_08_cfSWS.wav","","null","","","","","","","","","","","","","","","",""
"html-keyboard-response","188","339428","0.0-5.0-1.0-4.3","2","1","ak9s845qk8nv623","","null","","","","null","","","","","","","","","","","","","","","",""
"html-button-response","189","341441","0.0-5.0-1.0-5.3","2","1","ak9s845qk8nv623","","1511","","<p>Press the button below when you are ready to continue.</p>","0","","","","","","","","","","","","","","","","",""
"audio-keyboard-response","190","344185","0.0-5.0-1.0-0.4","2","1","ak9s845qk8nv623","","null","","sounds/sentences/right/14_06_cfSWS.wav","","null","","","","","","","","","","","","","","","",""
"sentence-resp","191","353691","0.0-5.0-1.0-1.4","2","1","ak9s845qk8nv623","","9504","","","","","","","SWS-SENT-RESPONSE","","","{""Q0"":""Clothes and feet are lodging to new men""}","Bring your problems to the wise chief.","bring,your,problems,wise,chief","CLOTHES AND FEET ARE LODGING TO NEW MEN","0","0","0","0","0","0","0"
"html-keyboard-response","192","354944","0.0-5.0-1.0-2.4","2","1","ak9s845qk8nv623","","null","","","","null","","","","","","","","","","","","","","","",""
"audio-keyboard-response","193","357187","0.0-5.0-1.0-3.4","2","1","ak9s845qk8nv623","","null","","sounds/sentences/right/14_06_cfSWS.wav","","null","","","","","","","","","","","","","","","",""
"html-keyboard-response","194","358190","0.0-5.0-1.0-4.4","2","1","ak9s845qk8nv623","","null","","","","null","","","","","","","","","","","","","","","",""
"html-button-response","195","359231","0.0-5.0-1.0-5.4","2","1","ak9s845qk8nv623","","539","","<p>Press the button below when you are ready to continue.</p>","0","","","","","","","","","","","","","","","","",""
"audio-keyboard-response","196","361785","0.0-5.0-1.0-0.5","2","1","ak9s845qk8nv623","","null","","sounds/sentences/left/14_04_cfSWS.wav","","null","","","","","","","","","","","","","","","",""
"sentence-resp","197","367282","0.0-5.0-1.0-1.5","2","1","ak9s845qk8nv623","","5495","","","","","","","SWS-SENT-RESPONSE","","","{""Q0"":""Bring your problems to the wise chief ""}","Two plus seven is less than ten.","two,plus,seven,less,ten","BRING YOUR PROBLEMS TO THE WISE CHIEF ","0","0","0","0","0","0","0"
"html-keyboard-response","198","368535","0.0-5.0-1.0-2.5","2","1","ak9s845qk8nv623","","null","","","","null","","","","","","","","","","","","","","","",""
"audio-keyboard-response","199","370588","0.0-5.0-1.0-3.5","2","1","ak9s845qk8nv623","","null","","sounds/sentences/left/14_04_cfSWS.wav","","null","","","","","","","","","","","","","","","",""
"html-keyboard-response","200","371590","0.0-5.0-1.0-4.5","2","1","ak9s845qk8nv623","","null","","","","null","","","","","","","","","","","","","","","",""
"html-button-response","201","372863","0.0-5.0-1.0-5.5","2","1","ak9s845qk8nv623","","772","","<p>Press the button below when you are ready to continue.</p>","0","","","","","","","","","","","","","","","","",""
"audio-keyboard-response","202","375878","0.0-5.0-1.0-0.6","2","1","ak9s845qk8nv623","","null","","sounds/sentences/right/14_10_cfSWS.wav","","null","","","","","","","","","","","","","","","",""
"sentence-resp","203","380790","0.0-5.0-1.0-1.6","2","1","ak9s845qk8nv623","","4911","","","","","","","SWS-SENT-RESPONSE","","","{""Q0"":""Two plus seven is less than ten""}","Port is a strong wine with a smoky taste.","port,strong,wine,smoky,taste","TWO PLUS SEVEN IS LESS THAN TEN","0","0","0","0","0","0","0"
"html-keyboard-response","204","382044","0.0-5.0-1.0-2.6","2","1","ak9s845qk8nv623","","null","","","","null","","","","","","","","","","","","","","","",""
"audio-keyboard-response","205","384558","0.0-5.0-1.0-3.6","2","1","ak9s845qk8nv623","","null","","sounds/sentences/right/14_10_cfSWS.wav","","null","","","","","","","","","","","","","","","",""
"html-keyboard-response","206","385560","0.0-5.0-1.0-4.6","2","1","ak9s845qk8nv623","","null","","","","null","","","","","","","","","","","","","","","",""
"html-button-response","207","386903","0.0-5.0-1.0-5.6","2","1","ak9s845qk8nv623","","841","","<p>Press the button below when you are ready to continue.</p>","0","","","","","","","","","","","","","","","","",""
"audio-keyboard-response","208","389630","0.0-5.0-1.0-0.7","2","1","ak9s845qk8nv623","","null","","sounds/sentences/right/14_09_cfSWS.wav","","null","","","","","","","","","","","","","","","",""
"sentence-resp","209","397281","0.0-5.0-1.0-1.7","2","1","ak9s845qk8nv623","","7650","","","","","","","SWS-SENT-RESPONSE","","","{""Q0"":""Port is a fine wine with a Smokey taste""}","We frown when events take a bad turn.","frown,events,take,bad,turn","PORT IS A FINE WINE WITH A SMOKEY TASTE","0","0","0","0","0","0","0"
"html-keyboard-response","210","398534","0.0-5.0-1.0-2.7","2","1","ak9s845qk8nv623","","null","","","","null","","","","","","","","","","","","","","","",""
"audio-keyboard-response","211","400761","0.0-5.0-1.0-3.7","2","1","ak9s845qk8nv623","","null","","sounds/sentences/right/14_09_cfSWS.wav","","null","","","","","","","","","","","","","","","",""
"html-keyboard-response","212","401763","0.0-5.0-1.0-4.7","2","1","ak9s845qk8nv623","","null","","","","null","","","","","","","","","","","","","","","",""
"html-button-response","213","402794","0.0-5.0-1.0-5.7","2","1","ak9s845qk8nv623","","529","","<p>Press the button below when you are ready to continue.</p>","0","","","","","","","","","","","","","","","","",""
"audio-keyboard-response","214","405614","0.0-5.0-1.0-0.8","2","1","ak9s845qk8nv623","","null","","sounds/sentences/left/14_02_cfSWS.wav","","null","","","","","","","","","","","","","","","",""
"sentence-resp","215","411538","0.0-5.0-1.0-1.8","2","1","ak9s845qk8nv623","","5922","","","","","","","SWS-SENT-RESPONSE","","","{""Q0"":""We frown when events take a bad turn""}","He said the same phrase thirty times.","said,same,phrase,thirty,times","WE FROWN WHEN EVENTS TAKE A BAD TURN","0","0","0","0","0","0","0"
"html-keyboard-response","216","412791","0.0-5.0-1.0-2.8","2","1","ak9s845qk8nv623","","null","","","","null","","","","","","","","","","","","","","","",""
"audio-keyboard-response","217","415110","0.0-5.0-1.0-3.8","2","1","ak9s845qk8nv623","","null","","sounds/sentences/left/14_02_cfSWS.wav","","null","","","","","","","","","","","","","","","",""
"html-keyboard-response","218","416112","0.0-5.0-1.0-4.8","2","1","ak9s845qk8nv623","","null","","","","null","","","","","","","","","","","","","","","",""
"html-button-response","219","417060","0.0-5.0-1.0-5.8","2","1","ak9s845qk8nv623","","446","","<p>Press the button below when you are ready to continue.</p>","0","","","","","","","","","","","","","","","","",""
"audio-keyboard-response","220","420051","0.0-5.0-1.0-0.9","2","1","ak9s845qk8nv623","","null","","sounds/sentences/left/14_05_cfSWS.wav","","null","","","","","","","","","","","","","","","",""
"sentence-resp","221","425097","0.0-5.0-1.0-1.9","2","1","ak9s845qk8nv623","","5044","","","","","","","SWS-SENT-RESPONSE","","","{""Q0"":""Sweet girl""}","The glow deepened in the eyes of the sweet girl.","glow,deepened,eyes,sweet,girl","SWEET GIRL","0","0","0","1","1","2","0.4"
"html-keyboard-response","222","426350","0.0-5.0-1.0-2.9","2","1","ak9s845qk8nv623","","null","","","","null","","","","","","","","","","","","","","","",""
"audio-keyboard-response","223","428838","0.0-5.0-1.0-3.9","2","1","ak9s845qk8nv623","","null","","sounds/sentences/left/14_05_cfSWS.wav","","null","","","","","","","","","","","","","","","",""
"html-keyboard-response","224","429840","0.0-5.0-1.0-4.9","2","1","ak9s845qk8nv623","","null","","","","null","","","","","","","","","","","","","","","",""
"html-button-response","225","431303","0.0-5.0-1.0-5.9","2","1","ak9s845qk8nv623","","961.0000000000582","","<p>Press the button below when you are ready to continue.</p>","0","","","","","","","","","","","","","","","","",""
"html-keyboard-response","226","433331","0.0-6.0-0.0","2","1","ak9s845qk8nv623","","1526","","<p>In this part of the study, you will hear sounds similar to those you just heard.</p><p>Please focus on these sounds, as you may be asked questions about them later.</p><p>Occasionally, the sounds will pause for up to two seconds. When this happens, please press SPACEBAR as quickly as you can.</br>This helps ensure that you are paying attention to the sounds.</p><p>This part of the study will take about 12 minutes to complete, and you will be given the opportunity to take a couple of short breaks every few minutes.</p><p><strong>Press SPACEBAR to begin</strong></p>","","32","","","","","","","","","","","","","","","",""
"html-keyboard-response","227","434333","0.0-6.0-1.0-0.0","2","1","ak9s845qk8nv623","","null","","<p style=""font-size: 40px;"">+</p>","","null","","","","","","","","","","","","","","","",""
