"trial_type","trial_index","time_elapsed","internal_node_id","counterbalance","lang_instruct","ParticipantID","view_history","rt","url","stimulus","button_pressed","key_press","correctRESP","correct","designation","location","correctanswer","responses","sentence","keywords","typed_resp","keyword1_acc","keyword2_acc","keyword3_acc","keyword4_acc","keyword5_acc","total_acc","prop_acc","timeouts","pause_rt01","pause_rt02","train_file","numKeyPress","sound","fam_type","SYLLABLE","EXEMPLAR","TD_LOCS","TD_TYPE","TDLOC_01","TDLOC_02","TDLOC_03","TDLOC_04","TD_RT_01","TD_RT_02","TD_RT_03","TD_RT_04","TD_SUBJ_RTs","number_of_plays","slider_start","response","question_order","syllable","syllable_type"
"pavlovia","0","2","0.0-0.0","1","1","2d13aqfaqbwm1eg","","","","","","","","","","","","","","","","","","","","","","","","","","","","","","","","","","","","","","","","","","","","","","","",""
"instructions","1","149741","0.0-1.0","1","1","2d13aqfaqbwm1eg","[{""page_index"":0,""viewing_time"":2916.2999999821186},{""page_index"":1,""viewing_time"":146818.70000001788}]","149743","","","","","","","","","","","","","","","","","","","","","","","","","","","","","","","","","","","","","","","","","","","","","",""
"external-html","2","162081","0.0-2.0","1","1","2d13aqfaqbwm1eg","","11960.699999988079","consent/consent.html","","","","","","","","","","","","","","","","","","","","","","","","","","","","","","","","","","","","","","","","","","","","",""
"html-button-response","3","166070","0.0-3.0-0.0-0.0","1","1","2d13aqfaqbwm1eg","","3985.7000000178814","","<p>Welcome to the study. You will first complete a short volume calibration and headphone check.</p><p>Please make sure you are in a quiet listening environment, that you are wearing headphones, and that your computer's volume is turned on.<p></p>","0","","","","","","","","","","","","","","","","","","","","","","","","","","","","","","","","","","","","","","","","","","",""
"html-button-response","4","170037","0.0-3.0-0.0-1.0","1","1","2d13aqfaqbwm1eg","","3709.800000011921","","<p>The volume calibration will be first.</p><p>You will hear a thirty-second noise. Please adjust your computer's volume so that this noise is being presented at a comfortable level.<p></p>","0","","","","","","","","","","","","","","","","","","","","","","","","","","","","","","","","","","","","","","","","","","",""
"audio-button-response","5","174587","0.0-3.0-0.0-2.0","1","1","2d13aqfaqbwm1eg","","3787","","audCalib/volumetest.mp3","0","","","","","","","","","","","","","","","","","","","","","","","","","","","","","","","","","","","","","","","","","","",""
"html-button-response","6","186566","0.0-3.0-1.0-0.0","1","1","2d13aqfaqbwm1eg","","11976.300000011921","","<p>You will now complete a short headphone check.</p><p>On each trial, you will hear three tones. One of these tones will be quieter than the others. Your task is to identify whether the quiet tone occured first, second, or third.</p><p>There are six trials in total.<p></p>","0","","","","","","","","","","","","","","","","","","","","","","","","","","","","","","","","","","","","","","","","","","",""
"html-keyboard-response","7","187324","0.0-3.0-1.0-1.0-0.0","1","1","2d13aqfaqbwm1eg","","null","","<div style=""font-size:60px;"">+</div>","","null","","","","","","","","","","","","","","","","","","","","","","","","","","","","","","","","","","","","","","","","","",""
"audio-button-response","8","192138","0.0-3.0-1.0-1.0-1.0","1","1","2d13aqfaqbwm1eg","","4811","","audCalib/t1_2.mp3","0","","0","1","headphone-test","","","","","","","","","","","","","","","","","","","","","","","","","","","","","","","","","","","","","","",""
"html-keyboard-response","9","192896","0.0-3.0-1.0-1.0-0.1","1","1","2d13aqfaqbwm1eg","","null","","<div style=""font-size:60px;"">+</div>","","null","","","","","","","","","","","","","","","","","","","","","","","","","","","","","","","","","","","","","","","","","",""
"audio-button-response","10","197938","0.0-3.0-1.0-1.0-1.1","1","1","2d13aqfaqbwm1eg","","5040","","audCalib/t1_1.mp3","0","","0","1","headphone-test","","","","","","","","","","","","","","","","","","","","","","","","","","","","","","","","","","","","","","",""
"html-keyboard-response","11","198696","0.0-3.0-1.0-1.0-0.2","1","1","2d13aqfaqbwm1eg","","null","","<div style=""font-size:60px;"">+</div>","","null","","","","","","","","","","","","","","","","","","","","","","","","","","","","","","","","","","","","","","","","","",""
"audio-button-response","12","203369","0.0-3.0-1.0-1.0-1.2","1","1","2d13aqfaqbwm1eg","","4672","","audCalib/t2_2.mp3","1","","1","1","headphone-test","","","","","","","","","","","","","","","","","","","","","","","","","","","","","","","","","","","","","","",""
"html-keyboard-response","13","204126","0.0-3.0-1.0-1.0-0.3","1","1","2d13aqfaqbwm1eg","","null","","<div style=""font-size:60px;"">+</div>","","null","","","","","","","","","","","","","","","","","","","","","","","","","","","","","","","","","","","","","","","","","",""
"audio-button-response","14","208669","0.0-3.0-1.0-1.0-1.3","1","1","2d13aqfaqbwm1eg","","4539","","audCalib/t3_1.mp3","2","","2","1","headphone-test","","","","","","","","","","","","","","","","","","","","","","","","","","","","","","","","","","","","","","",""
"html-keyboard-response","15","209422","0.0-3.0-1.0-1.0-0.4","1","1","2d13aqfaqbwm1eg","","null","","<div style=""font-size:60px;"">+</div>","","null","","","","","","","","","","","","","","","","","","","","","","","","","","","","","","","","","","","","","","","","","",""
"audio-button-response","16","214028","0.0-3.0-1.0-1.0-1.4","1","1","2d13aqfaqbwm1eg","","4603","","audCalib/t3_2.mp3","2","","2","1","headphone-test","","","","","","","","","","","","","","","","","","","","","","","","","","","","","","","","","","","","","","",""
"html-keyboard-response","17","214787","0.0-3.0-1.0-1.0-0.5","1","1","2d13aqfaqbwm1eg","","null","","<div style=""font-size:60px;"">+</div>","","null","","","","","","","","","","","","","","","","","","","","","","","","","","","","","","","","","","","","","","","","","",""
"audio-button-response","18","219767","0.0-3.0-1.0-1.0-1.5","1","1","2d13aqfaqbwm1eg","","4976","","audCalib/t2_1.mp3","1","","1","1","headphone-test","","","","","","","","","","","","","","","","","","","","","","","","","","","","","","","","","","","","","","",""
"html-button-response","19","221610","0.0-3.0-2.0","1","1","2d13aqfaqbwm1eg","","1587.800000011921","","<p>The volume calibration and headphone check are now complete.</p>","0","","","","","","","","","","","","","","","","","","","","","","","","","","","","","","","","","","","","","","","","","","",""
"instructions","20","240789","0.0-4.0-0.0","1","1","2d13aqfaqbwm1eg","[{""page_index"":0,""viewing_time"":1539.199999988079},{""page_index"":1,""viewing_time"":15163.800000011921},{""page_index"":2,""viewing_time"":2474.5}]","19178.69999998808","","","","","","","","","","","","","","","","","","","","","","","","","","","","","","","","","","","","","","","","","","","","","",""
"audio-keyboard-response","21","241095","0.0-4.0-1.0-0.0","1","1","2d13aqfaqbwm1eg","","null","","sounds/induction/left/me_SWS.wav","","null","","","","","","","","","","","","","","","","","","","","","","","","","","","","","","","","","","","","","","","","","",""
"html-button-response","22","246177","0.0-4.0-1.0-1.0","1","1","2d13aqfaqbwm1eg","","5079.200000017881","","What sound did you hear?","1","","","1","INDUCTION-JUDGMENT","left","1","","","","","","","","","","","","","","","","","","","","","","","","","","","","","","","","","","","","",""
"html-keyboard-response","23","247182","0.0-4.0-1.0-2.0","1","1","2d13aqfaqbwm1eg","","null","","<p style=""color:green;""><b>Correct!</b></p>","","null","","","","","","","","","","","","","","","","","","","","","","","","","","","","","","","","","","","","","","","","","",""
"audio-keyboard-response","24","247985","0.0-4.0-1.0-0.1","1","1","2d13aqfaqbwm1eg","","null","","sounds/induction/right/ko_SWS.wav","","null","","","","","","","","","","","","","","","","","","","","","","","","","","","","","","","","","","","","","","","","","",""
"html-button-response","25","249570","0.0-4.0-1.0-1.1","1","1","2d13aqfaqbwm1eg","","1581.5","","What sound did you hear?","0","","","1","INDUCTION-JUDGMENT","right","0","","","","","","","","","","","","","","","","","","","","","","","","","","","","","","","","","","","","",""
"html-keyboard-response","26","250575","0.0-4.0-1.0-2.1","1","1","2d13aqfaqbwm1eg","","null","","<p style=""color:green;""><b>Correct!</b></p>","","null","","","","","","","","","","","","","","","","","","","","","","","","","","","","","","","","","","","","","","","","","",""
"audio-keyboard-response","27","251377","0.0-4.0-1.0-0.2","1","1","2d13aqfaqbwm1eg","","null","","sounds/induction/right/ru_SWS.wav","","null","","","","","","","","","","","","","","","","","","","","","","","","","","","","","","","","","","","","","","","","","",""
"html-button-response","28","253290","0.0-4.0-1.0-1.2","1","1","2d13aqfaqbwm1eg","","1911","","What sound did you hear?","0","","","0","INDUCTION-JUDGMENT","right","1","","","","","","","","","","","","","","","","","","","","","","","","","","","","","","","","","","","","",""
"html-keyboard-response","29","254296","0.0-4.0-1.0-2.2","1","1","2d13aqfaqbwm1eg","","null","","<p style=""color:red;""><b>Incorrect!</b></p>","","null","","","","","","","","","","","","","","","","","","","","","","","","","","","","","","","","","","","","","","","","","",""
"audio-keyboard-response","30","255100","0.0-4.0-1.0-0.3","1","1","2d13aqfaqbwm1eg","","null","","sounds/induction/right/ko_SWS.wav","","null","","","","","","","","","","","","","","","","","","","","","","","","","","","","","","","","","","","","","","","","","",""
"html-button-response","31","256283","0.0-4.0-1.0-1.3","1","1","2d13aqfaqbwm1eg","","1181.7999999821186","","What sound did you hear?","0","","","1","INDUCTION-JUDGMENT","right","0","","","","","","","","","","","","","","","","","","","","","","","","","","","","","","","","","","","","",""
"html-keyboard-response","32","257291","0.0-4.0-1.0-2.3","1","1","2d13aqfaqbwm1eg","","null","","<p style=""color:green;""><b>Correct!</b></p>","","null","","","","","","","","","","","","","","","","","","","","","","","","","","","","","","","","","","","","","","","","","",""
"audio-keyboard-response","33","258097","0.0-4.0-1.0-0.4","1","1","2d13aqfaqbwm1eg","","null","","sounds/induction/right/fe_SWS.wav","","null","","","","","","","","","","","","","","","","","","","","","","","","","","","","","","","","","","","","","","","","","",""
"html-button-response","34","259223","0.0-4.0-1.0-1.4","1","1","2d13aqfaqbwm1eg","","1122.699999988079","","What sound did you hear?","0","","","1","INDUCTION-JUDGMENT","right","0","","","","","","","","","","","","","","","","","","","","","","","","","","","","","","","","","","","","",""
"html-keyboard-response","35","260230","0.0-4.0-1.0-2.4","1","1","2d13aqfaqbwm1eg","","null","","<p style=""color:green;""><b>Correct!</b></p>","","null","","","","","","","","","","","","","","","","","","","","","","","","","","","","","","","","","","","","","","","","","",""
"audio-keyboard-response","36","261036","0.0-4.0-1.0-0.5","1","1","2d13aqfaqbwm1eg","","null","","sounds/induction/right/ti_SWS.wav","","null","","","","","","","","","","","","","","","","","","","","","","","","","","","","","","","","","","","","","","","","","",""
"html-button-response","37","262159","0.0-4.0-1.0-1.5","1","1","2d13aqfaqbwm1eg","","1120.5999999940395","","What sound did you hear?","1","","","1","INDUCTION-JUDGMENT","right","1","","","","","","","","","","","","","","","","","","","","","","","","","","","","","","","","","","","","",""
"html-keyboard-response","38","263166","0.0-4.0-1.0-2.5","1","1","2d13aqfaqbwm1eg","","null","","<p style=""color:green;""><b>Correct!</b></p>","","null","","","","","","","","","","","","","","","","","","","","","","","","","","","","","","","","","","","","","","","","","",""
"audio-keyboard-response","39","263974","0.0-4.0-1.0-0.6","1","1","2d13aqfaqbwm1eg","","null","","sounds/induction/right/ge_SWS.wav","","null","","","","","","","","","","","","","","","","","","","","","","","","","","","","","","","","","","","","","","","","","",""
"html-button-response","40","265201","0.0-4.0-1.0-1.6","1","1","2d13aqfaqbwm1eg","","1225","","What sound did you hear?","0","","","1","INDUCTION-JUDGMENT","right","0","","","","","","","","","","","","","","","","","","","","","","","","","","","","","","","","","","","","",""
"html-keyboard-response","41","266204","0.0-4.0-1.0-2.6","1","1","2d13aqfaqbwm1eg","","null","","<p style=""color:green;""><b>Correct!</b></p>","","null","","","","","","","","","","","","","","","","","","","","","","","","","","","","","","","","","","","","","","","","","",""
"audio-keyboard-response","42","267009","0.0-4.0-1.0-0.7","1","1","2d13aqfaqbwm1eg","","null","","sounds/induction/right/pu_SWS.wav","","null","","","","","","","","","","","","","","","","","","","","","","","","","","","","","","","","","","","","","","","","","",""
"html-button-response","43","268401","0.0-4.0-1.0-1.7","1","1","2d13aqfaqbwm1eg","","1390.8999999761581","","What sound did you hear?","1","","","1","INDUCTION-JUDGMENT","right","1","","","","","","","","","","","","","","","","","","","","","","","","","","","","","","","","","","","","",""
"html-keyboard-response","44","269407","0.0-4.0-1.0-2.7","1","1","2d13aqfaqbwm1eg","","null","","<p style=""color:green;""><b>Correct!</b></p>","","null","","","","","","","","","","","","","","","","","","","","","","","","","","","","","","","","","","","","","","","","","",""
"audio-keyboard-response","45","270214","0.0-4.0-1.0-0.8","1","1","2d13aqfaqbwm1eg","","null","","sounds/induction/right/re_SWS.wav","","null","","","","","","","","","","","","","","","","","","","","","","","","","","","","","","","","","","","","","","","","","",""
"html-button-response","46","271675","0.0-4.0-1.0-1.8","1","1","2d13aqfaqbwm1eg","","1457.199999988079","","What sound did you hear?","1","","","1","INDUCTION-JUDGMENT","right","1","","","","","","","","","","","","","","","","","","","","","","","","","","","","","","","","","","","","",""
"html-keyboard-response","47","272678","0.0-4.0-1.0-2.8","1","1","2d13aqfaqbwm1eg","","null","","<p style=""color:green;""><b>Correct!</b></p>","","null","","","","","","","","","","","","","","","","","","","","","","","","","","","","","","","","","","","","","","","","","",""
"audio-keyboard-response","48","273483","0.0-4.0-1.0-0.9","1","1","2d13aqfaqbwm1eg","","null","","sounds/induction/right/pu_SWS.wav","","null","","","","","","","","","","","","","","","","","","","","","","","","","","","","","","","","","","","","","","","","","",""
"html-button-response","49","274756","0.0-4.0-1.0-1.9","1","1","2d13aqfaqbwm1eg","","1271.699999988079","","What sound did you hear?","1","","","1","INDUCTION-JUDGMENT","right","1","","","","","","","","","","","","","","","","","","","","","","","","","","","","","","","","","","","","",""
"html-keyboard-response","50","275759","0.0-4.0-1.0-2.9","1","1","2d13aqfaqbwm1eg","","null","","<p style=""color:green;""><b>Correct!</b></p>","","null","","","","","","","","","","","","","","","","","","","","","","","","","","","","","","","","","","","","","","","","","",""
"audio-keyboard-response","51","276561","0.0-4.0-1.0-0.10","1","1","2d13aqfaqbwm1eg","","null","","sounds/induction/left/fu_SWS.wav","","null","","","","","","","","","","","","","","","","","","","","","","","","","","","","","","","","","","","","","","","","","",""
"html-button-response","52","278252","0.0-4.0-1.0-1.10","1","1","2d13aqfaqbwm1eg","","1689.699999988079","","What sound did you hear?","1","","","1","INDUCTION-JUDGMENT","left","1","","","","","","","","","","","","","","","","","","","","","","","","","","","","","","","","","","","","",""
"html-keyboard-response","53","279258","0.0-4.0-1.0-2.10","1","1","2d13aqfaqbwm1eg","","null","","<p style=""color:green;""><b>Correct!</b></p>","","null","","","","","","","","","","","","","","","","","","","","","","","","","","","","","","","","","","","","","","","","","",""
"audio-keyboard-response","54","280065","0.0-4.0-1.0-0.11","1","1","2d13aqfaqbwm1eg","","null","","sounds/induction/right/fu_SWS.wav","","null","","","","","","","","","","","","","","","","","","","","","","","","","","","","","","","","","","","","","","","","","",""
"html-button-response","55","281748","0.0-4.0-1.0-1.11","1","1","2d13aqfaqbwm1eg","","1681.300000011921","","What sound did you hear?","0","","","1","INDUCTION-JUDGMENT","right","0","","","","","","","","","","","","","","","","","","","","","","","","","","","","","","","","","","","","",""
"html-keyboard-response","56","282753","0.0-4.0-1.0-2.11","1","1","2d13aqfaqbwm1eg","","null","","<p style=""color:green;""><b>Correct!</b></p>","","null","","","","","","","","","","","","","","","","","","","","","","","","","","","","","","","","","","","","","","","","","",""
"audio-keyboard-response","57","283558","0.0-4.0-1.0-0.12","1","1","2d13aqfaqbwm1eg","","null","","sounds/induction/right/fe_SWS.wav","","null","","","","","","","","","","","","","","","","","","","","","","","","","","","","","","","","","","","","","","","","","",""
"html-button-response","58","285381","0.0-4.0-1.0-1.12","1","1","2d13aqfaqbwm1eg","","1821.5","","What sound did you hear?","0","","","1","INDUCTION-JUDGMENT","right","0","","","","","","","","","","","","","","","","","","","","","","","","","","","","","","","","","","","","",""
"html-keyboard-response","59","286386","0.0-4.0-1.0-2.12","1","1","2d13aqfaqbwm1eg","","null","","<p style=""color:green;""><b>Correct!</b></p>","","null","","","","","","","","","","","","","","","","","","","","","","","","","","","","","","","","","","","","","","","","","",""
"audio-keyboard-response","60","287195","0.0-4.0-1.0-0.13","1","1","2d13aqfaqbwm1eg","","null","","sounds/induction/left/ta_SWS.wav","","null","","","","","","","","","","","","","","","","","","","","","","","","","","","","","","","","","","","","","","","","","",""
"html-button-response","61","288684","0.0-4.0-1.0-1.13","1","1","2d13aqfaqbwm1eg","","1487.7999999821186","","What sound did you hear?","0","","","1","INDUCTION-JUDGMENT","left","0","","","","","","","","","","","","","","","","","","","","","","","","","","","","","","","","","","","","",""
"html-keyboard-response","62","289689","0.0-4.0-1.0-2.13","1","1","2d13aqfaqbwm1eg","","null","","<p style=""color:green;""><b>Correct!</b></p>","","null","","","","","","","","","","","","","","","","","","","","","","","","","","","","","","","","","","","","","","","","","",""
"audio-keyboard-response","63","290496","0.0-4.0-1.0-0.14","1","1","2d13aqfaqbwm1eg","","null","","sounds/induction/right/fu_SWS.wav","","null","","","","","","","","","","","","","","","","","","","","","","","","","","","","","","","","","","","","","","","","","",""
"html-button-response","64","291822","0.0-4.0-1.0-1.14","1","1","2d13aqfaqbwm1eg","","1324.199999988079","","What sound did you hear?","0","","","1","INDUCTION-JUDGMENT","right","0","","","","","","","","","","","","","","","","","","","","","","","","","","","","","","","","","","","","",""
"html-keyboard-response","65","292824","0.0-4.0-1.0-2.14","1","1","2d13aqfaqbwm1eg","","null","","<p style=""color:green;""><b>Correct!</b></p>","","null","","","","","","","","","","","","","","","","","","","","","","","","","","","","","","","","","","","","","","","","","",""
"audio-keyboard-response","66","293632","0.0-4.0-1.0-0.15","1","1","2d13aqfaqbwm1eg","","null","","sounds/induction/left/ti_SWS.wav","","null","","","","","","","","","","","","","","","","","","","","","","","","","","","","","","","","","","","","","","","","","",""
"html-button-response","67","294703","0.0-4.0-1.0-1.15","1","1","2d13aqfaqbwm1eg","","1069.800000011921","","What sound did you hear?","0","","","1","INDUCTION-JUDGMENT","left","0","","","","","","","","","","","","","","","","","","","","","","","","","","","","","","","","","","","","",""
"html-keyboard-response","68","295705","0.0-4.0-1.0-2.15","1","1","2d13aqfaqbwm1eg","","null","","<p style=""color:green;""><b>Correct!</b></p>","","null","","","","","","","","","","","","","","","","","","","","","","","","","","","","","","","","","","","","","","","","","",""
"audio-keyboard-response","69","296512","0.0-4.0-1.0-0.16","1","1","2d13aqfaqbwm1eg","","null","","sounds/induction/left/pu_SWS.wav","","null","","","","","","","","","","","","","","","","","","","","","","","","","","","","","","","","","","","","","","","","","",""
"html-button-response","70","297585","0.0-4.0-1.0-1.16","1","1","2d13aqfaqbwm1eg","","1072.4000000059605","","What sound did you hear?","0","","","1","INDUCTION-JUDGMENT","left","0","","","","","","","","","","","","","","","","","","","","","","","","","","","","","","","","","","","","",""
"html-keyboard-response","71","298589","0.0-4.0-1.0-2.16","1","1","2d13aqfaqbwm1eg","","null","","<p style=""color:green;""><b>Correct!</b></p>","","null","","","","","","","","","","","","","","","","","","","","","","","","","","","","","","","","","","","","","","","","","",""
"audio-keyboard-response","72","299398","0.0-4.0-1.0-0.17","1","1","2d13aqfaqbwm1eg","","null","","sounds/induction/right/ru_SWS.wav","","null","","","","","","","","","","","","","","","","","","","","","","","","","","","","","","","","","","","","","","","","","",""
"html-button-response","73","301136","0.0-4.0-1.0-1.17","1","1","2d13aqfaqbwm1eg","","1736.199999988079","","What sound did you hear?","1","","","1","INDUCTION-JUDGMENT","right","1","","","","","","","","","","","","","","","","","","","","","","","","","","","","","","","","","","","","",""
"html-keyboard-response","74","302143","0.0-4.0-1.0-2.17","1","1","2d13aqfaqbwm1eg","","null","","<p style=""color:green;""><b>Correct!</b></p>","","null","","","","","","","","","","","","","","","","","","","","","","","","","","","","","","","","","","","","","","","","","",""
"audio-keyboard-response","75","302944","0.0-4.0-1.0-0.18","1","1","2d13aqfaqbwm1eg","","null","","sounds/induction/right/ta_SWS.wav","","null","","","","","","","","","","","","","","","","","","","","","","","","","","","","","","","","","","","","","","","","","",""
"html-button-response","76","303977","0.0-4.0-1.0-1.18","1","1","2d13aqfaqbwm1eg","","1032.4000000059605","","What sound did you hear?","1","","","1","INDUCTION-JUDGMENT","right","1","","","","","","","","","","","","","","","","","","","","","","","","","","","","","","","","","","","","",""
"html-keyboard-response","77","304982","0.0-4.0-1.0-2.18","1","1","2d13aqfaqbwm1eg","","null","","<p style=""color:green;""><b>Correct!</b></p>","","null","","","","","","","","","","","","","","","","","","","","","","","","","","","","","","","","","","","","","","","","","",""
"audio-keyboard-response","78","305787","0.0-4.0-1.0-0.19","1","1","2d13aqfaqbwm1eg","","null","","sounds/induction/right/ti_SWS.wav","","null","","","","","","","","","","","","","","","","","","","","","","","","","","","","","","","","","","","","","","","","","",""
"html-button-response","79","306740","0.0-4.0-1.0-1.19","1","1","2d13aqfaqbwm1eg","","951.5999999940395","","What sound did you hear?","1","","","1","INDUCTION-JUDGMENT","right","1","","","","","","","","","","","","","","","","","","","","","","","","","","","","","","","","","","","","",""
"html-keyboard-response","80","307743","0.0-4.0-1.0-2.19","1","1","2d13aqfaqbwm1eg","","null","","<p style=""color:green;""><b>Correct!</b></p>","","null","","","","","","","","","","","","","","","","","","","","","","","","","","","","","","","","","","","","","","","","","",""
"audio-keyboard-response","81","308555","0.0-4.0-1.0-0.20","1","1","2d13aqfaqbwm1eg","","null","","sounds/induction/right/me_SWS.wav","","null","","","","","","","","","","","","","","","","","","","","","","","","","","","","","","","","","","","","","","","","","",""
"html-button-response","82","309494","0.0-4.0-1.0-1.20","1","1","2d13aqfaqbwm1eg","","937.9000000059605","","What sound did you hear?","0","","","1","INDUCTION-JUDGMENT","right","0","","","","","","","","","","","","","","","","","","","","","","","","","","","","","","","","","","","","",""
"html-keyboard-response","83","310498","0.0-4.0-1.0-2.20","1","1","2d13aqfaqbwm1eg","","null","","<p style=""color:green;""><b>Correct!</b></p>","","null","","","","","","","","","","","","","","","","","","","","","","","","","","","","","","","","","","","","","","","","","",""
"audio-keyboard-response","84","311306","0.0-4.0-1.0-0.21","1","1","2d13aqfaqbwm1eg","","null","","sounds/induction/left/ko_SWS.wav","","null","","","","","","","","","","","","","","","","","","","","","","","","","","","","","","","","","","","","","","","","","",""
"html-button-response","85","312328","0.0-4.0-1.0-1.21","1","1","2d13aqfaqbwm1eg","","1020.5","","What sound did you hear?","1","","","1","INDUCTION-JUDGMENT","left","1","","","","","","","","","","","","","","","","","","","","","","","","","","","","","","","","","","","","",""
"html-keyboard-response","86","313333","0.0-4.0-1.0-2.21","1","1","2d13aqfaqbwm1eg","","null","","<p style=""color:green;""><b>Correct!</b></p>","","null","","","","","","","","","","","","","","","","","","","","","","","","","","","","","","","","","","","","","","","","","",""
"audio-keyboard-response","87","314138","0.0-4.0-1.0-0.22","1","1","2d13aqfaqbwm1eg","","null","","sounds/induction/right/ge_SWS.wav","","null","","","","","","","","","","","","","","","","","","","","","","","","","","","","","","","","","","","","","","","","","",""
"html-button-response","88","315504","0.0-4.0-1.0-1.22","1","1","2d13aqfaqbwm1eg","","1362.9000000059605","","What sound did you hear?","0","","","1","INDUCTION-JUDGMENT","right","0","","","","","","","","","","","","","","","","","","","","","","","","","","","","","","","","","","","","",""
"html-keyboard-response","89","316509","0.0-4.0-1.0-2.22","1","1","2d13aqfaqbwm1eg","","null","","<p style=""color:green;""><b>Correct!</b></p>","","null","","","","","","","","","","","","","","","","","","","","","","","","","","","","","","","","","","","","","","","","","",""
"audio-keyboard-response","90","317312","0.0-4.0-1.0-0.23","1","1","2d13aqfaqbwm1eg","","null","","sounds/induction/left/ta_SWS.wav","","null","","","","","","","","","","","","","","","","","","","","","","","","","","","","","","","","","","","","","","","","","",""
"html-button-response","91","318155","0.0-4.0-1.0-1.23","1","1","2d13aqfaqbwm1eg","","841.8000000119209","","What sound did you hear?","0","","","1","INDUCTION-JUDGMENT","left","0","","","","","","","","","","","","","","","","","","","","","","","","","","","","","","","","","","","","",""
"html-keyboard-response","92","319161","0.0-4.0-1.0-2.23","1","1","2d13aqfaqbwm1eg","","null","","<p style=""color:green;""><b>Correct!</b></p>","","null","","","","","","","","","","","","","","","","","","","","","","","","","","","","","","","","","","","","","","","","","",""
"audio-keyboard-response","93","319962","0.0-4.0-1.0-0.24","1","1","2d13aqfaqbwm1eg","","null","","sounds/induction/left/ni_SWS.wav","","null","","","","","","","","","","","","","","","","","","","","","","","","","","","","","","","","","","","","","","","","","",""
"html-button-response","94","321992","0.0-4.0-1.0-1.24","1","1","2d13aqfaqbwm1eg","","2028.199999988079","","What sound did you hear?","0","","","0","INDUCTION-JUDGMENT","left","1","","","","","","","","","","","","","","","","","","","","","","","","","","","","","","","","","","","","",""
"html-keyboard-response","95","322995","0.0-4.0-1.0-2.24","1","1","2d13aqfaqbwm1eg","","null","","<p style=""color:red;""><b>Incorrect!</b></p>","","null","","","","","","","","","","","","","","","","","","","","","","","","","","","","","","","","","","","","","","","","","",""
"audio-keyboard-response","96","323802","0.0-4.0-1.0-0.25","1","1","2d13aqfaqbwm1eg","","null","","sounds/induction/right/su_SWS.wav","","null","","","","","","","","","","","","","","","","","","","","","","","","","","","","","","","","","","","","","","","","","",""
"html-button-response","97","325120","0.0-4.0-1.0-1.25","1","1","2d13aqfaqbwm1eg","","1315.5999999940395","","What sound did you hear?","1","","","1","INDUCTION-JUDGMENT","right","1","","","","","","","","","","","","","","","","","","","","","","","","","","","","","","","","","","","","",""
"html-keyboard-response","98","326124","0.0-4.0-1.0-2.25","1","1","2d13aqfaqbwm1eg","","null","","<p style=""color:green;""><b>Correct!</b></p>","","null","","","","","","","","","","","","","","","","","","","","","","","","","","","","","","","","","","","","","","","","","",""
"audio-keyboard-response","99","326927","0.0-4.0-1.0-0.26","1","1","2d13aqfaqbwm1eg","","null","","sounds/induction/right/su_SWS.wav","","null","","","","","","","","","","","","","","","","","","","","","","","","","","","","","","","","","","","","","","","","","",""
"html-button-response","100","327762","0.0-4.0-1.0-1.26","1","1","2d13aqfaqbwm1eg","","833.4000000059605","","What sound did you hear?","1","","","1","INDUCTION-JUDGMENT","right","1","","","","","","","","","","","","","","","","","","","","","","","","","","","","","","","","","","","","",""
"html-keyboard-response","101","328765","0.0-4.0-1.0-2.26","1","1","2d13aqfaqbwm1eg","","null","","<p style=""color:green;""><b>Correct!</b></p>","","null","","","","","","","","","","","","","","","","","","","","","","","","","","","","","","","","","","","","","","","","","",""
"audio-keyboard-response","102","329567","0.0-4.0-1.0-0.27","1","1","2d13aqfaqbwm1eg","","null","","sounds/induction/left/me_SWS.wav","","null","","","","","","","","","","","","","","","","","","","","","","","","","","","","","","","","","","","","","","","","","",""
"html-button-response","103","330372","0.0-4.0-1.0-1.27","1","1","2d13aqfaqbwm1eg","","803.7000000178814","","What sound did you hear?","1","","","1","INDUCTION-JUDGMENT","left","1","","","","","","","","","","","","","","","","","","","","","","","","","","","","","","","","","","","","",""
"html-keyboard-response","104","331379","0.0-4.0-1.0-2.27","1","1","2d13aqfaqbwm1eg","","null","","<p style=""color:green;""><b>Correct!</b></p>","","null","","","","","","","","","","","","","","","","","","","","","","","","","","","","","","","","","","","","","","","","","",""
"audio-keyboard-response","105","332180","0.0-4.0-1.0-0.28","1","1","2d13aqfaqbwm1eg","","null","","sounds/induction/left/ni_SWS.wav","","null","","","","","","","","","","","","","","","","","","","","","","","","","","","","","","","","","","","","","","","","","",""
"html-button-response","106","333339","0.0-4.0-1.0-1.28","1","1","2d13aqfaqbwm1eg","","1157.9000000059605","","What sound did you hear?","1","","","1","INDUCTION-JUDGMENT","left","1","","","","","","","","","","","","","","","","","","","","","","","","","","","","","","","","","","","","",""
"html-keyboard-response","107","334344","0.0-4.0-1.0-2.28","1","1","2d13aqfaqbwm1eg","","null","","<p style=""color:green;""><b>Correct!</b></p>","","null","","","","","","","","","","","","","","","","","","","","","","","","","","","","","","","","","","","","","","","","","",""
"audio-keyboard-response","108","335146","0.0-4.0-1.0-0.29","1","1","2d13aqfaqbwm1eg","","null","","sounds/induction/left/ru_SWS.wav","","null","","","","","","","","","","","","","","","","","","","","","","","","","","","","","","","","","","","","","","","","","",""
"html-button-response","109","336239","0.0-4.0-1.0-1.29","1","1","2d13aqfaqbwm1eg","","1090.199999988079","","What sound did you hear?","0","","","1","INDUCTION-JUDGMENT","left","0","","","","","","","","","","","","","","","","","","","","","","","","","","","","","","","","","","","","",""
"html-keyboard-response","110","337245","0.0-4.0-1.0-2.29","1","1","2d13aqfaqbwm1eg","","null","","<p style=""color:green;""><b>Correct!</b></p>","","null","","","","","","","","","","","","","","","","","","","","","","","","","","","","","","","","","","","","","","","","","",""
"audio-keyboard-response","111","338052","0.0-4.0-1.0-0.30","1","1","2d13aqfaqbwm1eg","","null","","sounds/induction/right/me_SWS.wav","","null","","","","","","","","","","","","","","","","","","","","","","","","","","","","","","","","","","","","","","","","","",""
"html-button-response","112","339279","0.0-4.0-1.0-1.30","1","1","2d13aqfaqbwm1eg","","1224.4000000059605","","What sound did you hear?","0","","","1","INDUCTION-JUDGMENT","right","0","","","","","","","","","","","","","","","","","","","","","","","","","","","","","","","","","","","","",""
"html-keyboard-response","113","340281","0.0-4.0-1.0-2.30","1","1","2d13aqfaqbwm1eg","","null","","<p style=""color:green;""><b>Correct!</b></p>","","null","","","","","","","","","","","","","","","","","","","","","","","","","","","","","","","","","","","","","","","","","",""
"audio-keyboard-response","114","341087","0.0-4.0-1.0-0.31","1","1","2d13aqfaqbwm1eg","","null","","sounds/induction/left/su_SWS.wav","","null","","","","","","","","","","","","","","","","","","","","","","","","","","","","","","","","","","","","","","","","","",""
"html-button-response","115","342160","0.0-4.0-1.0-1.31","1","1","2d13aqfaqbwm1eg","","1070.5","","What sound did you hear?","0","","","1","INDUCTION-JUDGMENT","left","0","","","","","","","","","","","","","","","","","","","","","","","","","","","","","","","","","","","","",""
"html-keyboard-response","116","343162","0.0-4.0-1.0-2.31","1","1","2d13aqfaqbwm1eg","","null","","<p style=""color:green;""><b>Correct!</b></p>","","null","","","","","","","","","","","","","","","","","","","","","","","","","","","","","","","","","","","","","","","","","",""
"audio-keyboard-response","117","343967","0.0-4.0-1.0-0.32","1","1","2d13aqfaqbwm1eg","","null","","sounds/induction/right/re_SWS.wav","","null","","","","","","","","","","","","","","","","","","","","","","","","","","","","","","","","","","","","","","","","","",""
"html-button-response","118","344977","0.0-4.0-1.0-1.32","1","1","2d13aqfaqbwm1eg","","1008.8999999761581","","What sound did you hear?","1","","","1","INDUCTION-JUDGMENT","right","1","","","","","","","","","","","","","","","","","","","","","","","","","","","","","","","","","","","","",""
"html-keyboard-response","119","345980","0.0-4.0-1.0-2.32","1","1","2d13aqfaqbwm1eg","","null","","<p style=""color:green;""><b>Correct!</b></p>","","null","","","","","","","","","","","","","","","","","","","","","","","","","","","","","","","","","","","","","","","","","",""
"audio-keyboard-response","120","346783","0.0-4.0-1.0-0.33","1","1","2d13aqfaqbwm1eg","","null","","sounds/induction/right/ni_SWS.wav","","null","","","","","","","","","","","","","","","","","","","","","","","","","","","","","","","","","","","","","","","","","",""
"html-button-response","121","347573","0.0-4.0-1.0-1.33","1","1","2d13aqfaqbwm1eg","","788.7000000178814","","What sound did you hear?","0","","","1","INDUCTION-JUDGMENT","right","0","","","","","","","","","","","","","","","","","","","","","","","","","","","","","","","","","","","","",""
"html-keyboard-response","122","348580","0.0-4.0-1.0-2.33","1","1","2d13aqfaqbwm1eg","","null","","<p style=""color:green;""><b>Correct!</b></p>","","null","","","","","","","","","","","","","","","","","","","","","","","","","","","","","","","","","","","","","","","","","",""
"audio-keyboard-response","123","349386","0.0-4.0-1.0-0.34","1","1","2d13aqfaqbwm1eg","","null","","sounds/induction/left/fu_SWS.wav","","null","","","","","","","","","","","","","","","","","","","","","","","","","","","","","","","","","","","","","","","","","",""
"html-button-response","124","350420","0.0-4.0-1.0-1.34","1","1","2d13aqfaqbwm1eg","","1032.300000011921","","What sound did you hear?","1","","","1","INDUCTION-JUDGMENT","left","1","","","","","","","","","","","","","","","","","","","","","","","","","","","","","","","","","","","","",""
"html-keyboard-response","125","351426","0.0-4.0-1.0-2.34","1","1","2d13aqfaqbwm1eg","","null","","<p style=""color:green;""><b>Correct!</b></p>","","null","","","","","","","","","","","","","","","","","","","","","","","","","","","","","","","","","","","","","","","","","",""
"audio-keyboard-response","126","352228","0.0-4.0-1.0-0.35","1","1","2d13aqfaqbwm1eg","","null","","sounds/induction/left/ge_SWS.wav","","null","","","","","","","","","","","","","","","","","","","","","","","","","","","","","","","","","","","","","","","","","",""
"html-button-response","127","353406","0.0-4.0-1.0-1.35","1","1","2d13aqfaqbwm1eg","","1175.4000000059605","","What sound did you hear?","1","","","1","INDUCTION-JUDGMENT","left","1","","","","","","","","","","","","","","","","","","","","","","","","","","","","","","","","","","","","",""
"html-keyboard-response","128","354408","0.0-4.0-1.0-2.35","1","1","2d13aqfaqbwm1eg","","null","","<p style=""color:green;""><b>Correct!</b></p>","","null","","","","","","","","","","","","","","","","","","","","","","","","","","","","","","","","","","","","","","","","","",""
"audio-keyboard-response","129","355215","0.0-4.0-1.0-0.36","1","1","2d13aqfaqbwm1eg","","null","","sounds/induction/left/ru_SWS.wav","","null","","","","","","","","","","","","","","","","","","","","","","","","","","","","","","","","","","","","","","","","","",""
"html-button-response","130","356327","0.0-4.0-1.0-1.36","1","1","2d13aqfaqbwm1eg","","1110.5","","What sound did you hear?","0","","","1","INDUCTION-JUDGMENT","left","0","","","","","","","","","","","","","","","","","","","","","","","","","","","","","","","","","","","","",""
"html-keyboard-response","131","357332","0.0-4.0-1.0-2.36","1","1","2d13aqfaqbwm1eg","","null","","<p style=""color:green;""><b>Correct!</b></p>","","null","","","","","","","","","","","","","","","","","","","","","","","","","","","","","","","","","","","","","","","","","",""
"audio-keyboard-response","132","358137","0.0-4.0-1.0-0.37","1","1","2d13aqfaqbwm1eg","","null","","sounds/induction/left/pu_SWS.wav","","null","","","","","","","","","","","","","","","","","","","","","","","","","","","","","","","","","","","","","","","","","",""
"html-button-response","133","359097","0.0-4.0-1.0-1.37","1","1","2d13aqfaqbwm1eg","","958.1999999880791","","What sound did you hear?","0","","","1","INDUCTION-JUDGMENT","left","0","","","","","","","","","","","","","","","","","","","","","","","","","","","","","","","","","","","","",""
"html-keyboard-response","134","360101","0.0-4.0-1.0-2.37","1","1","2d13aqfaqbwm1eg","","null","","<p style=""color:green;""><b>Correct!</b></p>","","null","","","","","","","","","","","","","","","","","","","","","","","","","","","","","","","","","","","","","","","","","",""
"audio-keyboard-response","135","360905","0.0-4.0-1.0-0.38","1","1","2d13aqfaqbwm1eg","","null","","sounds/induction/right/ta_SWS.wav","","null","","","","","","","","","","","","","","","","","","","","","","","","","","","","","","","","","","","","","","","","","",""
"html-button-response","136","362019","0.0-4.0-1.0-1.38","1","1","2d13aqfaqbwm1eg","","1112","","What sound did you hear?","1","","","1","INDUCTION-JUDGMENT","right","1","","","","","","","","","","","","","","","","","","","","","","","","","","","","","","","","","","","","",""
"html-keyboard-response","137","363023","0.0-4.0-1.0-2.38","1","1","2d13aqfaqbwm1eg","","null","","<p style=""color:green;""><b>Correct!</b></p>","","null","","","","","","","","","","","","","","","","","","","","","","","","","","","","","","","","","","","","","","","","","",""
"audio-keyboard-response","138","363833","0.0-4.0-1.0-0.39","1","1","2d13aqfaqbwm1eg","","null","","sounds/induction/left/ti_SWS.wav","","null","","","","","","","","","","","","","","","","","","","","","","","","","","","","","","","","","","","","","","","","","",""
"html-button-response","139","364598","0.0-4.0-1.0-1.39","1","1","2d13aqfaqbwm1eg","","763.1999999880791","","What sound did you hear?","0","","","1","INDUCTION-JUDGMENT","left","0","","","","","","","","","","","","","","","","","","","","","","","","","","","","","","","","","","","","",""
"html-keyboard-response","140","365605","0.0-4.0-1.0-2.39","1","1","2d13aqfaqbwm1eg","","null","","<p style=""color:green;""><b>Correct!</b></p>","","null","","","","","","","","","","","","","","","","","","","","","","","","","","","","","","","","","","","","","","","","","",""
"audio-keyboard-response","141","366409","0.0-4.0-1.0-0.40","1","1","2d13aqfaqbwm1eg","","null","","sounds/induction/left/fe_SWS.wav","","null","","","","","","","","","","","","","","","","","","","","","","","","","","","","","","","","","","","","","","","","","",""
"html-button-response","142","367353","0.0-4.0-1.0-1.40","1","1","2d13aqfaqbwm1eg","","941.4000000059605","","What sound did you hear?","1","","","1","INDUCTION-JUDGMENT","left","1","","","","","","","","","","","","","","","","","","","","","","","","","","","","","","","","","","","","",""
"html-keyboard-response","143","368355","0.0-4.0-1.0-2.40","1","1","2d13aqfaqbwm1eg","","null","","<p style=""color:green;""><b>Correct!</b></p>","","null","","","","","","","","","","","","","","","","","","","","","","","","","","","","","","","","","","","","","","","","","",""
"audio-keyboard-response","144","369161","0.0-4.0-1.0-0.41","1","1","2d13aqfaqbwm1eg","","null","","sounds/induction/left/fe_SWS.wav","","null","","","","","","","","","","","","","","","","","","","","","","","","","","","","","","","","","","","","","","","","","",""
"html-button-response","145","369908","0.0-4.0-1.0-1.41","1","1","2d13aqfaqbwm1eg","","744.6999999880791","","What sound did you hear?","1","","","1","INDUCTION-JUDGMENT","left","1","","","","","","","","","","","","","","","","","","","","","","","","","","","","","","","","","","","","",""
"html-keyboard-response","146","370912","0.0-4.0-1.0-2.41","1","1","2d13aqfaqbwm1eg","","null","","<p style=""color:green;""><b>Correct!</b></p>","","null","","","","","","","","","","","","","","","","","","","","","","","","","","","","","","","","","","","","","","","","","",""
"audio-keyboard-response","147","371721","0.0-4.0-1.0-0.42","1","1","2d13aqfaqbwm1eg","","null","","sounds/induction/right/ni_SWS.wav","","null","","","","","","","","","","","","","","","","","","","","","","","","","","","","","","","","","","","","","","","","","",""
"html-button-response","148","373005","0.0-4.0-1.0-1.42","1","1","2d13aqfaqbwm1eg","","1282.5","","What sound did you hear?","0","","","1","INDUCTION-JUDGMENT","right","0","","","","","","","","","","","","","","","","","","","","","","","","","","","","","","","","","","","","",""
"html-keyboard-response","149","374011","0.0-4.0-1.0-2.42","1","1","2d13aqfaqbwm1eg","","null","","<p style=""color:green;""><b>Correct!</b></p>","","null","","","","","","","","","","","","","","","","","","","","","","","","","","","","","","","","","","","","","","","","","",""
"audio-keyboard-response","150","374814","0.0-4.0-1.0-0.43","1","1","2d13aqfaqbwm1eg","","null","","sounds/induction/left/ko_SWS.wav","","null","","","","","","","","","","","","","","","","","","","","","","","","","","","","","","","","","","","","","","","","","",""
"html-button-response","151","375759","0.0-4.0-1.0-1.43","1","1","2d13aqfaqbwm1eg","","943.1999999880791","","What sound did you hear?","1","","","1","INDUCTION-JUDGMENT","left","1","","","","","","","","","","","","","","","","","","","","","","","","","","","","","","","","","","","","",""
"html-keyboard-response","152","376761","0.0-4.0-1.0-2.43","1","1","2d13aqfaqbwm1eg","","null","","<p style=""color:green;""><b>Correct!</b></p>","","null","","","","","","","","","","","","","","","","","","","","","","","","","","","","","","","","","","","","","","","","","",""
"audio-keyboard-response","153","377566","0.0-4.0-1.0-0.44","1","1","2d13aqfaqbwm1eg","","null","","sounds/induction/left/re_SWS.wav","","null","","","","","","","","","","","","","","","","","","","","","","","","","","","","","","","","","","","","","","","","","",""
"html-button-response","154","378656","0.0-4.0-1.0-1.44","1","1","2d13aqfaqbwm1eg","","1087.699999988079","","What sound did you hear?","0","","","1","INDUCTION-JUDGMENT","left","0","","","","","","","","","","","","","","","","","","","","","","","","","","","","","","","","","","","","",""
"html-keyboard-response","155","379659","0.0-4.0-1.0-2.44","1","1","2d13aqfaqbwm1eg","","null","","<p style=""color:green;""><b>Correct!</b></p>","","null","","","","","","","","","","","","","","","","","","","","","","","","","","","","","","","","","","","","","","","","","",""
"audio-keyboard-response","156","380462","0.0-4.0-1.0-0.45","1","1","2d13aqfaqbwm1eg","","null","","sounds/induction/left/ge_SWS.wav","","null","","","","","","","","","","","","","","","","","","","","","","","","","","","","","","","","","","","","","","","","","",""
"html-button-response","157","381443","0.0-4.0-1.0-1.45","1","1","2d13aqfaqbwm1eg","","978.0999999940395","","What sound did you hear?","1","","","1","INDUCTION-JUDGMENT","left","1","","","","","","","","","","","","","","","","","","","","","","","","","","","","","","","","","","","","",""
"html-keyboard-response","158","382449","0.0-4.0-1.0-2.45","1","1","2d13aqfaqbwm1eg","","null","","<p style=""color:green;""><b>Correct!</b></p>","","null","","","","","","","","","","","","","","","","","","","","","","","","","","","","","","","","","","","","","","","","","",""
"audio-keyboard-response","159","383257","0.0-4.0-1.0-0.46","1","1","2d13aqfaqbwm1eg","","null","","sounds/induction/left/su_SWS.wav","","null","","","","","","","","","","","","","","","","","","","","","","","","","","","","","","","","","","","","","","","","","",""
"html-button-response","160","384195","0.0-4.0-1.0-1.46","1","1","2d13aqfaqbwm1eg","","936.5999999940395","","What sound did you hear?","0","","","1","INDUCTION-JUDGMENT","left","0","","","","","","","","","","","","","","","","","","","","","","","","","","","","","","","","","","","","",""
"html-keyboard-response","161","385200","0.0-4.0-1.0-2.46","1","1","2d13aqfaqbwm1eg","","null","","<p style=""color:green;""><b>Correct!</b></p>","","null","","","","","","","","","","","","","","","","","","","","","","","","","","","","","","","","","","","","","","","","","",""
"audio-keyboard-response","162","386003","0.0-4.0-1.0-0.47","1","1","2d13aqfaqbwm1eg","","null","","sounds/induction/left/re_SWS.wav","","null","","","","","","","","","","","","","","","","","","","","","","","","","","","","","","","","","","","","","","","","","",""
"html-button-response","163","387177","0.0-4.0-1.0-1.47","1","1","2d13aqfaqbwm1eg","","1173.5","","What sound did you hear?","0","","","1","INDUCTION-JUDGMENT","left","0","","","","","","","","","","","","","","","","","","","","","","","","","","","","","","","","","","","","",""
"html-keyboard-response","164","388182","0.0-4.0-1.0-2.47","1","1","2d13aqfaqbwm1eg","","null","","<p style=""color:green;""><b>Correct!</b></p>","","null","","","","","","","","","","","","","","","","","","","","","","","","","","","","","","","","","","","","","","","","","",""
"html-button-response","165","400792","0.0-5.0-0.0","1","1","2d13aqfaqbwm1eg","","12102.800000011921","","<p>Thank you for your answers.</p><p>You will now listen to similar sounds. The main difference is that the sounds will be longer and will make up complete sentences.</p><p>Please listen carefully to each sentence. After each sentence, you will be asked to type back what you heard to the best of your ability. After you provide your response, you will be given feedback about the correct answer.</p><p>There are 10 sentences in total.","0","","","","","","","","","","","","","","","","","","","","","","","","","","","","","","","","","","","","","","","","","","",""
"audio-keyboard-response","166","403523","0.0-5.0-1.0-0.0","1","1","2d13aqfaqbwm1eg","","null","","sounds/sentences/right/14_09_cfSWS.wav","","null","","","","","","","","","","","","","","","","","","","","","","","","","","","","","","","","","","","","","","","","","",""
"sentence-resp","167","421977","0.0-5.0-1.0-1.0","1","1","2d13aqfaqbwm1eg","","18450","","","","","","","SWS-SENT-RESPONSE","","","{""Q0"":""mee ma moo gee nigh""}","We frown when events take a bad turn.","frown,events,take,bad,turn","MEE MA MOO GEE NIGH","0","0","0","0","0","0","0","","","","","","","","","","","","","","","","","","","","","","","","","",""
"html-keyboard-response","168","423235","0.0-5.0-1.0-2.0","1","1","2d13aqfaqbwm1eg","","null","","","","null","","","","","","","","","","","","","","","","","","","","","","","","","","","","","","","","","","","","","","","","","",""
"audio-keyboard-response","169","425464","0.0-5.0-1.0-3.0","1","1","2d13aqfaqbwm1eg","","null","","sounds/sentences/right/14_09_cfSWS.wav","","null","","","","","","","","","","","","","","","","","","","","","","","","","","","","","","","","","","","","","","","","","",""
"html-keyboard-response","170","426468","0.0-5.0-1.0-4.0","1","1","2d13aqfaqbwm1eg","","null","","","","null","","","","","","","","","","","","","","","","","","","","","","","","","","","","","","","","","","","","","","","","","",""
"html-button-response","171","428348","0.0-5.0-1.0-5.0","1","1","2d13aqfaqbwm1eg","","1372.5999999940395","","<p>Press the button below when you are ready to continue.</p>","0","","","","","","","","","","","","","","","","","","","","","","","","","","","","","","","","","","","","","","","","","","",""
"audio-keyboard-response","172","431106","0.0-5.0-1.0-0.1","1","1","2d13aqfaqbwm1eg","","null","","sounds/sentences/right/14_08_cfSWS.wav","","null","","","","","","","","","","","","","","","","","","","","","","","","","","","","","","","","","","","","","","","","","",""
"sentence-resp","173","455639","0.0-5.0-1.0-1.1","1","1","2d13aqfaqbwm1eg","","24530","","","","","","","SWS-SENT-RESPONSE","","","{""Q0"":""we smile when things are happy\n""}","Clothes and lodging are free to new men.","clothes,lodging,free,new,men","WE SMILE WHEN THINGS ARE HAPPY ","0","0","0","0","0","0","0","","","","","","","","","","","","","","","","","","","","","","","","","",""
"html-keyboard-response","174","456900","0.0-5.0-1.0-2.1","1","1","2d13aqfaqbwm1eg","","null","","","","null","","","","","","","","","","","","","","","","","","","","","","","","","","","","","","","","","","","","","","","","","",""
"audio-keyboard-response","175","459154","0.0-5.0-1.0-3.1","1","1","2d13aqfaqbwm1eg","","null","","sounds/sentences/right/14_08_cfSWS.wav","","null","","","","","","","","","","","","","","","","","","","","","","","","","","","","","","","","","","","","","","","","","",""
"html-keyboard-response","176","460156","0.0-5.0-1.0-4.1","1","1","2d13aqfaqbwm1eg","","null","","","","null","","","","","","","","","","","","","","","","","","","","","","","","","","","","","","","","","","","","","","","","","",""
"html-button-response","177","461494","0.0-5.0-1.0-5.1","1","1","2d13aqfaqbwm1eg","","831.3000000119209","","<p>Press the button below when you are ready to continue.</p>","0","","","","","","","","","","","","","","","","","","","","","","","","","","","","","","","","","","","","","","","","","","",""
"audio-keyboard-response","178","464050","0.0-5.0-1.0-0.2","1","1","2d13aqfaqbwm1eg","","null","","sounds/sentences/left/14_04_cfSWS.wav","","null","","","","","","","","","","","","","","","","","","","","","","","","","","","","","","","","","","","","","","","","","",""
"sentence-resp","179","492460","0.0-5.0-1.0-1.2","1","1","2d13aqfaqbwm1eg","","28408","","","","","","","SWS-SENT-RESPONSE","","","{""Q0"":""money buys happiness\n""}","Two plus seven is less than ten.","two,plus,seven,less,ten","MONEY BUYS HAPPINESS ","0","0","0","0","0","0","0","","","","","","","","","","","","","","","","","","","","","","","","","",""
"html-keyboard-response","180","493721","0.0-5.0-1.0-2.2","1","1","2d13aqfaqbwm1eg","","null","","","","null","","","","","","","","","","","","","","","","","","","","","","","","","","","","","","","","","","","","","","","","","",""
"audio-keyboard-response","181","495772","0.0-5.0-1.0-3.2","1","1","2d13aqfaqbwm1eg","","null","","sounds/sentences/left/14_04_cfSWS.wav","","null","","","","","","","","","","","","","","","","","","","","","","","","","","","","","","","","","","","","","","","","","",""
"html-keyboard-response","182","496775","0.0-5.0-1.0-4.2","1","1","2d13aqfaqbwm1eg","","null","","","","null","","","","","","","","","","","","","","","","","","","","","","","","","","","","","","","","","","","","","","","","","",""
"html-button-response","183","500234","0.0-5.0-1.0-5.2","1","1","2d13aqfaqbwm1eg","","2951.4000000059605","","<p>Press the button below when you are ready to continue.</p>","0","","","","","","","","","","","","","","","","","","","","","","","","","","","","","","","","","","","","","","","","","","",""
"audio-keyboard-response","184","503254","0.0-5.0-1.0-0.3","1","1","2d13aqfaqbwm1eg","","null","","sounds/sentences/right/14_10_cfSWS.wav","","null","","","","","","","","","","","","","","","","","","","","","","","","","","","","","","","","","","","","","","","","","",""
"sentence-resp","185","511977","0.0-5.0-1.0-1.3","1","1","2d13aqfaqbwm1eg","","8719","","","","","","","SWS-SENT-RESPONSE","","","{""Q0"":""we worry when men live in buildings\n""}","Port is a strong wine with a smoky taste.","port,strong,wine,smoky,taste","WE WORRY WHEN MEN LIVE IN BUILDINGS ","0","0","0","0","0","0","0","","","","","","","","","","","","","","","","","","","","","","","","","",""
"html-keyboard-response","186","513238","0.0-5.0-1.0-2.3","1","1","2d13aqfaqbwm1eg","","null","","","","null","","","","","","","","","","","","","","","","","","","","","","","","","","","","","","","","","","","","","","","","","",""
"audio-keyboard-response","187","515755","0.0-5.0-1.0-3.3","1","1","2d13aqfaqbwm1eg","","null","","sounds/sentences/right/14_10_cfSWS.wav","","null","","","","","","","","","","","","","","","","","","","","","","","","","","","","","","","","","","","","","","","","","",""
"html-keyboard-response","188","516758","0.0-5.0-1.0-4.3","1","1","2d13aqfaqbwm1eg","","null","","","","null","","","","","","","","","","","","","","","","","","","","","","","","","","","","","","","","","","","","","","","","","",""
"html-button-response","189","517929","0.0-5.0-1.0-5.3","1","1","2d13aqfaqbwm1eg","","666.1999999880791","","<p>Press the button below when you are ready to continue.</p>","0","","","","","","","","","","","","","","","","","","","","","","","","","","","","","","","","","","","","","","","","","","",""
"audio-keyboard-response","190","520917","0.0-5.0-1.0-0.4","1","1","2d13aqfaqbwm1eg","","null","","sounds/sentences/left/14_05_cfSWS.wav","","null","","","","","","","","","","","","","","","","","","","","","","","","","","","","","","","","","","","","","","","","","",""
"sentence-resp","191","535580","0.0-5.0-1.0-1.4","1","1","2d13aqfaqbwm1eg","","14659","","","","","","","SWS-SENT-RESPONSE","","","{""Q0"":""in my class there are many girls""}","The glow deepened in the eyes of the sweet girl.","glow,deepened,eyes,sweet,girl","IN MY CLASS THERE ARE MANY GIRLS","0","0","0","0","0","0","0","","","","","","","","","","","","","","","","","","","","","","","","","",""
"html-keyboard-response","192","536839","0.0-5.0-1.0-2.4","1","1","2d13aqfaqbwm1eg","","null","","","","null","","","","","","","","","","","","","","","","","","","","","","","","","","","","","","","","","","","","","","","","","",""
"audio-keyboard-response","193","539328","0.0-5.0-1.0-3.4","1","1","2d13aqfaqbwm1eg","","null","","sounds/sentences/left/14_05_cfSWS.wav","","null","","","","","","","","","","","","","","","","","","","","","","","","","","","","","","","","","","","","","","","","","",""
"html-keyboard-response","194","540335","0.0-5.0-1.0-4.4","1","1","2d13aqfaqbwm1eg","","null","","","","null","","","","","","","","","","","","","","","","","","","","","","","","","","","","","","","","","","","","","","","","","",""
"html-button-response","195","541617","0.0-5.0-1.0-5.4","1","1","2d13aqfaqbwm1eg","","778","","<p>Press the button below when you are ready to continue.</p>","0","","","","","","","","","","","","","","","","","","","","","","","","","","","","","","","","","","","","","","","","","","",""
"audio-keyboard-response","196","544736","0.0-5.0-1.0-0.5","1","1","2d13aqfaqbwm1eg","","null","","sounds/sentences/left/14_01_cfSWS.wav","","null","","","","","","","","","","","","","","","","","","","","","","","","","","","","","","","","","","","","","","","","","",""
"sentence-resp","197","569045","0.0-5.0-1.0-1.5","1","1","2d13aqfaqbwm1eg","","24307","","","","","","","SWS-SENT-RESPONSE","","","{""Q0"":""rain and clouds are in the sky""}","A cramp is no small danger on a swim.","cramp,no,small,danger,swim","RAIN AND CLOUDS ARE IN THE SKY","0","0","0","0","0","0","0","","","","","","","","","","","","","","","","","","","","","","","","","",""
"html-keyboard-response","198","570306","0.0-5.0-1.0-2.5","1","1","2d13aqfaqbwm1eg","","null","","","","null","","","","","","","","","","","","","","","","","","","","","","","","","","","","","","","","","","","","","","","","","",""
"audio-keyboard-response","199","572922","0.0-5.0-1.0-3.5","1","1","2d13aqfaqbwm1eg","","null","","sounds/sentences/left/14_01_cfSWS.wav","","null","","","","","","","","","","","","","","","","","","","","","","","","","","","","","","","","","","","","","","","","","",""
"html-keyboard-response","200","573925","0.0-5.0-1.0-4.5","1","1","2d13aqfaqbwm1eg","","null","","","","null","","","","","","","","","","","","","","","","","","","","","","","","","","","","","","","","","","","","","","","","","",""
"html-button-response","201","575509","0.0-5.0-1.0-5.5","1","1","2d13aqfaqbwm1eg","","1078.300000011921","","<p>Press the button below when you are ready to continue.</p>","0","","","","","","","","","","","","","","","","","","","","","","","","","","","","","","","","","","","","","","","","","","",""
"audio-keyboard-response","202","578329","0.0-5.0-1.0-0.6","1","1","2d13aqfaqbwm1eg","","null","","sounds/sentences/left/14_02_cfSWS.wav","","null","","","","","","","","","","","","","","","","","","","","","","","","","","","","","","","","","","","","","","","","","",""
"sentence-resp","203","583753","0.0-5.0-1.0-1.6","1","1","2d13aqfaqbwm1eg","","5420","","","","","","","SWS-SENT-RESPONSE","","","{""Q0"":""the same thing thirty times\n""}","He said the same phrase thirty times.","said,same,phrase,thirty,times","THE SAME THING THIRTY TIMES ","0","1","0","1","1","3","0.6","","","","","","","","","","","","","","","","","","","","","","","","","",""
"html-keyboard-response","204","585015","0.0-5.0-1.0-2.6","1","1","2d13aqfaqbwm1eg","","null","","","","null","","","","","","","","","","","","","","","","","","","","","","","","","","","","","","","","","","","","","","","","","",""
"audio-keyboard-response","205","587332","0.0-5.0-1.0-3.6","1","1","2d13aqfaqbwm1eg","","null","","sounds/sentences/left/14_02_cfSWS.wav","","null","","","","","","","","","","","","","","","","","","","","","","","","","","","","","","","","","","","","","","","","","",""
"html-keyboard-response","206","588340","0.0-5.0-1.0-4.6","1","1","2d13aqfaqbwm1eg","","null","","","","null","","","","","","","","","","","","","","","","","","","","","","","","","","","","","","","","","","","","","","","","","",""
"html-button-response","207","589912","0.0-5.0-1.0-5.6","1","1","2d13aqfaqbwm1eg","","1065.5","","<p>Press the button below when you are ready to continue.</p>","0","","","","","","","","","","","","","","","","","","","","","","","","","","","","","","","","","","","","","","","","","","",""
"audio-keyboard-response","208","592494","0.0-5.0-1.0-0.7","1","1","2d13aqfaqbwm1eg","","null","","sounds/sentences/left/14_03_cfSWS.wav","","null","","","","","","","","","","","","","","","","","","","","","","","","","","","","","","","","","","","","","","","","","",""
"sentence-resp","209","597646","0.0-5.0-1.0-1.7","1","1","2d13aqfaqbwm1eg","","5149","","","","","","","SWS-SENT-RESPONSE","","","{""Q0"":""could you help me please""}","Pluck the bright rose without leaves.","pluck,bright,rose,without,leaves","COULD YOU HELP ME PLEASE","0","0","0","0","0","0","0","","","","","","","","","","","","","","","","","","","","","","","","","",""
"html-keyboard-response","210","598902","0.0-5.0-1.0-2.7","1","1","2d13aqfaqbwm1eg","","null","","","","null","","","","","","","","","","","","","","","","","","","","","","","","","","","","","","","","","","","","","","","","","",""
"audio-keyboard-response","211","600985","0.0-5.0-1.0-3.7","1","1","2d13aqfaqbwm1eg","","null","","sounds/sentences/left/14_03_cfSWS.wav","","null","","","","","","","","","","","","","","","","","","","","","","","","","","","","","","","","","","","","","","","","","",""
"html-keyboard-response","212","601989","0.0-5.0-1.0-4.7","1","1","2d13aqfaqbwm1eg","","null","","","","null","","","","","","","","","","","","","","","","","","","","","","","","","","","","","","","","","","","","","","","","","",""
"html-button-response","213","603002","0.0-5.0-1.0-5.7","1","1","2d13aqfaqbwm1eg","","510.30000001192093","","<p>Press the button below when you are ready to continue.</p>","0","","","","","","","","","","","","","","","","","","","","","","","","","","","","","","","","","","","","","","","","","","",""
"audio-keyboard-response","214","605747","0.0-5.0-1.0-0.8","1","1","2d13aqfaqbwm1eg","","null","","sounds/sentences/right/14_06_cfSWS.wav","","null","","","","","","","","","","","","","","","","","","","","","","","","","","","","","","","","","","","","","","","","","",""
"sentence-resp","215","613900","0.0-5.0-1.0-1.8","1","1","2d13aqfaqbwm1eg","","8150","","","","","","","SWS-SENT-RESPONSE","","","{""Q0"":""three roads without chase""}","Bring your problems to the wise chief.","bring,your,problems,wise,chief","THREE ROADS WITHOUT CHASE","0","0","0","0","0","0","0","","","","","","","","","","","","","","","","","","","","","","","","","",""
"html-keyboard-response","216","615158","0.0-5.0-1.0-2.8","1","1","2d13aqfaqbwm1eg","","null","","","","null","","","","","","","","","","","","","","","","","","","","","","","","","","","","","","","","","","","","","","","","","",""
"audio-keyboard-response","217","617401","0.0-5.0-1.0-3.8","1","1","2d13aqfaqbwm1eg","","null","","sounds/sentences/right/14_06_cfSWS.wav","","null","","","","","","","","","","","","","","","","","","","","","","","","","","","","","","","","","","","","","","","","","",""
"html-keyboard-response","218","618403","0.0-5.0-1.0-4.8","1","1","2d13aqfaqbwm1eg","","null","","","","null","","","","","","","","","","","","","","","","","","","","","","","","","","","","","","","","","","","","","","","","","",""
"html-button-response","219","619460","0.0-5.0-1.0-5.8","1","1","2d13aqfaqbwm1eg","","552.8000000119209","","<p>Press the button below when you are ready to continue.</p>","0","","","","","","","","","","","","","","","","","","","","","","","","","","","","","","","","","","","","","","","","","","",""
"audio-keyboard-response","220","622350","0.0-5.0-1.0-0.9","1","1","2d13aqfaqbwm1eg","","null","","sounds/sentences/right/14_07_cfSWS.wav","","null","","","","","","","","","","","","","","","","","","","","","","","","","","","","","","","","","","","","","","","","","",""
"sentence-resp","221","631311","0.0-5.0-1.0-1.9","1","1","2d13aqfaqbwm1eg","","8958","","","","","","","SWS-SENT-RESPONSE","","","{""Q0"":""first responders are our friends in need""}","Write a fond note to the friend you cherish.","write,fond,note,friend,cherish","FIRST RESPONDERS ARE OUR FRIENDS IN NEED","0","0","0","0","0","0","0","","","","","","","","","","","","","","","","","","","","","","","","","",""
"html-keyboard-response","222","632568","0.0-5.0-1.0-2.9","1","1","2d13aqfaqbwm1eg","","null","","","","null","","","","","","","","","","","","","","","","","","","","","","","","","","","","","","","","","","","","","","","","","",""
"audio-keyboard-response","223","634958","0.0-5.0-1.0-3.9","1","1","2d13aqfaqbwm1eg","","null","","sounds/sentences/right/14_07_cfSWS.wav","","null","","","","","","","","","","","","","","","","","","","","","","","","","","","","","","","","","","","","","","","","","",""
"html-keyboard-response","224","635959","0.0-5.0-1.0-4.9","1","1","2d13aqfaqbwm1eg","","null","","","","null","","","","","","","","","","","","","","","","","","","","","","","","","","","","","","","","","","","","","","","","","",""
"html-button-response","225","637048","0.0-5.0-1.0-5.9","1","1","2d13aqfaqbwm1eg","","581.9000000059605","","<p>Press the button below when you are ready to continue.</p>","0","","","","","","","","","","","","","","","","","","","","","","","","","","","","","","","","","","","","","","","","","","",""
"html-keyboard-response","226","654102","0.0-6.0-0.0","1","1","2d13aqfaqbwm1eg","","16552.90000000596","","<p>In this part of the study, you will hear sounds similar to those you just heard.</p><p>Please focus on these sounds, as you may be asked questions about them later.</p><p>Occasionally, the sounds will pause for up to two seconds. When this happens, please press SPACEBAR as quickly as you can.</br>This helps ensure that you are paying attention to the sounds.</p><p>This part of the study will take about 12 minutes to complete, and you will be given the opportunity to take a couple of short breaks every few minutes.</p><p><strong>Press SPACEBAR to begin</strong></p>","","32","","","","","","","","","","","","","","","","","","","","","","","","","","","","","","","","","","","","","","","","","",""
"html-keyboard-response","227","655109","0.0-6.0-1.0-0.0","1","1","2d13aqfaqbwm1eg","","null","","<p style=""font-size: 40px;"">+</p>","","null","","","","","","","","","","","","","","","","","","","","","","","","","","","","","","","","","","","","","","","","","",""
"html-keyboard-response","228","840116","0.0-6.0-1.0-1.0","1","1","2d13aqfaqbwm1eg","","null","","","","null","","","SL-TRAIN","","","","","","","","","","","","","","0","896","842.1999999880791","sounds/A/TRAIN/SEQ__03.mp3","2","","","","","","","","","","","","","","","","","","","","",""
"html-button-response","229","844320","0.0-6.0-1.0-2.0","1","1","2d13aqfaqbwm1eg","","4200.5999999940395","","<p>You may take a short break if you wish.</p>","0","","","","","","","","","","","","","","","","","","","","","","","","","","","","","","","","","","","","","","","","","","",""
"html-keyboard-response","230","845327","0.0-6.0-1.0-3.0","1","1","2d13aqfaqbwm1eg","","null","","<p style=""font-size: 40px;"">+</p>","","null","","","","","","","","","","","","","","","","","","","","","","","","","","","","","","","","","","","","","","","","","",""
"html-keyboard-response","231","1030331","0.0-6.0-1.0-4.0","1","1","2d13aqfaqbwm1eg","","null","","","","null","","","SL-TRAIN","","","","","","","","","","","","","","0","849.6999999880791","810.5999999940395","sounds/A/TRAIN/SEQ__12.mp3","4","","","","","","","","","","","","","","","","","","","","",""
"html-button-response","232","1055103","0.0-6.0-1.0-5.0","1","1","2d13aqfaqbwm1eg","","24769.30000001192","","<p>You may take a short break if you wish.</p>","0","","","","","","","","","","","","","","","","","","","","","","","","","","","","","","","","","","","","","","","","","","",""
"html-keyboard-response","233","1056110","0.0-6.0-1.0-6.0","1","1","2d13aqfaqbwm1eg","","null","","<p style=""font-size: 40px;"">+</p>","","null","","","","","","","","","","","","","","","","","","","","","","","","","","","","","","","","","","","","","","","","","",""
"html-keyboard-response","234","1241114","0.0-6.0-1.0-7.0","1","1","2d13aqfaqbwm1eg","","null","","","","null","","","SL-TRAIN","","","","","","","","","","","","","","0","925.3000000119209","799.5999999940395","sounds/A/TRAIN/SEQ__11.mp3","9","","","","","","","","","","","","","","","","","","","","",""
"html-button-response","235","1288607","0.0-6.0-1.0-8.0","1","1","2d13aqfaqbwm1eg","","47491","","<p>You may take a short break if you wish.</p>","0","","","","","","","","","","","","","","","","","","","","","","","","","","","","","","","","","","","","","","","","","","",""
"html-keyboard-response","236","1289609","0.0-6.0-1.0-9.0","1","1","2d13aqfaqbwm1eg","","null","","<p style=""font-size: 40px;"">+</p>","","null","","","","","","","","","","","","","","","","","","","","","","","","","","","","","","","","","","","","","","","","","",""
"html-keyboard-response","237","1474613","0.0-6.0-1.0-10.0","1","1","2d13aqfaqbwm1eg","","null","","","","null","","","SL-TRAIN","","","","","","","","","","","","","","0","849.5999999940395","1104.800000011921","sounds/A/TRAIN/SEQ__09.mp3","11","","","","","","","","","","","","","","","","","","","","",""
"html-button-response","238","1476506","0.0-6.0-1.0-11.0","1","1","2d13aqfaqbwm1eg","","1890.4000000059605","","<p>You may take a short break if you wish.</p>","0","","","","","","","","","","","","","","","","","","","","","","","","","","","","","","","","","","","","","","","","","","",""
"html-button-response","239","1484237","0.0-7.0-0.0","1","1","2d13aqfaqbwm1eg","","7728.299999982119","","<p>Welcome to the second part of the study. This is a <u>familiarity task</u>.</p><p>You will now hear short sounds and will be asked to rate how familiar they sound to you <b>based on what you heard in the previous part of the study</b>.</p><p>You will rate 12 sounds in total.</p>","0","","","","","","","","","","","","","","","","","","","","","","","","","","","","","","","","","","","","","","","","","","",""
"html-keyboard-response","240","1485243","0.0-7.0-1.0-0.0","1","1","2d13aqfaqbwm1eg","","null","","","","null","","","","","","","","","","","","","","","","","","","","","","","","","","","","","","","","","","","","","","","","","",""
"audio-keyboard-response","241","1486232","0.0-7.0-1.0-1.0","1","1","2d13aqfaqbwm1eg","","null","","sounds/A/FAM/P002.mp3","","null","","","","","","","","","","","","","","","","","","","","","","","","","","","","","","","","","","","","","","","","","",""
"html-keyboard-response","242","1491639","0.0-7.0-1.0-2.0","1","1","2d13aqfaqbwm1eg","","4904","","<p>How familiar did this sound to you?</p><p>1&nbsp;&nbsp;&nbsp;&nbsp;&nbsp;&nbsp;&nbsp;&nbsp;&nbsp;&nbsp;&nbsp;&nbsp;&nbsp;&nbsp;&nbsp;&nbsp;&nbsp;&nbsp;&nbsp;2&nbsp;&nbsp;&nbsp;&nbsp;&nbsp;&nbsp;&nbsp;&nbsp;&nbsp;&nbsp;&nbsp;&nbsp;&nbsp;&nbsp;&nbsp;&nbsp;&nbsp;&nbsp;&nbsp;3&nbsp;&nbsp;&nbsp;&nbsp;&nbsp;&nbsp;&nbsp;&nbsp;&nbsp;&nbsp;&nbsp;&nbsp;&nbsp;&nbsp;&nbsp;&nbsp;&nbsp;&nbsp;&nbsp;4</p><p style=""font-size:14px"">Not at all familiar&nbsp;&nbsp;&nbsp;&nbsp;A little familiar&nbsp;&nbsp;&nbsp;Moderately familiar&nbsp;&nbsp;&nbsp;Extremely familiar</p><p>(press the corresponding number on your keyboard)</p>","","51","","","FAM-RESPONSE","","","","","","","","","","","","","","","","","","","sounds/A/FAM/P002.mp3","partword","","","","","","","","","","","","","","","","","","",""
"html-keyboard-response","243","1493645","0.0-7.0-1.0-0.1","1","1","2d13aqfaqbwm1eg","","null","","","","null","","","","","","","","","","","","","","","","","","","","","","","","","","","","","","","","","","","","","","","","","",""
"audio-keyboard-response","244","1494589","0.0-7.0-1.0-1.1","1","1","2d13aqfaqbwm1eg","","null","","sounds/A/FAM/N001.mp3","","null","","","","","","","","","","","","","","","","","","","","","","","","","","","","","","","","","","","","","","","","","",""
"html-keyboard-response","245","1497040","0.0-7.0-1.0-2.1","1","1","2d13aqfaqbwm1eg","","1947.0999999940395","","<p>How familiar did this sound to you?</p><p>1&nbsp;&nbsp;&nbsp;&nbsp;&nbsp;&nbsp;&nbsp;&nbsp;&nbsp;&nbsp;&nbsp;&nbsp;&nbsp;&nbsp;&nbsp;&nbsp;&nbsp;&nbsp;&nbsp;2&nbsp;&nbsp;&nbsp;&nbsp;&nbsp;&nbsp;&nbsp;&nbsp;&nbsp;&nbsp;&nbsp;&nbsp;&nbsp;&nbsp;&nbsp;&nbsp;&nbsp;&nbsp;&nbsp;3&nbsp;&nbsp;&nbsp;&nbsp;&nbsp;&nbsp;&nbsp;&nbsp;&nbsp;&nbsp;&nbsp;&nbsp;&nbsp;&nbsp;&nbsp;&nbsp;&nbsp;&nbsp;&nbsp;4</p><p style=""font-size:14px"">Not at all familiar&nbsp;&nbsp;&nbsp;&nbsp;A little familiar&nbsp;&nbsp;&nbsp;Moderately familiar&nbsp;&nbsp;&nbsp;Extremely familiar</p><p>(press the corresponding number on your keyboard)</p>","","49","","","FAM-RESPONSE","","","","","","","","","","","","","","","","","","","sounds/A/FAM/N001.mp3","nonword","","","","","","","","","","","","","","","","","","",""
"html-keyboard-response","246","1499051","0.0-7.0-1.0-0.2","1","1","2d13aqfaqbwm1eg","","null","","","","null","","","","","","","","","","","","","","","","","","","","","","","","","","","","","","","","","","","","","","","","","",""
"audio-keyboard-response","247","1499992","0.0-7.0-1.0-1.2","1","1","2d13aqfaqbwm1eg","","null","","sounds/A/FAM/N003.mp3","","null","","","","","","","","","","","","","","","","","","","","","","","","","","","","","","","","","","","","","","","","","",""
"html-keyboard-response","248","1502087","0.0-7.0-1.0-2.2","1","1","2d13aqfaqbwm1eg","","1593.5","","<p>How familiar did this sound to you?</p><p>1&nbsp;&nbsp;&nbsp;&nbsp;&nbsp;&nbsp;&nbsp;&nbsp;&nbsp;&nbsp;&nbsp;&nbsp;&nbsp;&nbsp;&nbsp;&nbsp;&nbsp;&nbsp;&nbsp;2&nbsp;&nbsp;&nbsp;&nbsp;&nbsp;&nbsp;&nbsp;&nbsp;&nbsp;&nbsp;&nbsp;&nbsp;&nbsp;&nbsp;&nbsp;&nbsp;&nbsp;&nbsp;&nbsp;3&nbsp;&nbsp;&nbsp;&nbsp;&nbsp;&nbsp;&nbsp;&nbsp;&nbsp;&nbsp;&nbsp;&nbsp;&nbsp;&nbsp;&nbsp;&nbsp;&nbsp;&nbsp;&nbsp;4</p><p style=""font-size:14px"">Not at all familiar&nbsp;&nbsp;&nbsp;&nbsp;A little familiar&nbsp;&nbsp;&nbsp;Moderately familiar&nbsp;&nbsp;&nbsp;Extremely familiar</p><p>(press the corresponding number on your keyboard)</p>","","50","","","FAM-RESPONSE","","","","","","","","","","","","","","","","","","","sounds/A/FAM/N003.mp3","nonword","","","","","","","","","","","","","","","","","","",""
"html-keyboard-response","249","1504095","0.0-7.0-1.0-0.3","1","1","2d13aqfaqbwm1eg","","null","","","","null","","","","","","","","","","","","","","","","","","","","","","","","","","","","","","","","","","","","","","","","","",""
"audio-keyboard-response","250","1505037","0.0-7.0-1.0-1.3","1","1","2d13aqfaqbwm1eg","","null","","sounds/A/FAM/P003.mp3","","null","","","","","","","","","","","","","","","","","","","","","","","","","","","","","","","","","","","","","","","","","",""
"html-keyboard-response","251","1508160","0.0-7.0-1.0-2.3","1","1","2d13aqfaqbwm1eg","","2617.699999988079","","<p>How familiar did this sound to you?</p><p>1&nbsp;&nbsp;&nbsp;&nbsp;&nbsp;&nbsp;&nbsp;&nbsp;&nbsp;&nbsp;&nbsp;&nbsp;&nbsp;&nbsp;&nbsp;&nbsp;&nbsp;&nbsp;&nbsp;2&nbsp;&nbsp;&nbsp;&nbsp;&nbsp;&nbsp;&nbsp;&nbsp;&nbsp;&nbsp;&nbsp;&nbsp;&nbsp;&nbsp;&nbsp;&nbsp;&nbsp;&nbsp;&nbsp;3&nbsp;&nbsp;&nbsp;&nbsp;&nbsp;&nbsp;&nbsp;&nbsp;&nbsp;&nbsp;&nbsp;&nbsp;&nbsp;&nbsp;&nbsp;&nbsp;&nbsp;&nbsp;&nbsp;4</p><p style=""font-size:14px"">Not at all familiar&nbsp;&nbsp;&nbsp;&nbsp;A little familiar&nbsp;&nbsp;&nbsp;Moderately familiar&nbsp;&nbsp;&nbsp;Extremely familiar</p><p>(press the corresponding number on your keyboard)</p>","","51","","","FAM-RESPONSE","","","","","","","","","","","","","","","","","","","sounds/A/FAM/P003.mp3","partword","","","","","","","","","","","","","","","","","","",""
"html-keyboard-response","252","1510168","0.0-7.0-1.0-0.4","1","1","2d13aqfaqbwm1eg","","null","","","","null","","","","","","","","","","","","","","","","","","","","","","","","","","","","","","","","","","","","","","","","","",""
"audio-keyboard-response","253","1511111","0.0-7.0-1.0-1.4","1","1","2d13aqfaqbwm1eg","","null","","sounds/A/FAM/W004.mp3","","null","","","","","","","","","","","","","","","","","","","","","","","","","","","","","","","","","","","","","","","","","",""
"html-keyboard-response","254","1512325","0.0-7.0-1.0-2.4","1","1","2d13aqfaqbwm1eg","","707.9000000059605","","<p>How familiar did this sound to you?</p><p>1&nbsp;&nbsp;&nbsp;&nbsp;&nbsp;&nbsp;&nbsp;&nbsp;&nbsp;&nbsp;&nbsp;&nbsp;&nbsp;&nbsp;&nbsp;&nbsp;&nbsp;&nbsp;&nbsp;2&nbsp;&nbsp;&nbsp;&nbsp;&nbsp;&nbsp;&nbsp;&nbsp;&nbsp;&nbsp;&nbsp;&nbsp;&nbsp;&nbsp;&nbsp;&nbsp;&nbsp;&nbsp;&nbsp;3&nbsp;&nbsp;&nbsp;&nbsp;&nbsp;&nbsp;&nbsp;&nbsp;&nbsp;&nbsp;&nbsp;&nbsp;&nbsp;&nbsp;&nbsp;&nbsp;&nbsp;&nbsp;&nbsp;4</p><p style=""font-size:14px"">Not at all familiar&nbsp;&nbsp;&nbsp;&nbsp;A little familiar&nbsp;&nbsp;&nbsp;Moderately familiar&nbsp;&nbsp;&nbsp;Extremely familiar</p><p>(press the corresponding number on your keyboard)</p>","","52","","","FAM-RESPONSE","","","","","","","","","","","","","","","","","","","sounds/A/FAM/W004.mp3","word","","","","","","","","","","","","","","","","","","",""
"html-keyboard-response","255","1514331","0.0-7.0-1.0-0.5","1","1","2d13aqfaqbwm1eg","","null","","","","null","","","","","","","","","","","","","","","","","","","","","","","","","","","","","","","","","","","","","","","","","",""
"audio-keyboard-response","256","1515277","0.0-7.0-1.0-1.5","1","1","2d13aqfaqbwm1eg","","null","","sounds/A/FAM/W002.mp3","","null","","","","","","","","","","","","","","","","","","","","","","","","","","","","","","","","","","","","","","","","","",""
"html-keyboard-response","257","1516316","0.0-7.0-1.0-2.5","1","1","2d13aqfaqbwm1eg","","537.2999999821186","","<p>How familiar did this sound to you?</p><p>1&nbsp;&nbsp;&nbsp;&nbsp;&nbsp;&nbsp;&nbsp;&nbsp;&nbsp;&nbsp;&nbsp;&nbsp;&nbsp;&nbsp;&nbsp;&nbsp;&nbsp;&nbsp;&nbsp;2&nbsp;&nbsp;&nbsp;&nbsp;&nbsp;&nbsp;&nbsp;&nbsp;&nbsp;&nbsp;&nbsp;&nbsp;&nbsp;&nbsp;&nbsp;&nbsp;&nbsp;&nbsp;&nbsp;3&nbsp;&nbsp;&nbsp;&nbsp;&nbsp;&nbsp;&nbsp;&nbsp;&nbsp;&nbsp;&nbsp;&nbsp;&nbsp;&nbsp;&nbsp;&nbsp;&nbsp;&nbsp;&nbsp;4</p><p style=""font-size:14px"">Not at all familiar&nbsp;&nbsp;&nbsp;&nbsp;A little familiar&nbsp;&nbsp;&nbsp;Moderately familiar&nbsp;&nbsp;&nbsp;Extremely familiar</p><p>(press the corresponding number on your keyboard)</p>","","52","","","FAM-RESPONSE","","","","","","","","","","","","","","","","","","","sounds/A/FAM/W002.mp3","word","","","","","","","","","","","","","","","","","","",""
"html-keyboard-response","258","1518323","0.0-7.0-1.0-0.6","1","1","2d13aqfaqbwm1eg","","null","","","","null","","","","","","","","","","","","","","","","","","","","","","","","","","","","","","","","","","","","","","","","","",""
"audio-keyboard-response","259","1519266","0.0-7.0-1.0-1.6","1","1","2d13aqfaqbwm1eg","","null","","sounds/A/FAM/W003.mp3","","null","","","","","","","","","","","","","","","","","","","","","","","","","","","","","","","","","","","","","","","","","",""
"html-keyboard-response","260","1521063","0.0-7.0-1.0-2.6","1","1","2d13aqfaqbwm1eg","","1295.199999988079","","<p>How familiar did this sound to you?</p><p>1&nbsp;&nbsp;&nbsp;&nbsp;&nbsp;&nbsp;&nbsp;&nbsp;&nbsp;&nbsp;&nbsp;&nbsp;&nbsp;&nbsp;&nbsp;&nbsp;&nbsp;&nbsp;&nbsp;2&nbsp;&nbsp;&nbsp;&nbsp;&nbsp;&nbsp;&nbsp;&nbsp;&nbsp;&nbsp;&nbsp;&nbsp;&nbsp;&nbsp;&nbsp;&nbsp;&nbsp;&nbsp;&nbsp;3&nbsp;&nbsp;&nbsp;&nbsp;&nbsp;&nbsp;&nbsp;&nbsp;&nbsp;&nbsp;&nbsp;&nbsp;&nbsp;&nbsp;&nbsp;&nbsp;&nbsp;&nbsp;&nbsp;4</p><p style=""font-size:14px"">Not at all familiar&nbsp;&nbsp;&nbsp;&nbsp;A little familiar&nbsp;&nbsp;&nbsp;Moderately familiar&nbsp;&nbsp;&nbsp;Extremely familiar</p><p>(press the corresponding number on your keyboard)</p>","","52","","","FAM-RESPONSE","","","","","","","","","","","","","","","","","","","sounds/A/FAM/W003.mp3","word","","","","","","","","","","","","","","","","","","",""
"html-keyboard-response","261","1523073","0.0-7.0-1.0-0.7","1","1","2d13aqfaqbwm1eg","","null","","","","null","","","","","","","","","","","","","","","","","","","","","","","","","","","","","","","","","","","","","","","","","",""
"audio-keyboard-response","262","1524018","0.0-7.0-1.0-1.7","1","1","2d13aqfaqbwm1eg","","null","","sounds/A/FAM/W001.mp3","","null","","","","","","","","","","","","","","","","","","","","","","","","","","","","","","","","","","","","","","","","","",""
"html-keyboard-response","263","1526997","0.0-7.0-1.0-2.7","1","1","2d13aqfaqbwm1eg","","2473.9000000059605","","<p>How familiar did this sound to you?</p><p>1&nbsp;&nbsp;&nbsp;&nbsp;&nbsp;&nbsp;&nbsp;&nbsp;&nbsp;&nbsp;&nbsp;&nbsp;&nbsp;&nbsp;&nbsp;&nbsp;&nbsp;&nbsp;&nbsp;2&nbsp;&nbsp;&nbsp;&nbsp;&nbsp;&nbsp;&nbsp;&nbsp;&nbsp;&nbsp;&nbsp;&nbsp;&nbsp;&nbsp;&nbsp;&nbsp;&nbsp;&nbsp;&nbsp;3&nbsp;&nbsp;&nbsp;&nbsp;&nbsp;&nbsp;&nbsp;&nbsp;&nbsp;&nbsp;&nbsp;&nbsp;&nbsp;&nbsp;&nbsp;&nbsp;&nbsp;&nbsp;&nbsp;4</p><p style=""font-size:14px"">Not at all familiar&nbsp;&nbsp;&nbsp;&nbsp;A little familiar&nbsp;&nbsp;&nbsp;Moderately familiar&nbsp;&nbsp;&nbsp;Extremely familiar</p><p>(press the corresponding number on your keyboard)</p>","","49","","","FAM-RESPONSE","","","","","","","","","","","","","","","","","","","sounds/A/FAM/W001.mp3","word","","","","","","","","","","","","","","","","","","",""
"html-keyboard-response","264","1529007","0.0-7.0-1.0-0.8","1","1","2d13aqfaqbwm1eg","","null","","","","null","","","","","","","","","","","","","","","","","","","","","","","","","","","","","","","","","","","","","","","","","",""
"audio-keyboard-response","265","1529954","0.0-7.0-1.0-1.8","1","1","2d13aqfaqbwm1eg","","null","","sounds/A/FAM/P004.mp3","","null","","","","","","","","","","","","","","","","","","","","","","","","","","","","","","","","","","","","","","","","","",""
"html-keyboard-response","266","1532094","0.0-7.0-1.0-2.8","1","1","2d13aqfaqbwm1eg","","1636","","<p>How familiar did this sound to you?</p><p>1&nbsp;&nbsp;&nbsp;&nbsp;&nbsp;&nbsp;&nbsp;&nbsp;&nbsp;&nbsp;&nbsp;&nbsp;&nbsp;&nbsp;&nbsp;&nbsp;&nbsp;&nbsp;&nbsp;2&nbsp;&nbsp;&nbsp;&nbsp;&nbsp;&nbsp;&nbsp;&nbsp;&nbsp;&nbsp;&nbsp;&nbsp;&nbsp;&nbsp;&nbsp;&nbsp;&nbsp;&nbsp;&nbsp;3&nbsp;&nbsp;&nbsp;&nbsp;&nbsp;&nbsp;&nbsp;&nbsp;&nbsp;&nbsp;&nbsp;&nbsp;&nbsp;&nbsp;&nbsp;&nbsp;&nbsp;&nbsp;&nbsp;4</p><p style=""font-size:14px"">Not at all familiar&nbsp;&nbsp;&nbsp;&nbsp;A little familiar&nbsp;&nbsp;&nbsp;Moderately familiar&nbsp;&nbsp;&nbsp;Extremely familiar</p><p>(press the corresponding number on your keyboard)</p>","","51","","","FAM-RESPONSE","","","","","","","","","","","","","","","","","","","sounds/A/FAM/P004.mp3","partword","","","","","","","","","","","","","","","","","","",""
"html-keyboard-response","267","1534102","0.0-7.0-1.0-0.9","1","1","2d13aqfaqbwm1eg","","null","","","","null","","","","","","","","","","","","","","","","","","","","","","","","","","","","","","","","","","","","","","","","","",""
"audio-keyboard-response","268","1535047","0.0-7.0-1.0-1.9","1","1","2d13aqfaqbwm1eg","","null","","sounds/A/FAM/N004.mp3","","null","","","","","","","","","","","","","","","","","","","","","","","","","","","","","","","","","","","","","","","","","",""
"html-keyboard-response","269","1537425","0.0-7.0-1.0-2.9","1","1","2d13aqfaqbwm1eg","","1872.5999999940395","","<p>How familiar did this sound to you?</p><p>1&nbsp;&nbsp;&nbsp;&nbsp;&nbsp;&nbsp;&nbsp;&nbsp;&nbsp;&nbsp;&nbsp;&nbsp;&nbsp;&nbsp;&nbsp;&nbsp;&nbsp;&nbsp;&nbsp;2&nbsp;&nbsp;&nbsp;&nbsp;&nbsp;&nbsp;&nbsp;&nbsp;&nbsp;&nbsp;&nbsp;&nbsp;&nbsp;&nbsp;&nbsp;&nbsp;&nbsp;&nbsp;&nbsp;3&nbsp;&nbsp;&nbsp;&nbsp;&nbsp;&nbsp;&nbsp;&nbsp;&nbsp;&nbsp;&nbsp;&nbsp;&nbsp;&nbsp;&nbsp;&nbsp;&nbsp;&nbsp;&nbsp;4</p><p style=""font-size:14px"">Not at all familiar&nbsp;&nbsp;&nbsp;&nbsp;A little familiar&nbsp;&nbsp;&nbsp;Moderately familiar&nbsp;&nbsp;&nbsp;Extremely familiar</p><p>(press the corresponding number on your keyboard)</p>","","50","","","FAM-RESPONSE","","","","","","","","","","","","","","","","","","","sounds/A/FAM/N004.mp3","nonword","","","","","","","","","","","","","","","","","","",""
"html-keyboard-response","270","1539432","0.0-7.0-1.0-0.10","1","1","2d13aqfaqbwm1eg","","null","","","","null","","","","","","","","","","","","","","","","","","","","","","","","","","","","","","","","","","","","","","","","","",""
"audio-keyboard-response","271","1540375","0.0-7.0-1.0-1.10","1","1","2d13aqfaqbwm1eg","","null","","sounds/A/FAM/P001.mp3","","null","","","","","","","","","","","","","","","","","","","","","","","","","","","","","","","","","","","","","","","","","",""
"html-keyboard-response","272","1542216","0.0-7.0-1.0-2.10","1","1","2d13aqfaqbwm1eg","","1338.300000011921","","<p>How familiar did this sound to you?</p><p>1&nbsp;&nbsp;&nbsp;&nbsp;&nbsp;&nbsp;&nbsp;&nbsp;&nbsp;&nbsp;&nbsp;&nbsp;&nbsp;&nbsp;&nbsp;&nbsp;&nbsp;&nbsp;&nbsp;2&nbsp;&nbsp;&nbsp;&nbsp;&nbsp;&nbsp;&nbsp;&nbsp;&nbsp;&nbsp;&nbsp;&nbsp;&nbsp;&nbsp;&nbsp;&nbsp;&nbsp;&nbsp;&nbsp;3&nbsp;&nbsp;&nbsp;&nbsp;&nbsp;&nbsp;&nbsp;&nbsp;&nbsp;&nbsp;&nbsp;&nbsp;&nbsp;&nbsp;&nbsp;&nbsp;&nbsp;&nbsp;&nbsp;4</p><p style=""font-size:14px"">Not at all familiar&nbsp;&nbsp;&nbsp;&nbsp;A little familiar&nbsp;&nbsp;&nbsp;Moderately familiar&nbsp;&nbsp;&nbsp;Extremely familiar</p><p>(press the corresponding number on your keyboard)</p>","","52","","","FAM-RESPONSE","","","","","","","","","","","","","","","","","","","sounds/A/FAM/P001.mp3","partword","","","","","","","","","","","","","","","","","","",""
"html-keyboard-response","273","1544227","0.0-7.0-1.0-0.11","1","1","2d13aqfaqbwm1eg","","null","","","","null","","","","","","","","","","","","","","","","","","","","","","","","","","","","","","","","","","","","","","","","","",""
"audio-keyboard-response","274","1545169","0.0-7.0-1.0-1.11","1","1","2d13aqfaqbwm1eg","","null","","sounds/A/FAM/N002.mp3","","null","","","","","","","","","","","","","","","","","","","","","","","","","","","","","","","","","","","","","","","","","",""
"html-keyboard-response","275","1546930","0.0-7.0-1.0-2.11","1","1","2d13aqfaqbwm1eg","","1257.9000000059605","","<p>How familiar did this sound to you?</p><p>1&nbsp;&nbsp;&nbsp;&nbsp;&nbsp;&nbsp;&nbsp;&nbsp;&nbsp;&nbsp;&nbsp;&nbsp;&nbsp;&nbsp;&nbsp;&nbsp;&nbsp;&nbsp;&nbsp;2&nbsp;&nbsp;&nbsp;&nbsp;&nbsp;&nbsp;&nbsp;&nbsp;&nbsp;&nbsp;&nbsp;&nbsp;&nbsp;&nbsp;&nbsp;&nbsp;&nbsp;&nbsp;&nbsp;3&nbsp;&nbsp;&nbsp;&nbsp;&nbsp;&nbsp;&nbsp;&nbsp;&nbsp;&nbsp;&nbsp;&nbsp;&nbsp;&nbsp;&nbsp;&nbsp;&nbsp;&nbsp;&nbsp;4</p><p style=""font-size:14px"">Not at all familiar&nbsp;&nbsp;&nbsp;&nbsp;A little familiar&nbsp;&nbsp;&nbsp;Moderately familiar&nbsp;&nbsp;&nbsp;Extremely familiar</p><p>(press the corresponding number on your keyboard)</p>","","51","","","FAM-RESPONSE","","","","","","","","","","","","","","","","","","","sounds/A/FAM/N002.mp3","nonword","","","","","","","","","","","","","","","","","","",""
"html-button-response","276","1564903","0.0-8.0-0.0","1","1","2d13aqfaqbwm1eg","","16967.5","","<p>You will now listen to longer sound sequences.</p><p>Each sound sequence will last about 16 seconds.</p><p>On each trial, you will be given a <u>TARGET SOUND</u>. Your task is to listen very carefully for this sound.</p><p>Every time you hear the <u>TARGET SOUND</u>, you will press the <b>SPACEBAR</b> as quickly and accurately as you can.</p>","0","","","","","","","","","","","","","","","","","","","","","","","","","","","","","","","","","","","","","","","","","","",""
"html-button-response","277","1572935","0.0-8.0-1.0","1","1","2d13aqfaqbwm1eg","","7774.299999982119","","<p>It is very important that you make your responses as quickly and accurately as possible.</p><p>To help you make your responses, you will be able to listen to the <u>TARGET SOUND</u> at the beginning of each trial.</p><p>There will be 36 total trials.</p><p><b>Note: This is meant to be a difficult task. We simply want you to try your best.</p>","0","","","","","","","","","","","","","","","","","","","","","","","","","","","","","","","","","","","","","","","","","","",""
"html-button-response","278","1574595","0.0-8.0-2.0-0.0","1","1","2d13aqfaqbwm1eg","","1402.300000011921","","<p>Trial 1 of 36</p>","0","","","","","","","","","","","","","","","","","","","","","","","","","PU","sounds/syllables/pu_SWS.wav","1200,7500,10200,12900","2","","","","","","","","","","","","","","",""
"html-keyboard-response","279","1576836","0.0-8.0-2.0-1.0","1","1","2d13aqfaqbwm1eg","","2239","","","","80","","","","","","","","","","","","","","","","","","","","","","","","PU","","1200,7500,10200,12900","2","","","","","","","","","","","","","","",""
"audio-keyboard-response","280","1577594","0.0-8.0-2.0-2.0-0.0","1","1","2d13aqfaqbwm1eg","","null","","sounds/syllables/pu_SWS.wav","","null","","","","","","","","","","","","","","","","","","","","","","","","","","","","","","","","","","","","","","","","","",""
"html-keyboard-response","281","1580170","0.0-8.0-2.0-2.0-1.0","1","1","2d13aqfaqbwm1eg","","2575.4000000059605","","<p>To replay the <u>TARGET SOUND</u>, press P.</p> When you are ready to begin, press SPACEBAR.","","80","","","","","","","","","","","","","","","","","","","","","","","","","","","","","","","","","","","","","","","","","",""
"audio-keyboard-response","282","1580976","0.0-8.0-2.0-2.1-0.1","1","1","2d13aqfaqbwm1eg","","null","","sounds/syllables/pu_SWS.wav","","null","","","","","","","","","","","","","","","","","","","","","","","","","","","","","","","","","","","","","","","","","",""
"html-keyboard-response","283","1581785","0.0-8.0-2.0-2.1-1.1","1","1","2d13aqfaqbwm1eg","","808.1000000238419","","<p>To replay the <u>TARGET SOUND</u>, press P.</p> When you are ready to begin, press SPACEBAR.","","32","","","","","","","","","","","","","","","","","","","","","","","","","","","","","","","","","","","","","","","","","",""
"audio-keyboard-response","284","1596736","0.0-8.0-2.0-3.0","1","1","2d13aqfaqbwm1eg","","11259","","sounds/A/TD/PU_06_TD.mp3","","32","","","TD_SUMMARY","","","","","","","","","","","","","","","","","","","","","PU","","1200,7500,10200,12900","2","1200","7500","10200","12900","null","null","1056.800000011921","595.0999999940395","11256.800000011921_13495.09999999404","2","","","","",""
"html-button-response","285","1603766","0.0-8.0-2.0-0.1","1","1","2d13aqfaqbwm1eg","","7026.800000011921","","<p>Trial 2 of 36</p>","0","","","","","","","","","","","","","","","","","","","","","","","","","SU","sounds/syllables/su_SWS.wav","5100,6900,9600,13200","3","","","","","","","","","","","","","","",""
"html-keyboard-response","286","1605722","0.0-8.0-2.0-1.1","1","1","2d13aqfaqbwm1eg","","1953.4000000059605","","","","80","","","","","","","","","","","","","","","","","","","","","","","","SU","","5100,6900,9600,13200","3","","","","","","","","","","","","","","",""
"audio-keyboard-response","287","1606025","0.0-8.0-2.0-2.2-0.2","1","1","2d13aqfaqbwm1eg","","null","","sounds/syllables/su_SWS.wav","","null","","","","","","","","","","","","","","","","","","","","","","","","","","","","","","","","","","","","","","","","","",""
"html-keyboard-response","288","1607484","0.0-8.0-2.0-2.2-1.2","1","1","2d13aqfaqbwm1eg","","1457.5","","<p>To replay the <u>TARGET SOUND</u>, press P.</p> When you are ready to begin, press SPACEBAR.","","80","","","","","","","","","","","","","","","","","","","","","","","","","","","","","","","","","","","","","","","","","",""
"audio-keyboard-response","289","1608287","0.0-8.0-2.0-2.3-0.3","1","1","2d13aqfaqbwm1eg","","null","","sounds/syllables/su_SWS.wav","","null","","","","","","","","","","","","","","","","","","","","","","","","","","","","","","","","","","","","","","","","","",""
"html-keyboard-response","290","1609039","0.0-8.0-2.0-2.3-1.3","1","1","2d13aqfaqbwm1eg","","750.6999999880791","","<p>To replay the <u>TARGET SOUND</u>, press P.</p> When you are ready to begin, press SPACEBAR.","","32","","","","","","","","","","","","","","","","","","","","","","","","","","","","","","","","","","","","","","","","","",""
"audio-keyboard-response","291","1623988","0.0-8.0-2.0-3.1","1","1","2d13aqfaqbwm1eg","","5851","","sounds/A/TD/SU_04_TD.mp3","","32","","","TD_SUMMARY","","","","","","","","","","","","","","","","","","","","","SU","","5100,6900,9600,13200","3","5100","6900","9600","13200","749.8999999761581","924.0999999940395","null","785.3999999761581","__5849.899999976158_7824.0999999940395_10997.59999999404_13985.399999976158","2","","","","",""
"html-button-response","292","1629974","0.0-8.0-2.0-0.2","1","1","2d13aqfaqbwm1eg","","5981.699999988079","","<p>Trial 3 of 36</p>","0","","","","","","","","","","","","","","","","","","","","","","","","","TA","sounds/syllables/ta_SWS.wav","5400,8100,10800,12600","1","","","","","","","","","","","","","","",""
"html-keyboard-response","293","1631998","0.0-8.0-2.0-1.2","1","1","2d13aqfaqbwm1eg","","2022.1000000238419","","","","80","","","","","","","","","","","","","","","","","","","","","","","","TA","","5400,8100,10800,12600","1","","","","","","","","","","","","","","",""
"audio-keyboard-response","294","1632302","0.0-8.0-2.0-2.4-0.4","1","1","2d13aqfaqbwm1eg","","null","","sounds/syllables/ta_SWS.wav","","null","","","","","","","","","","","","","","","","","","","","","","","","","","","","","","","","","","","","","","","","","",""
"html-keyboard-response","295","1633129","0.0-8.0-2.0-2.4-1.4","1","1","2d13aqfaqbwm1eg","","826.4000000059605","","<p>To replay the <u>TARGET SOUND</u>, press P.</p> When you are ready to begin, press SPACEBAR.","","80","","","","","","","","","","","","","","","","","","","","","","","","","","","","","","","","","","","","","","","","","",""
"audio-keyboard-response","296","1633934","0.0-8.0-2.0-2.5-0.5","1","1","2d13aqfaqbwm1eg","","null","","sounds/syllables/ta_SWS.wav","","null","","","","","","","","","","","","","","","","","","","","","","","","","","","","","","","","","","","","","","","","","",""
"html-keyboard-response","297","1634958","0.0-8.0-2.0-2.5-1.5","1","1","2d13aqfaqbwm1eg","","1022.4000000059605","","<p>To replay the <u>TARGET SOUND</u>, press P.</p> When you are ready to begin, press SPACEBAR.","","32","","","","","","","","","","","","","","","","","","","","","","","","","","","","","","","","","","","","","","","","","",""
"audio-keyboard-response","298","1649908","0.0-8.0-2.0-3.2","1","1","2d13aqfaqbwm1eg","","3237","","sounds/A/TD/TA_10_TD.mp3","","32","","","TD_SUMMARY","","","","","","","","","","","","","","","","","","","","","TA","","5400,8100,10800,12600","1","5400","8100","10800","12600","null","null","922.5","1087.2999999821186","______3238.5_4682.5999999940395_11722.5_13029.299999982119_13687.299999982119_14100.199999988079","2","","","","",""
"html-button-response","299","1651742","0.0-8.0-2.0-0.3","1","1","2d13aqfaqbwm1eg","","1830.699999988079","","<p>Trial 4 of 36</p>","0","","","","","","","","","","","","","","","","","","","","","","","","","GE","sounds/syllables/ge_SWS.wav","3000,5700,8400,12900","2","","","","","","","","","","","","","","",""
"html-keyboard-response","300","1653449","0.0-8.0-2.0-1.3","1","1","2d13aqfaqbwm1eg","","1705.300000011921","","","","80","","","","","","","","","","","","","","","","","","","","","","","","GE","","3000,5700,8400,12900","2","","","","","","","","","","","","","","",""
"audio-keyboard-response","301","1653752","0.0-8.0-2.0-2.6-0.6","1","1","2d13aqfaqbwm1eg","","null","","sounds/syllables/ge_SWS.wav","","null","","","","","","","","","","","","","","","","","","","","","","","","","","","","","","","","","","","","","","","","","",""
"html-keyboard-response","302","1655480","0.0-8.0-2.0-2.6-1.6","1","1","2d13aqfaqbwm1eg","","1726","","<p>To replay the <u>TARGET SOUND</u>, press P.</p> When you are ready to begin, press SPACEBAR.","","32","","","","","","","","","","","","","","","","","","","","","","","","","","","","","","","","","","","","","","","","","",""
"audio-keyboard-response","303","1670430","0.0-8.0-2.0-3.3","1","1","2d13aqfaqbwm1eg","","4923","","sounds/A/TD/GE_09_TD.mp3","","32","","","TD_SUMMARY","","","","","","","","","","","","","","","","","","","","","GE","","3000,5700,8400,12900","2","3000","5700","8400","12900","null","null","null","null","____________4923.700000017881_6989.200000017881","1","","","","",""
"html-button-response","304","1672698","0.0-8.0-2.0-0.4","1","1","2d13aqfaqbwm1eg","","2265","","<p>Trial 5 of 36</p>","0","","","","","","","","","","","","","","","","","","","","","","","","","ME","sounds/syllables/me_SWS.wav","3300,5100,11400,13200","3","","","","","","","","","","","","","","",""
"html-keyboard-response","305","1674063","0.0-8.0-2.0-1.4","1","1","2d13aqfaqbwm1eg","","1363.7000000178814","","","","80","","","","","","","","","","","","","","","","","","","","","","","","ME","","3300,5100,11400,13200","3","","","","","","","","","","","","","","",""
"audio-keyboard-response","306","1674365","0.0-8.0-2.0-2.7-0.7","1","1","2d13aqfaqbwm1eg","","null","","sounds/syllables/me_SWS.wav","","null","","","","","","","","","","","","","","","","","","","","","","","","","","","","","","","","","","","","","","","","","",""
"html-keyboard-response","307","1675149","0.0-8.0-2.0-2.7-1.7","1","1","2d13aqfaqbwm1eg","","782.0999999940395","","<p>To replay the <u>TARGET SOUND</u>, press P.</p> When you are ready to begin, press SPACEBAR.","","32","","","","","","","","","","","","","","","","","","","","","","","","","","","","","","","","","","","","","","","","","",""
"audio-keyboard-response","308","1690099","0.0-8.0-2.0-3.4","1","1","2d13aqfaqbwm1eg","","null","","sounds/A/TD/ME_02_TD.mp3","","null","","","TD_SUMMARY","","","","","","","","","","","","","","","","","","","","","ME","","3300,5100,11400,13200","3","3300","5100","11400","13200","null","null","null","null","","1","","","","",""
"html-button-response","309","1691561","0.0-8.0-2.0-0.5","1","1","2d13aqfaqbwm1eg","","1459.6000000238419","","<p>Trial 6 of 36</p>","0","","","","","","","","","","","","","","","","","","","","","","","","","TI","sounds/syllables/ti_SWS.wav","3000,8400,11100,12900","2","","","","","","","","","","","","","","",""
"html-keyboard-response","310","1693323","0.0-8.0-2.0-1.5","1","1","2d13aqfaqbwm1eg","","1760.1000000238419","","","","80","","","","","","","","","","","","","","","","","","","","","","","","TI","","3000,8400,11100,12900","2","","","","","","","","","","","","","","",""
"audio-keyboard-response","311","1693623","0.0-8.0-2.0-2.8-0.8","1","1","2d13aqfaqbwm1eg","","null","","sounds/syllables/ti_SWS.wav","","null","","","","","","","","","","","","","","","","","","","","","","","","","","","","","","","","","","","","","","","","","",""
"html-keyboard-response","312","1695243","0.0-8.0-2.0-2.8-1.8","1","1","2d13aqfaqbwm1eg","","1618.4000000059605","","<p>To replay the <u>TARGET SOUND</u>, press P.</p> When you are ready to begin, press SPACEBAR.","","32","","","","","","","","","","","","","","","","","","","","","","","","","","","","","","","","","","","","","","","","","",""
"audio-keyboard-response","313","1710189","0.0-8.0-2.0-3.5","1","1","2d13aqfaqbwm1eg","","null","","sounds/A/TD/TI_02_TD.mp3","","null","","","TD_SUMMARY","","","","","","","","","","","","","","","","","","","","","TI","","3000,8400,11100,12900","2","3000","8400","11100","12900","null","null","null","null","","1","","","","",""
"html-button-response","314","1711136","0.0-8.0-2.0-0.6","1","1","2d13aqfaqbwm1eg","","943.5","","<p>Trial 7 of 36</p>","0","","","","","","","","","","","","","","","","","","","","","","","","","TI","sounds/syllables/ti_SWS.wav","1200,6600,9300,12900","2","","","","","","","","","","","","","","",""
"html-keyboard-response","315","1712283","0.0-8.0-2.0-1.6","1","1","2d13aqfaqbwm1eg","","1145.5","","","","80","","","","","","","","","","","","","","","","","","","","","","","","TI","","1200,6600,9300,12900","2","","","","","","","","","","","","","","",""
