"trial_type","trial_index","time_elapsed","internal_node_id","counterbalance","lang_instruct","ParticipantID","view_history","rt","url","stimulus","button_pressed","key_press","correctRESP","correct","designation","location","correctanswer","timeouts","pause_rt01","pause_rt02","train_file","numKeyPress","sound","fam_type","SYLLABLE","EXEMPLAR","TD_LOCS","TD_TYPE","TDLOC_01","TDLOC_02","TDLOC_03","TDLOC_04","TD_RT_01","TD_RT_02","TD_RT_03","TD_RT_04","TD_SUBJ_RTs","number_of_plays","responses","slider_start","response","question_order","syllable","syllable_type"
"pavlovia","0","3","0.0-0.0","3","0","f44n7bu16muzd8u","","","","","","","","","","","","","","","","","","","","","","","","","","","","","","","","","","","","","",""
"instructions","1","13296","0.0-1.0","3","0","f44n7bu16muzd8u","[{""page_index"":0,""viewing_time"":4014.5},{""page_index"":1,""viewing_time"":9272.699999988079}]","13292.900000035763","","","","","","","","","","","","","","","","","","","","","","","","","","","","","","","","","","","",""
"external-html","2","7128642","0.0-2.0","3","0","f44n7bu16muzd8u","","1212530.1000000238","consent/consent.html","","","","","","","","","","","","","","","","","","","","","","","","","","","","","","","","","","",""
"html-button-response","3","7131025","0.0-3.0-0.0-0.0","3","0","f44n7bu16muzd8u","","2380.199999988079","","<p>Welcome to the study. You will first complete a short volume calibration and headphone check.</p><p>Please make sure you are in a quiet listening environment, that you are wearing headphones, and that your computer's volume is turned on.<p></p>","0","","","","","","","","","","","","","","","","","","","","","","","","","","","","","","","","",""
"html-button-response","4","7437647","0.0-3.0-0.0-1.0","3","0","f44n7bu16muzd8u","","306369.90000003576","","<p>The volume calibration will be first.</p><p>You will hear a thirty-second noise. Please adjust your computer's volume so that this noise is being presented at a comfortable level.<p></p>","0","","","","","","","","","","","","","","","","","","","","","","","","","","","","","","","","",""
"audio-button-response","5","7463475","0.0-3.0-0.0-2.0","3","0","f44n7bu16muzd8u","","25414","","audCalib/volumetest.mp3","0","","","","","","","","","","","","","","","","","","","","","","","","","","","","","","","","",""
"html-button-response","6","7478290","0.0-3.0-1.0-0.0","3","0","f44n7bu16muzd8u","","14813","","<p>You will now complete a short headphone check.</p><p>On each trial, you will hear three tones. One of these tones will be quieter than the others. Your task is to identify whether the quiet tone occured first, second, or third.</p><p>There are six trials in total.<p></p>","0","","","","","","","","","","","","","","","","","","","","","","","","","","","","","","","","",""
"html-keyboard-response","7","7479044","0.0-3.0-1.0-1.0-0.0","3","0","f44n7bu16muzd8u","","null","","<div style=""font-size:60px;"">+</div>","","null","","","","","","","","","","","","","","","","","","","","","","","","","","","","","","","",""
"audio-button-response","8","7484604","0.0-3.0-1.0-1.0-1.0","3","0","f44n7bu16muzd8u","","5555","","audCalib/t3_1.mp3","2","","2","1","headphone-test","","","","","","","","","","","","","","","","","","","","","","","","","","","","",""
"html-keyboard-response","9","7485362","0.0-3.0-1.0-1.0-0.1","3","0","f44n7bu16muzd8u","","null","","<div style=""font-size:60px;"">+</div>","","null","","","","","","","","","","","","","","","","","","","","","","","","","","","","","","","",""
"audio-button-response","10","7490795","0.0-3.0-1.0-1.0-1.1","3","0","f44n7bu16muzd8u","","5433","","audCalib/t1_1.mp3","0","","0","1","headphone-test","","","","","","","","","","","","","","","","","","","","","","","","","","","","",""
"html-keyboard-response","11","7491549","0.0-3.0-1.0-1.0-0.2","3","0","f44n7bu16muzd8u","","null","","<div style=""font-size:60px;"">+</div>","","null","","","","","","","","","","","","","","","","","","","","","","","","","","","","","","","",""
"audio-button-response","12","7496769","0.0-3.0-1.0-1.0-1.2","3","0","f44n7bu16muzd8u","","5219","","audCalib/t3_2.mp3","2","","2","1","headphone-test","","","","","","","","","","","","","","","","","","","","","","","","","","","","",""
"html-keyboard-response","13","7497524","0.0-3.0-1.0-1.0-0.3","3","0","f44n7bu16muzd8u","","null","","<div style=""font-size:60px;"">+</div>","","null","","","","","","","","","","","","","","","","","","","","","","","","","","","","","","","",""
"audio-button-response","14","7502460","0.0-3.0-1.0-1.0-1.3","3","0","f44n7bu16muzd8u","","4934","","audCalib/t1_2.mp3","0","","0","1","headphone-test","","","","","","","","","","","","","","","","","","","","","","","","","","","","",""
"html-keyboard-response","15","7503218","0.0-3.0-1.0-1.0-0.4","3","0","f44n7bu16muzd8u","","null","","<div style=""font-size:60px;"">+</div>","","null","","","","","","","","","","","","","","","","","","","","","","","","","","","","","","","",""
"audio-button-response","16","7508507","0.0-3.0-1.0-1.0-1.4","3","0","f44n7bu16muzd8u","","5288","","audCalib/t2_2.mp3","1","","1","1","headphone-test","","","","","","","","","","","","","","","","","","","","","","","","","","","","",""
"html-keyboard-response","17","7509264","0.0-3.0-1.0-1.0-0.5","3","0","f44n7bu16muzd8u","","null","","<div style=""font-size:60px;"">+</div>","","null","","","","","","","","","","","","","","","","","","","","","","","","","","","","","","","",""
"audio-button-response","18","7514072","0.0-3.0-1.0-1.0-1.5","3","0","f44n7bu16muzd8u","","4807","","audCalib/t2_1.mp3","1","","1","1","headphone-test","","","","","","","","","","","","","","","","","","","","","","","","","","","","",""
"html-button-response","19","7518455","0.0-3.0-2.0","3","0","f44n7bu16muzd8u","","4127.700000047684","","<p>The volume calibration and headphone check are now complete.</p>","0","","","","","","","","","","","","","","","","","","","","","","","","","","","","","","","","",""
"instructions","20","7545938","0.0-4.0-0.0","3","0","f44n7bu16muzd8u","[{""page_index"":0,""viewing_time"":2883.800000011921},{""page_index"":1,""viewing_time"":12191.5},{""page_index"":2,""viewing_time"":12407.699999988079}]","27483.30000001192","","","","","","","","","","","","","","","","","","","","","","","","","","","","","","","","","","","",""
"audio-keyboard-response","21","7546398","0.0-4.0-1.0-0.0","3","0","f44n7bu16muzd8u","","null","","sounds/induction/right_rev/ni_SWS.wav","","null","","","","","","","","","","","","","","","","","","","","","","","","","","","","","","","",""
"html-button-response","22","7548270","0.0-4.0-1.0-1.0","3","0","f44n7bu16muzd8u","","1869.2999999523163","","Was the sound coming from the left or the right?","1","","","1","INDUCTION-JUDGMENT","right","1","","","","","","","","","","","","","","","","","","","","","","","","","","",""
"html-keyboard-response","23","7549273","0.0-4.0-1.0-2.0","3","0","f44n7bu16muzd8u","","null","","<p style=""color:#054d00;""><b>Correct!</b></p>","","null","","","","","","","","","","","","","","","","","","","","","","","","","","","","","","","",""
"audio-keyboard-response","24","7550075","0.0-4.0-1.0-0.1","3","0","f44n7bu16muzd8u","","null","","sounds/induction/left_rev/ni_SWS.wav","","null","","","","","","","","","","","","","","","","","","","","","","","","","","","","","","","",""
"html-button-response","25","7551836","0.0-4.0-1.0-1.1","3","0","f44n7bu16muzd8u","","1759.199999988079","","Was the sound coming from the left or the right?","0","","","1","INDUCTION-JUDGMENT","left","0","","","","","","","","","","","","","","","","","","","","","","","","","","",""
"html-keyboard-response","26","7552840","0.0-4.0-1.0-2.1","3","0","f44n7bu16muzd8u","","null","","<p style=""color:#054d00;""><b>Correct!</b></p>","","null","","","","","","","","","","","","","","","","","","","","","","","","","","","","","","","",""
"audio-keyboard-response","27","7553643","0.0-4.0-1.0-0.2","3","0","f44n7bu16muzd8u","","null","","sounds/induction/left_rev/ta_SWS.wav","","null","","","","","","","","","","","","","","","","","","","","","","","","","","","","","","","",""
"html-button-response","28","7554687","0.0-4.0-1.0-1.2","3","0","f44n7bu16muzd8u","","1043.199999988079","","Was the sound coming from the left or the right?","0","","","1","INDUCTION-JUDGMENT","left","0","","","","","","","","","","","","","","","","","","","","","","","","","","",""
"html-keyboard-response","29","7555688","0.0-4.0-1.0-2.2","3","0","f44n7bu16muzd8u","","null","","<p style=""color:#054d00;""><b>Correct!</b></p>","","null","","","","","","","","","","","","","","","","","","","","","","","","","","","","","","","",""
"audio-keyboard-response","30","7556498","0.0-4.0-1.0-0.3","3","0","f44n7bu16muzd8u","","null","","sounds/induction/left_rev/ru_SWS.wav","","null","","","","","","","","","","","","","","","","","","","","","","","","","","","","","","","",""
"html-button-response","31","7557570","0.0-4.0-1.0-1.3","3","0","f44n7bu16muzd8u","","1071.2999999523163","","Was the sound coming from the left or the right?","0","","","1","INDUCTION-JUDGMENT","left","0","","","","","","","","","","","","","","","","","","","","","","","","","","",""
"html-keyboard-response","32","7558572","0.0-4.0-1.0-2.3","3","0","f44n7bu16muzd8u","","null","","<p style=""color:#054d00;""><b>Correct!</b></p>","","null","","","","","","","","","","","","","","","","","","","","","","","","","","","","","","","",""
"audio-keyboard-response","33","7559377","0.0-4.0-1.0-0.4","3","0","f44n7bu16muzd8u","","null","","sounds/induction/left_rev/fe_SWS.wav","","null","","","","","","","","","","","","","","","","","","","","","","","","","","","","","","","",""
"html-button-response","34","7560421","0.0-4.0-1.0-1.4","3","0","f44n7bu16muzd8u","","1043.7000000476837","","Was the sound coming from the left or the right?","0","","","1","INDUCTION-JUDGMENT","left","0","","","","","","","","","","","","","","","","","","","","","","","","","","",""
"html-keyboard-response","35","7561422","0.0-4.0-1.0-2.4","3","0","f44n7bu16muzd8u","","null","","<p style=""color:#054d00;""><b>Correct!</b></p>","","null","","","","","","","","","","","","","","","","","","","","","","","","","","","","","","","",""
"audio-keyboard-response","36","7562226","0.0-4.0-1.0-0.5","3","0","f44n7bu16muzd8u","","null","","sounds/induction/right_rev/fu_SWS.wav","","null","","","","","","","","","","","","","","","","","","","","","","","","","","","","","","","",""
"html-button-response","37","7563174","0.0-4.0-1.0-1.5","3","0","f44n7bu16muzd8u","","947.3000000119209","","Was the sound coming from the left or the right?","1","","","1","INDUCTION-JUDGMENT","right","1","","","","","","","","","","","","","","","","","","","","","","","","","","",""
"html-keyboard-response","38","7564177","0.0-4.0-1.0-2.5","3","0","f44n7bu16muzd8u","","null","","<p style=""color:#054d00;""><b>Correct!</b></p>","","null","","","","","","","","","","","","","","","","","","","","","","","","","","","","","","","",""
"audio-keyboard-response","39","7564977","0.0-4.0-1.0-0.6","3","0","f44n7bu16muzd8u","","null","","sounds/induction/right_rev/ta_SWS.wav","","null","","","","","","","","","","","","","","","","","","","","","","","","","","","","","","","",""
"html-button-response","40","7565788","0.0-4.0-1.0-1.6","3","0","f44n7bu16muzd8u","","810.8000000119209","","Was the sound coming from the left or the right?","1","","","1","INDUCTION-JUDGMENT","right","1","","","","","","","","","","","","","","","","","","","","","","","","","","",""
"html-keyboard-response","41","7566790","0.0-4.0-1.0-2.6","3","0","f44n7bu16muzd8u","","null","","<p style=""color:#054d00;""><b>Correct!</b></p>","","null","","","","","","","","","","","","","","","","","","","","","","","","","","","","","","","",""
"audio-keyboard-response","42","7567595","0.0-4.0-1.0-0.7","3","0","f44n7bu16muzd8u","","null","","sounds/induction/right_rev/ru_SWS.wav","","null","","","","","","","","","","","","","","","","","","","","","","","","","","","","","","","",""
"html-button-response","43","7568765","0.0-4.0-1.0-1.7","3","0","f44n7bu16muzd8u","","1169.5","","Was the sound coming from the left or the right?","1","","","1","INDUCTION-JUDGMENT","right","1","","","","","","","","","","","","","","","","","","","","","","","","","","",""
"html-keyboard-response","44","7569767","0.0-4.0-1.0-2.7","3","0","f44n7bu16muzd8u","","null","","<p style=""color:#054d00;""><b>Correct!</b></p>","","null","","","","","","","","","","","","","","","","","","","","","","","","","","","","","","","",""
"audio-keyboard-response","45","7570572","0.0-4.0-1.0-0.8","3","0","f44n7bu16muzd8u","","null","","sounds/induction/right_rev/ti_SWS.wav","","null","","","","","","","","","","","","","","","","","","","","","","","","","","","","","","","",""
"html-button-response","46","7571594","0.0-4.0-1.0-1.8","3","0","f44n7bu16muzd8u","","1019.1000000238419","","Was the sound coming from the left or the right?","1","","","1","INDUCTION-JUDGMENT","right","1","","","","","","","","","","","","","","","","","","","","","","","","","","",""
"html-keyboard-response","47","7572598","0.0-4.0-1.0-2.8","3","0","f44n7bu16muzd8u","","null","","<p style=""color:#054d00;""><b>Correct!</b></p>","","null","","","","","","","","","","","","","","","","","","","","","","","","","","","","","","","",""
"audio-keyboard-response","48","7573398","0.0-4.0-1.0-0.9","3","0","f44n7bu16muzd8u","","null","","sounds/induction/left_rev/fu_SWS.wav","","null","","","","","","","","","","","","","","","","","","","","","","","","","","","","","","","",""
"html-button-response","49","7574728","0.0-4.0-1.0-1.9","3","0","f44n7bu16muzd8u","","1328.699999988079","","Was the sound coming from the left or the right?","0","","","1","INDUCTION-JUDGMENT","left","0","","","","","","","","","","","","","","","","","","","","","","","","","","",""
"html-keyboard-response","50","7575729","0.0-4.0-1.0-2.9","3","0","f44n7bu16muzd8u","","null","","<p style=""color:#054d00;""><b>Correct!</b></p>","","null","","","","","","","","","","","","","","","","","","","","","","","","","","","","","","","",""
"audio-keyboard-response","51","7576531","0.0-4.0-1.0-0.10","3","0","f44n7bu16muzd8u","","null","","sounds/induction/left_rev/ti_SWS.wav","","null","","","","","","","","","","","","","","","","","","","","","","","","","","","","","","","",""
"html-button-response","52","7577476","0.0-4.0-1.0-1.10","3","0","f44n7bu16muzd8u","","943.6999999880791","","Was the sound coming from the left or the right?","0","","","1","INDUCTION-JUDGMENT","left","0","","","","","","","","","","","","","","","","","","","","","","","","","","",""
"html-keyboard-response","53","7578477","0.0-4.0-1.0-2.10","3","0","f44n7bu16muzd8u","","null","","<p style=""color:#054d00;""><b>Correct!</b></p>","","null","","","","","","","","","","","","","","","","","","","","","","","","","","","","","","","",""
"audio-keyboard-response","54","7579288","0.0-4.0-1.0-0.11","3","0","f44n7bu16muzd8u","","null","","sounds/induction/right_rev/me_SWS.wav","","null","","","","","","","","","","","","","","","","","","","","","","","","","","","","","","","",""
"html-button-response","55","7580351","0.0-4.0-1.0-1.11","3","0","f44n7bu16muzd8u","","1062","","Was the sound coming from the left or the right?","1","","","1","INDUCTION-JUDGMENT","right","1","","","","","","","","","","","","","","","","","","","","","","","","","","",""
"html-keyboard-response","56","7581357","0.0-4.0-1.0-2.11","3","0","f44n7bu16muzd8u","","null","","<p style=""color:#054d00;""><b>Correct!</b></p>","","null","","","","","","","","","","","","","","","","","","","","","","","","","","","","","","","",""
"audio-keyboard-response","57","7582155","0.0-4.0-1.0-0.12","3","0","f44n7bu16muzd8u","","null","","sounds/induction/right_rev/ta_SWS.wav","","null","","","","","","","","","","","","","","","","","","","","","","","","","","","","","","","",""
"html-button-response","58","7583153","0.0-4.0-1.0-1.12","3","0","f44n7bu16muzd8u","","996.8000000119209","","Was the sound coming from the left or the right?","1","","","1","INDUCTION-JUDGMENT","right","1","","","","","","","","","","","","","","","","","","","","","","","","","","",""
"html-keyboard-response","59","7584155","0.0-4.0-1.0-2.12","3","0","f44n7bu16muzd8u","","null","","<p style=""color:#054d00;""><b>Correct!</b></p>","","null","","","","","","","","","","","","","","","","","","","","","","","","","","","","","","","",""
"audio-keyboard-response","60","7584952","0.0-4.0-1.0-0.13","3","0","f44n7bu16muzd8u","","null","","sounds/induction/left_rev/re_SWS.wav","","null","","","","","","","","","","","","","","","","","","","","","","","","","","","","","","","",""
"html-button-response","61","7586076","0.0-4.0-1.0-1.13","3","0","f44n7bu16muzd8u","","1123.5","","Was the sound coming from the left or the right?","0","","","1","INDUCTION-JUDGMENT","left","0","","","","","","","","","","","","","","","","","","","","","","","","","","",""
"html-keyboard-response","62","7587080","0.0-4.0-1.0-2.13","3","0","f44n7bu16muzd8u","","null","","<p style=""color:#054d00;""><b>Correct!</b></p>","","null","","","","","","","","","","","","","","","","","","","","","","","","","","","","","","","",""
"audio-keyboard-response","63","7587883","0.0-4.0-1.0-0.14","3","0","f44n7bu16muzd8u","","null","","sounds/induction/right_rev/ko_SWS.wav","","null","","","","","","","","","","","","","","","","","","","","","","","","","","","","","","","",""
"html-button-response","64","7589139","0.0-4.0-1.0-1.14","3","0","f44n7bu16muzd8u","","1254.7999999523163","","Was the sound coming from the left or the right?","1","","","1","INDUCTION-JUDGMENT","right","1","","","","","","","","","","","","","","","","","","","","","","","","","","",""
"html-keyboard-response","65","7590142","0.0-4.0-1.0-2.14","3","0","f44n7bu16muzd8u","","null","","<p style=""color:#054d00;""><b>Correct!</b></p>","","null","","","","","","","","","","","","","","","","","","","","","","","","","","","","","","","",""
"audio-keyboard-response","66","7590946","0.0-4.0-1.0-0.15","3","0","f44n7bu16muzd8u","","null","","sounds/induction/left_rev/fe_SWS.wav","","null","","","","","","","","","","","","","","","","","","","","","","","","","","","","","","","",""
"html-button-response","67","7591989","0.0-4.0-1.0-1.15","3","0","f44n7bu16muzd8u","","1042.5","","Was the sound coming from the left or the right?","0","","","1","INDUCTION-JUDGMENT","left","0","","","","","","","","","","","","","","","","","","","","","","","","","","",""
"html-keyboard-response","68","7592991","0.0-4.0-1.0-2.15","3","0","f44n7bu16muzd8u","","null","","<p style=""color:#054d00;""><b>Correct!</b></p>","","null","","","","","","","","","","","","","","","","","","","","","","","","","","","","","","","",""
"audio-keyboard-response","69","7593790","0.0-4.0-1.0-0.16","3","0","f44n7bu16muzd8u","","null","","sounds/induction/left_rev/su_SWS.wav","","null","","","","","","","","","","","","","","","","","","","","","","","","","","","","","","","",""
"html-button-response","70","7594765","0.0-4.0-1.0-1.16","3","0","f44n7bu16muzd8u","","971.5","","Was the sound coming from the left or the right?","0","","","1","INDUCTION-JUDGMENT","left","0","","","","","","","","","","","","","","","","","","","","","","","","","","",""
"html-keyboard-response","71","7595765","0.0-4.0-1.0-2.16","3","0","f44n7bu16muzd8u","","null","","<p style=""color:#054d00;""><b>Correct!</b></p>","","null","","","","","","","","","","","","","","","","","","","","","","","","","","","","","","","",""
"audio-keyboard-response","72","7596564","0.0-4.0-1.0-0.17","3","0","f44n7bu16muzd8u","","null","","sounds/induction/left_rev/pu_SWS.wav","","null","","","","","","","","","","","","","","","","","","","","","","","","","","","","","","","",""
"html-button-response","73","7597306","0.0-4.0-1.0-1.17","3","0","f44n7bu16muzd8u","","741.1000000238419","","Was the sound coming from the left or the right?","0","","","1","INDUCTION-JUDGMENT","left","0","","","","","","","","","","","","","","","","","","","","","","","","","","",""
"html-keyboard-response","74","7598308","0.0-4.0-1.0-2.17","3","0","f44n7bu16muzd8u","","null","","<p style=""color:#054d00;""><b>Correct!</b></p>","","null","","","","","","","","","","","","","","","","","","","","","","","","","","","","","","","",""
"audio-keyboard-response","75","7599113","0.0-4.0-1.0-0.18","3","0","f44n7bu16muzd8u","","null","","sounds/induction/left_rev/ko_SWS.wav","","null","","","","","","","","","","","","","","","","","","","","","","","","","","","","","","","",""
"html-button-response","76","7599979","0.0-4.0-1.0-1.18","3","0","f44n7bu16muzd8u","","865.8000000119209","","Was the sound coming from the left or the right?","0","","","1","INDUCTION-JUDGMENT","left","0","","","","","","","","","","","","","","","","","","","","","","","","","","",""
"html-keyboard-response","77","7600982","0.0-4.0-1.0-2.18","3","0","f44n7bu16muzd8u","","null","","<p style=""color:#054d00;""><b>Correct!</b></p>","","null","","","","","","","","","","","","","","","","","","","","","","","","","","","","","","","",""
"audio-keyboard-response","78","7601788","0.0-4.0-1.0-0.19","3","0","f44n7bu16muzd8u","","null","","sounds/induction/right_rev/me_SWS.wav","","null","","","","","","","","","","","","","","","","","","","","","","","","","","","","","","","",""
"html-button-response","79","7602747","0.0-4.0-1.0-1.19","3","0","f44n7bu16muzd8u","","957.8000000119209","","Was the sound coming from the left or the right?","1","","","1","INDUCTION-JUDGMENT","right","1","","","","","","","","","","","","","","","","","","","","","","","","","","",""
"html-keyboard-response","80","7603752","0.0-4.0-1.0-2.19","3","0","f44n7bu16muzd8u","","null","","<p style=""color:#054d00;""><b>Correct!</b></p>","","null","","","","","","","","","","","","","","","","","","","","","","","","","","","","","","","",""
"audio-keyboard-response","81","7604562","0.0-4.0-1.0-0.20","3","0","f44n7bu16muzd8u","","null","","sounds/induction/right_rev/ru_SWS.wav","","null","","","","","","","","","","","","","","","","","","","","","","","","","","","","","","","",""
"html-button-response","82","7605288","0.0-4.0-1.0-1.20","3","0","f44n7bu16muzd8u","","725.4000000357628","","Was the sound coming from the left or the right?","1","","","1","INDUCTION-JUDGMENT","right","1","","","","","","","","","","","","","","","","","","","","","","","","","","",""
"html-keyboard-response","83","7606291","0.0-4.0-1.0-2.20","3","0","f44n7bu16muzd8u","","null","","<p style=""color:#054d00;""><b>Correct!</b></p>","","null","","","","","","","","","","","","","","","","","","","","","","","","","","","","","","","",""
"audio-keyboard-response","84","7607099","0.0-4.0-1.0-0.21","3","0","f44n7bu16muzd8u","","null","","sounds/induction/right_rev/su_SWS.wav","","null","","","","","","","","","","","","","","","","","","","","","","","","","","","","","","","",""
"html-button-response","85","7607782","0.0-4.0-1.0-1.21","3","0","f44n7bu16muzd8u","","682.1999999880791","","Was the sound coming from the left or the right?","1","","","1","INDUCTION-JUDGMENT","right","1","","","","","","","","","","","","","","","","","","","","","","","","","","",""
"html-keyboard-response","86","7608788","0.0-4.0-1.0-2.21","3","0","f44n7bu16muzd8u","","null","","<p style=""color:#054d00;""><b>Correct!</b></p>","","null","","","","","","","","","","","","","","","","","","","","","","","","","","","","","","","",""
"audio-keyboard-response","87","7609595","0.0-4.0-1.0-0.22","3","0","f44n7bu16muzd8u","","null","","sounds/induction/right_rev/re_SWS.wav","","null","","","","","","","","","","","","","","","","","","","","","","","","","","","","","","","",""
"html-button-response","88","7610266","0.0-4.0-1.0-1.22","3","0","f44n7bu16muzd8u","","669.8999999761581","","Was the sound coming from the left or the right?","1","","","1","INDUCTION-JUDGMENT","right","1","","","","","","","","","","","","","","","","","","","","","","","","","","",""
"html-keyboard-response","89","7611269","0.0-4.0-1.0-2.22","3","0","f44n7bu16muzd8u","","null","","<p style=""color:#054d00;""><b>Correct!</b></p>","","null","","","","","","","","","","","","","","","","","","","","","","","","","","","","","","","",""
"audio-keyboard-response","90","7612074","0.0-4.0-1.0-0.23","3","0","f44n7bu16muzd8u","","null","","sounds/induction/right_rev/pu_SWS.wav","","null","","","","","","","","","","","","","","","","","","","","","","","","","","","","","","","",""
"html-button-response","91","7612853","0.0-4.0-1.0-1.23","3","0","f44n7bu16muzd8u","","777.8000000119209","","Was the sound coming from the left or the right?","1","","","1","INDUCTION-JUDGMENT","right","1","","","","","","","","","","","","","","","","","","","","","","","","","","",""
"html-keyboard-response","92","7613854","0.0-4.0-1.0-2.23","3","0","f44n7bu16muzd8u","","null","","<p style=""color:#054d00;""><b>Correct!</b></p>","","null","","","","","","","","","","","","","","","","","","","","","","","","","","","","","","","",""
"audio-keyboard-response","93","7614663","0.0-4.0-1.0-0.24","3","0","f44n7bu16muzd8u","","null","","sounds/induction/right_rev/re_SWS.wav","","null","","","","","","","","","","","","","","","","","","","","","","","","","","","","","","","",""
"html-button-response","94","7615347","0.0-4.0-1.0-1.24","3","0","f44n7bu16muzd8u","","682.6999999880791","","Was the sound coming from the left or the right?","1","","","1","INDUCTION-JUDGMENT","right","1","","","","","","","","","","","","","","","","","","","","","","","","","","",""
"html-keyboard-response","95","7616349","0.0-4.0-1.0-2.24","3","0","f44n7bu16muzd8u","","null","","<p style=""color:#054d00;""><b>Correct!</b></p>","","null","","","","","","","","","","","","","","","","","","","","","","","","","","","","","","","",""
"audio-keyboard-response","96","7617159","0.0-4.0-1.0-0.25","3","0","f44n7bu16muzd8u","","null","","sounds/induction/right_rev/fe_SWS.wav","","null","","","","","","","","","","","","","","","","","","","","","","","","","","","","","","","",""
"html-button-response","97","7617718","0.0-4.0-1.0-1.25","3","0","f44n7bu16muzd8u","","558.1000000238419","","Was the sound coming from the left or the right?","1","","","1","INDUCTION-JUDGMENT","right","1","","","","","","","","","","","","","","","","","","","","","","","","","","",""
"html-keyboard-response","98","7618723","0.0-4.0-1.0-2.25","3","0","f44n7bu16muzd8u","","null","","<p style=""color:#054d00;""><b>Correct!</b></p>","","null","","","","","","","","","","","","","","","","","","","","","","","","","","","","","","","",""
"audio-keyboard-response","99","7619534","0.0-4.0-1.0-0.26","3","0","f44n7bu16muzd8u","","null","","sounds/induction/right_rev/ko_SWS.wav","","null","","","","","","","","","","","","","","","","","","","","","","","","","","","","","","","",""
"html-button-response","100","7620333","0.0-4.0-1.0-1.26","3","0","f44n7bu16muzd8u","","798.0999999642372","","Was the sound coming from the left or the right?","1","","","1","INDUCTION-JUDGMENT","right","1","","","","","","","","","","","","","","","","","","","","","","","","","","",""
"html-keyboard-response","101","7621335","0.0-4.0-1.0-2.26","3","0","f44n7bu16muzd8u","","null","","<p style=""color:#054d00;""><b>Correct!</b></p>","","null","","","","","","","","","","","","","","","","","","","","","","","","","","","","","","","",""
"audio-keyboard-response","102","7622146","0.0-4.0-1.0-0.27","3","0","f44n7bu16muzd8u","","null","","sounds/induction/right_rev/ge_SWS.wav","","null","","","","","","","","","","","","","","","","","","","","","","","","","","","","","","","",""
"html-button-response","103","7623191","0.0-4.0-1.0-1.27","3","0","f44n7bu16muzd8u","","1044.7000000476837","","Was the sound coming from the left or the right?","1","","","1","INDUCTION-JUDGMENT","right","1","","","","","","","","","","","","","","","","","","","","","","","","","","",""
"html-keyboard-response","104","7624193","0.0-4.0-1.0-2.27","3","0","f44n7bu16muzd8u","","null","","<p style=""color:#054d00;""><b>Correct!</b></p>","","null","","","","","","","","","","","","","","","","","","","","","","","","","","","","","","","",""
"audio-keyboard-response","105","7624995","0.0-4.0-1.0-0.28","3","0","f44n7bu16muzd8u","","null","","sounds/induction/left_rev/pu_SWS.wav","","null","","","","","","","","","","","","","","","","","","","","","","","","","","","","","","","",""
"html-button-response","106","7626474","0.0-4.0-1.0-1.28","3","0","f44n7bu16muzd8u","","1477.6000000238419","","Was the sound coming from the left or the right?","0","","","1","INDUCTION-JUDGMENT","left","0","","","","","","","","","","","","","","","","","","","","","","","","","","",""
"html-keyboard-response","107","7627477","0.0-4.0-1.0-2.28","3","0","f44n7bu16muzd8u","","null","","<p style=""color:#054d00;""><b>Correct!</b></p>","","null","","","","","","","","","","","","","","","","","","","","","","","","","","","","","","","",""
"audio-keyboard-response","108","7628279","0.0-4.0-1.0-0.29","3","0","f44n7bu16muzd8u","","null","","sounds/induction/left_rev/su_SWS.wav","","null","","","","","","","","","","","","","","","","","","","","","","","","","","","","","","","",""
"html-button-response","109","7629046","0.0-4.0-1.0-1.29","3","0","f44n7bu16muzd8u","","765.6999999880791","","Was the sound coming from the left or the right?","0","","","1","INDUCTION-JUDGMENT","left","0","","","","","","","","","","","","","","","","","","","","","","","","","","",""
"html-keyboard-response","110","7630049","0.0-4.0-1.0-2.29","3","0","f44n7bu16muzd8u","","null","","<p style=""color:#054d00;""><b>Correct!</b></p>","","null","","","","","","","","","","","","","","","","","","","","","","","","","","","","","","","",""
"audio-keyboard-response","111","7630851","0.0-4.0-1.0-0.30","3","0","f44n7bu16muzd8u","","null","","sounds/induction/left_rev/ge_SWS.wav","","null","","","","","","","","","","","","","","","","","","","","","","","","","","","","","","","",""
"html-button-response","112","7631595","0.0-4.0-1.0-1.30","3","0","f44n7bu16muzd8u","","743.5","","Was the sound coming from the left or the right?","0","","","1","INDUCTION-JUDGMENT","left","0","","","","","","","","","","","","","","","","","","","","","","","","","","",""
"html-keyboard-response","113","7632599","0.0-4.0-1.0-2.30","3","0","f44n7bu16muzd8u","","null","","<p style=""color:#054d00;""><b>Correct!</b></p>","","null","","","","","","","","","","","","","","","","","","","","","","","","","","","","","","","",""
"audio-keyboard-response","114","7633405","0.0-4.0-1.0-0.31","3","0","f44n7bu16muzd8u","","null","","sounds/induction/left_rev/fu_SWS.wav","","null","","","","","","","","","","","","","","","","","","","","","","","","","","","","","","","",""
"html-button-response","115","7634431","0.0-4.0-1.0-1.31","3","0","f44n7bu16muzd8u","","1025.199999988079","","Was the sound coming from the left or the right?","0","","","1","INDUCTION-JUDGMENT","left","0","","","","","","","","","","","","","","","","","","","","","","","","","","",""
"html-keyboard-response","116","7635433","0.0-4.0-1.0-2.31","3","0","f44n7bu16muzd8u","","null","","<p style=""color:#054d00;""><b>Correct!</b></p>","","null","","","","","","","","","","","","","","","","","","","","","","","","","","","","","","","",""
"audio-keyboard-response","117","7636237","0.0-4.0-1.0-0.32","3","0","f44n7bu16muzd8u","","null","","sounds/induction/left_rev/ko_SWS.wav","","null","","","","","","","","","","","","","","","","","","","","","","","","","","","","","","","",""
"html-button-response","118","7637051","0.0-4.0-1.0-1.32","3","0","f44n7bu16muzd8u","","813.6999999880791","","Was the sound coming from the left or the right?","0","","","1","INDUCTION-JUDGMENT","left","0","","","","","","","","","","","","","","","","","","","","","","","","","","",""
"html-keyboard-response","119","7638053","0.0-4.0-1.0-2.32","3","0","f44n7bu16muzd8u","","null","","<p style=""color:#054d00;""><b>Correct!</b></p>","","null","","","","","","","","","","","","","","","","","","","","","","","","","","","","","","","",""
"audio-keyboard-response","120","7638854","0.0-4.0-1.0-0.33","3","0","f44n7bu16muzd8u","","null","","sounds/induction/left_rev/re_SWS.wav","","null","","","","","","","","","","","","","","","","","","","","","","","","","","","","","","","",""
"html-button-response","121","7639519","0.0-4.0-1.0-1.33","3","0","f44n7bu16muzd8u","","664","","Was the sound coming from the left or the right?","0","","","1","INDUCTION-JUDGMENT","left","0","","","","","","","","","","","","","","","","","","","","","","","","","","",""
"html-keyboard-response","122","7640525","0.0-4.0-1.0-2.33","3","0","f44n7bu16muzd8u","","null","","<p style=""color:#054d00;""><b>Correct!</b></p>","","null","","","","","","","","","","","","","","","","","","","","","","","","","","","","","","","",""
"audio-keyboard-response","123","7641328","0.0-4.0-1.0-0.34","3","0","f44n7bu16muzd8u","","null","","sounds/induction/left_rev/ta_SWS.wav","","null","","","","","","","","","","","","","","","","","","","","","","","","","","","","","","","",""
"html-button-response","124","7642063","0.0-4.0-1.0-1.34","3","0","f44n7bu16muzd8u","","734.1999999880791","","Was the sound coming from the left or the right?","0","","","1","INDUCTION-JUDGMENT","left","0","","","","","","","","","","","","","","","","","","","","","","","","","","",""
"html-keyboard-response","125","7643065","0.0-4.0-1.0-2.34","3","0","f44n7bu16muzd8u","","null","","<p style=""color:#054d00;""><b>Correct!</b></p>","","null","","","","","","","","","","","","","","","","","","","","","","","","","","","","","","","",""
"audio-keyboard-response","126","7643864","0.0-4.0-1.0-0.35","3","0","f44n7bu16muzd8u","","null","","sounds/induction/right_rev/pu_SWS.wav","","null","","","","","","","","","","","","","","","","","","","","","","","","","","","","","","","",""
"html-button-response","127","7644873","0.0-4.0-1.0-1.35","3","0","f44n7bu16muzd8u","","1007.9000000357628","","Was the sound coming from the left or the right?","1","","","1","INDUCTION-JUDGMENT","right","1","","","","","","","","","","","","","","","","","","","","","","","","","","",""
"html-keyboard-response","128","7645875","0.0-4.0-1.0-2.35","3","0","f44n7bu16muzd8u","","null","","<p style=""color:#054d00;""><b>Correct!</b></p>","","null","","","","","","","","","","","","","","","","","","","","","","","","","","","","","","","",""
"audio-keyboard-response","129","7646679","0.0-4.0-1.0-0.36","3","0","f44n7bu16muzd8u","","null","","sounds/induction/right_rev/fu_SWS.wav","","null","","","","","","","","","","","","","","","","","","","","","","","","","","","","","","","",""
"html-button-response","130","7647334","0.0-4.0-1.0-1.36","3","0","f44n7bu16muzd8u","","653.6999999880791","","Was the sound coming from the left or the right?","1","","","1","INDUCTION-JUDGMENT","right","1","","","","","","","","","","","","","","","","","","","","","","","","","","",""
"html-keyboard-response","131","7648335","0.0-4.0-1.0-2.36","3","0","f44n7bu16muzd8u","","null","","<p style=""color:#054d00;""><b>Correct!</b></p>","","null","","","","","","","","","","","","","","","","","","","","","","","","","","","","","","","",""
"audio-keyboard-response","132","7649135","0.0-4.0-1.0-0.37","3","0","f44n7bu16muzd8u","","null","","sounds/induction/right_rev/ge_SWS.wav","","null","","","","","","","","","","","","","","","","","","","","","","","","","","","","","","","",""
"html-button-response","133","7649883","0.0-4.0-1.0-1.37","3","0","f44n7bu16muzd8u","","747","","Was the sound coming from the left or the right?","1","","","1","INDUCTION-JUDGMENT","right","1","","","","","","","","","","","","","","","","","","","","","","","","","","",""
"html-keyboard-response","134","7650884","0.0-4.0-1.0-2.37","3","0","f44n7bu16muzd8u","","null","","<p style=""color:#054d00;""><b>Correct!</b></p>","","null","","","","","","","","","","","","","","","","","","","","","","","","","","","","","","","",""
"audio-keyboard-response","135","7651689","0.0-4.0-1.0-0.38","3","0","f44n7bu16muzd8u","","null","","sounds/induction/right_rev/ni_SWS.wav","","null","","","","","","","","","","","","","","","","","","","","","","","","","","","","","","","",""
"html-button-response","136","7652538","0.0-4.0-1.0-1.38","3","0","f44n7bu16muzd8u","","848","","Was the sound coming from the left or the right?","1","","","1","INDUCTION-JUDGMENT","right","1","","","","","","","","","","","","","","","","","","","","","","","","","","",""
"html-keyboard-response","137","7653542","0.0-4.0-1.0-2.38","3","0","f44n7bu16muzd8u","","null","","<p style=""color:#054d00;""><b>Correct!</b></p>","","null","","","","","","","","","","","","","","","","","","","","","","","","","","","","","","","",""
"audio-keyboard-response","138","7654341","0.0-4.0-1.0-0.39","3","0","f44n7bu16muzd8u","","null","","sounds/induction/left_rev/ru_SWS.wav","","null","","","","","","","","","","","","","","","","","","","","","","","","","","","","","","","",""
"html-button-response","139","7655397","0.0-4.0-1.0-1.39","3","0","f44n7bu16muzd8u","","1054.8999999761581","","Was the sound coming from the left or the right?","0","","","1","INDUCTION-JUDGMENT","left","0","","","","","","","","","","","","","","","","","","","","","","","","","","",""
"html-keyboard-response","140","7656403","0.0-4.0-1.0-2.39","3","0","f44n7bu16muzd8u","","null","","<p style=""color:#054d00;""><b>Correct!</b></p>","","null","","","","","","","","","","","","","","","","","","","","","","","","","","","","","","","",""
"audio-keyboard-response","141","7657202","0.0-4.0-1.0-0.40","3","0","f44n7bu16muzd8u","","null","","sounds/induction/left_rev/ge_SWS.wav","","null","","","","","","","","","","","","","","","","","","","","","","","","","","","","","","","",""
"html-button-response","142","7657946","0.0-4.0-1.0-1.40","3","0","f44n7bu16muzd8u","","742.6999999880791","","Was the sound coming from the left or the right?","0","","","1","INDUCTION-JUDGMENT","left","0","","","","","","","","","","","","","","","","","","","","","","","","","","",""
"html-keyboard-response","143","7658948","0.0-4.0-1.0-2.40","3","0","f44n7bu16muzd8u","","null","","<p style=""color:#054d00;""><b>Correct!</b></p>","","null","","","","","","","","","","","","","","","","","","","","","","","","","","","","","","","",""
"audio-keyboard-response","144","7659751","0.0-4.0-1.0-0.41","3","0","f44n7bu16muzd8u","","null","","sounds/induction/left_rev/me_SWS.wav","","null","","","","","","","","","","","","","","","","","","","","","","","","","","","","","","","",""
"html-button-response","145","7660600","0.0-4.0-1.0-1.41","3","0","f44n7bu16muzd8u","","848.8000000119209","","Was the sound coming from the left or the right?","0","","","1","INDUCTION-JUDGMENT","left","0","","","","","","","","","","","","","","","","","","","","","","","","","","",""
"html-keyboard-response","146","7661604","0.0-4.0-1.0-2.41","3","0","f44n7bu16muzd8u","","null","","<p style=""color:#054d00;""><b>Correct!</b></p>","","null","","","","","","","","","","","","","","","","","","","","","","","","","","","","","","","",""
"audio-keyboard-response","147","7662415","0.0-4.0-1.0-0.42","3","0","f44n7bu16muzd8u","","null","","sounds/induction/right_rev/su_SWS.wav","","null","","","","","","","","","","","","","","","","","","","","","","","","","","","","","","","",""
"html-button-response","148","7663923","0.0-4.0-1.0-1.42","3","0","f44n7bu16muzd8u","","1507.2999999523163","","Was the sound coming from the left or the right?","1","","","1","INDUCTION-JUDGMENT","right","1","","","","","","","","","","","","","","","","","","","","","","","","","","",""
"html-keyboard-response","149","7664926","0.0-4.0-1.0-2.42","3","0","f44n7bu16muzd8u","","null","","<p style=""color:#054d00;""><b>Correct!</b></p>","","null","","","","","","","","","","","","","","","","","","","","","","","","","","","","","","","",""
"audio-keyboard-response","150","7665727","0.0-4.0-1.0-0.43","3","0","f44n7bu16muzd8u","","null","","sounds/induction/right_rev/fe_SWS.wav","","null","","","","","","","","","","","","","","","","","","","","","","","","","","","","","","","",""
"html-button-response","151","7666464","0.0-4.0-1.0-1.43","3","0","f44n7bu16muzd8u","","736","","Was the sound coming from the left or the right?","1","","","1","INDUCTION-JUDGMENT","right","1","","","","","","","","","","","","","","","","","","","","","","","","","","",""
"html-keyboard-response","152","7667466","0.0-4.0-1.0-2.43","3","0","f44n7bu16muzd8u","","null","","<p style=""color:#054d00;""><b>Correct!</b></p>","","null","","","","","","","","","","","","","","","","","","","","","","","","","","","","","","","",""
"audio-keyboard-response","153","7668270","0.0-4.0-1.0-0.44","3","0","f44n7bu16muzd8u","","null","","sounds/induction/left_rev/ni_SWS.wav","","null","","","","","","","","","","","","","","","","","","","","","","","","","","","","","","","",""
"html-button-response","154","7670341","0.0-4.0-1.0-1.44","3","0","f44n7bu16muzd8u","","2070.100000023842","","Was the sound coming from the left or the right?","0","","","1","INDUCTION-JUDGMENT","left","0","","","","","","","","","","","","","","","","","","","","","","","","","","",""
"html-keyboard-response","155","7671342","0.0-4.0-1.0-2.44","3","0","f44n7bu16muzd8u","","null","","<p style=""color:#054d00;""><b>Correct!</b></p>","","null","","","","","","","","","","","","","","","","","","","","","","","","","","","","","","","",""
"audio-keyboard-response","156","7672145","0.0-4.0-1.0-0.45","3","0","f44n7bu16muzd8u","","null","","sounds/induction/left_rev/me_SWS.wav","","null","","","","","","","","","","","","","","","","","","","","","","","","","","","","","","","",""
"html-button-response","157","7673028","0.0-4.0-1.0-1.45","3","0","f44n7bu16muzd8u","","882.8999999761581","","Was the sound coming from the left or the right?","0","","","1","INDUCTION-JUDGMENT","left","0","","","","","","","","","","","","","","","","","","","","","","","","","","",""
"html-keyboard-response","158","7674032","0.0-4.0-1.0-2.45","3","0","f44n7bu16muzd8u","","null","","<p style=""color:#054d00;""><b>Correct!</b></p>","","null","","","","","","","","","","","","","","","","","","","","","","","","","","","","","","","",""
"audio-keyboard-response","159","7674832","0.0-4.0-1.0-0.46","3","0","f44n7bu16muzd8u","","null","","sounds/induction/left_rev/ti_SWS.wav","","null","","","","","","","","","","","","","","","","","","","","","","","","","","","","","","","",""
"html-button-response","160","7675512","0.0-4.0-1.0-1.46","3","0","f44n7bu16muzd8u","","679.3000000119209","","Was the sound coming from the left or the right?","0","","","1","INDUCTION-JUDGMENT","left","0","","","","","","","","","","","","","","","","","","","","","","","","","","",""
"html-keyboard-response","161","7676518","0.0-4.0-1.0-2.46","3","0","f44n7bu16muzd8u","","null","","<p style=""color:#054d00;""><b>Correct!</b></p>","","null","","","","","","","","","","","","","","","","","","","","","","","","","","","","","","","",""
"audio-keyboard-response","162","7677316","0.0-4.0-1.0-0.47","3","0","f44n7bu16muzd8u","","null","","sounds/induction/right_rev/ti_SWS.wav","","null","","","","","","","","","","","","","","","","","","","","","","","","","","","","","","","",""
"html-button-response","163","7678457","0.0-4.0-1.0-1.47","3","0","f44n7bu16muzd8u","","1139.6000000238419","","Was the sound coming from the left or the right?","1","","","1","INDUCTION-JUDGMENT","right","1","","","","","","","","","","","","","","","","","","","","","","","","","","",""
"html-keyboard-response","164","7679459","0.0-4.0-1.0-2.47","3","0","f44n7bu16muzd8u","","null","","<p style=""color:#054d00;""><b>Correct!</b></p>","","null","","","","","","","","","","","","","","","","","","","","","","","","","","","","","","","",""
"html-button-response","165","7697358","0.0-5.0-0.0","3","0","f44n7bu16muzd8u","","17394.399999976158","","<p>Thank you for your answers.</p><p>You will now listen to similar sounds. The main difference is that the sounds will be longer.</p><p>Just as before, you will be asked to judge whether the sound was coming from the left or the right.</p><p>There are 10 of these longer sounds in total.","0","","","","","","","","","","","","","","","","","","","","","","","","","","","","","","","","",""
"audio-keyboard-response","166","7700477","0.0-5.0-1.0-0.0","3","0","f44n7bu16muzd8u","","null","","sounds/sentences/left_rev/14_01_cfSWS.wav","","null","","","","","","","","","","","","","","","","","","","","","","","","","","","","","","","",""
"html-button-response","167","7701919","0.0-5.0-1.0-1.0","3","0","f44n7bu16muzd8u","","1440.1000000238419","","Was the sound coming from the left or the right?","0","","","1","INDUCTION-JUDGMENT","left","0","","","","","","","","","","","","","","","","","","","","","","","","","","",""
"html-keyboard-response","168","7702922","0.0-5.0-1.0-2.0","3","0","f44n7bu16muzd8u","","null","","<p style=""color:#054d00;""><b>Correct!</b></p>","","null","","","","","","","","","","","","","","","","","","","","","","","","","","","","","","","",""
"html-button-response","169","7705500","0.0-5.0-1.0-3.0","3","0","f44n7bu16muzd8u","","2076.800000011921","","<p>Press the button below when you are ready to continue.</p>","0","","","","","","","","","","","","","","","","","","","","","","","","","","","","","","","","",""
"audio-keyboard-response","170","7708232","0.0-5.0-1.0-0.1","3","0","f44n7bu16muzd8u","","null","","sounds/sentences/right_rev/14_09_cfSWS.wav","","null","","","","","","","","","","","","","","","","","","","","","","","","","","","","","","","",""
"html-button-response","171","7709249","0.0-5.0-1.0-1.1","3","0","f44n7bu16muzd8u","","1016.0999999642372","","Was the sound coming from the left or the right?","1","","","1","INDUCTION-JUDGMENT","right","1","","","","","","","","","","","","","","","","","","","","","","","","","","",""
"html-keyboard-response","172","7710251","0.0-5.0-1.0-2.1","3","0","f44n7bu16muzd8u","","null","","<p style=""color:#054d00;""><b>Correct!</b></p>","","null","","","","","","","","","","","","","","","","","","","","","","","","","","","","","","","",""
"html-button-response","173","7711864","0.0-5.0-1.0-3.1","3","0","f44n7bu16muzd8u","","1111.800000011921","","<p>Press the button below when you are ready to continue.</p>","0","","","","","","","","","","","","","","","","","","","","","","","","","","","","","","","","",""
"audio-keyboard-response","174","7714446","0.0-5.0-1.0-0.2","3","0","f44n7bu16muzd8u","","null","","sounds/sentences/left_rev/14_03_cfSWS.wav","","null","","","","","","","","","","","","","","","","","","","","","","","","","","","","","","","",""
"html-button-response","175","7715550","0.0-5.0-1.0-1.2","3","0","f44n7bu16muzd8u","","1102.7999999523163","","Was the sound coming from the left or the right?","0","","","1","INDUCTION-JUDGMENT","left","0","","","","","","","","","","","","","","","","","","","","","","","","","","",""
"html-keyboard-response","176","7716555","0.0-5.0-1.0-2.2","3","0","f44n7bu16muzd8u","","null","","<p style=""color:#054d00;""><b>Correct!</b></p>","","null","","","","","","","","","","","","","","","","","","","","","","","","","","","","","","","",""
"html-button-response","177","7718512","0.0-5.0-1.0-3.2","3","0","f44n7bu16muzd8u","","1453.6000000238419","","<p>Press the button below when you are ready to continue.</p>","0","","","","","","","","","","","","","","","","","","","","","","","","","","","","","","","","",""
"audio-keyboard-response","178","7721332","0.0-5.0-1.0-0.3","3","0","f44n7bu16muzd8u","","null","","sounds/sentences/left_rev/14_02_cfSWS.wav","","null","","","","","","","","","","","","","","","","","","","","","","","","","","","","","","","",""
"html-button-response","179","7722046","0.0-5.0-1.0-1.3","3","0","f44n7bu16muzd8u","","712.3000000119209","","Was the sound coming from the left or the right?","0","","","1","INDUCTION-JUDGMENT","left","0","","","","","","","","","","","","","","","","","","","","","","","","","","",""
"html-keyboard-response","180","7723047","0.0-5.0-1.0-2.3","3","0","f44n7bu16muzd8u","","null","","<p style=""color:#054d00;""><b>Correct!</b></p>","","null","","","","","","","","","","","","","","","","","","","","","","","","","","","","","","","",""
"html-button-response","181","7724131","0.0-5.0-1.0-3.3","3","0","f44n7bu16muzd8u","","580","","<p>Press the button below when you are ready to continue.</p>","0","","","","","","","","","","","","","","","","","","","","","","","","","","","","","","","","",""
"audio-keyboard-response","182","7727153","0.0-5.0-1.0-0.4","3","0","f44n7bu16muzd8u","","null","","sounds/sentences/right_rev/14_10_cfSWS.wav","","null","","","","","","","","","","","","","","","","","","","","","","","","","","","","","","","",""
"html-button-response","183","7727863","0.0-5.0-1.0-1.4","3","0","f44n7bu16muzd8u","","709.2999999523163","","Was the sound coming from the left or the right?","1","","","1","INDUCTION-JUDGMENT","right","1","","","","","","","","","","","","","","","","","","","","","","","","","","",""
"html-keyboard-response","184","7728868","0.0-5.0-1.0-2.4","3","0","f44n7bu16muzd8u","","null","","<p style=""color:#054d00;""><b>Correct!</b></p>","","null","","","","","","","","","","","","","","","","","","","","","","","","","","","","","","","",""
"html-button-response","185","7729924","0.0-5.0-1.0-3.4","3","0","f44n7bu16muzd8u","","554.5","","<p>Press the button below when you are ready to continue.</p>","0","","","","","","","","","","","","","","","","","","","","","","","","","","","","","","","","",""
"audio-keyboard-response","186","7732817","0.0-5.0-1.0-0.5","3","0","f44n7bu16muzd8u","","null","","sounds/sentences/right_rev/14_07_cfSWS.wav","","null","","","","","","","","","","","","","","","","","","","","","","","","","","","","","","","",""
"html-button-response","187","7733825","0.0-5.0-1.0-1.5","3","0","f44n7bu16muzd8u","","1007.1999999880791","","Was the sound coming from the left or the right?","1","","","1","INDUCTION-JUDGMENT","right","1","","","","","","","","","","","","","","","","","","","","","","","","","","",""
"html-keyboard-response","188","7734827","0.0-5.0-1.0-2.5","3","0","f44n7bu16muzd8u","","null","","<p style=""color:#054d00;""><b>Correct!</b></p>","","null","","","","","","","","","","","","","","","","","","","","","","","","","","","","","","","",""
"html-button-response","189","7735951","0.0-5.0-1.0-3.5","3","0","f44n7bu16muzd8u","","621.6999999880791","","<p>Press the button below when you are ready to continue.</p>","0","","","","","","","","","","","","","","","","","","","","","","","","","","","","","","","","",""
"audio-keyboard-response","190","7738696","0.0-5.0-1.0-0.6","3","0","f44n7bu16muzd8u","","null","","sounds/sentences/right_rev/14_06_cfSWS.wav","","null","","","","","","","","","","","","","","","","","","","","","","","","","","","","","","","",""
"html-button-response","191","7739655","0.0-5.0-1.0-1.6","3","0","f44n7bu16muzd8u","","958.3999999761581","","Was the sound coming from the left or the right?","1","","","1","INDUCTION-JUDGMENT","right","1","","","","","","","","","","","","","","","","","","","","","","","","","","",""
"html-keyboard-response","192","7740659","0.0-5.0-1.0-2.6","3","0","f44n7bu16muzd8u","","null","","<p style=""color:#054d00;""><b>Correct!</b></p>","","null","","","","","","","","","","","","","","","","","","","","","","","","","","","","","","","",""
"html-button-response","193","7741847","0.0-5.0-1.0-3.6","3","0","f44n7bu16muzd8u","","682.6000000238419","","<p>Press the button below when you are ready to continue.</p>","0","","","","","","","","","","","","","","","","","","","","","","","","","","","","","","","","",""
"audio-keyboard-response","194","7744406","0.0-5.0-1.0-0.7","3","0","f44n7bu16muzd8u","","null","","sounds/sentences/left_rev/14_04_cfSWS.wav","","null","","","","","","","","","","","","","","","","","","","","","","","","","","","","","","","",""
"html-button-response","195","7745538","0.0-5.0-1.0-1.7","3","0","f44n7bu16muzd8u","","1130.300000011921","","Was the sound coming from the left or the right?","0","","","1","INDUCTION-JUDGMENT","left","0","","","","","","","","","","","","","","","","","","","","","","","","","","",""
"html-keyboard-response","196","7746539","0.0-5.0-1.0-2.7","3","0","f44n7bu16muzd8u","","null","","<p style=""color:#054d00;""><b>Correct!</b></p>","","null","","","","","","","","","","","","","","","","","","","","","","","","","","","","","","","",""
"html-button-response","197","7748037","0.0-5.0-1.0-3.7","3","0","f44n7bu16muzd8u","","995.8000000119209","","<p>Press the button below when you are ready to continue.</p>","0","","","","","","","","","","","","","","","","","","","","","","","","","","","","","","","","",""
"audio-keyboard-response","198","7751032","0.0-5.0-1.0-0.8","3","0","f44n7bu16muzd8u","","null","","sounds/sentences/left_rev/14_05_cfSWS.wav","","null","","","","","","","","","","","","","","","","","","","","","","","","","","","","","","","",""
"html-button-response","199","7751965","0.0-5.0-1.0-1.8","3","0","f44n7bu16muzd8u","","932.3999999761581","","Was the sound coming from the left or the right?","0","","","1","INDUCTION-JUDGMENT","left","0","","","","","","","","","","","","","","","","","","","","","","","","","","",""
"html-keyboard-response","200","7752969","0.0-5.0-1.0-2.8","3","0","f44n7bu16muzd8u","","null","","<p style=""color:#054d00;""><b>Correct!</b></p>","","null","","","","","","","","","","","","","","","","","","","","","","","","","","","","","","","",""
"html-button-response","201","7754311","0.0-5.0-1.0-3.8","3","0","f44n7bu16muzd8u","","840.5","","<p>Press the button below when you are ready to continue.</p>","0","","","","","","","","","","","","","","","","","","","","","","","","","","","","","","","","",""
"audio-keyboard-response","202","7757072","0.0-5.0-1.0-0.9","3","0","f44n7bu16muzd8u","","null","","sounds/sentences/right_rev/14_08_cfSWS.wav","","null","","","","","","","","","","","","","","","","","","","","","","","","","","","","","","","",""
"html-button-response","203","7758321","0.0-5.0-1.0-1.9","3","0","f44n7bu16muzd8u","","1247.7000000476837","","Was the sound coming from the left or the right?","1","","","1","INDUCTION-JUDGMENT","right","1","","","","","","","","","","","","","","","","","","","","","","","","","","",""
"html-keyboard-response","204","7759325","0.0-5.0-1.0-2.9","3","0","f44n7bu16muzd8u","","null","","<p style=""color:#054d00;""><b>Correct!</b></p>","","null","","","","","","","","","","","","","","","","","","","","","","","","","","","","","","","",""
"html-button-response","205","7760667","0.0-5.0-1.0-3.9","3","0","f44n7bu16muzd8u","","838.5999999642372","","<p>Press the button below when you are ready to continue.</p>","0","","","","","","","","","","","","","","","","","","","","","","","","","","","","","","","","",""
"html-keyboard-response","206","7784314","0.0-6.0-0.0","3","0","f44n7bu16muzd8u","","23143.100000023842","","<p>In this part of the study, you will hear sounds similar to those you just heard.</p><p>Please focus on these sounds, as you may be asked questions about them later.</p><p>Occasionally, the sounds will pause for up to two seconds. When this happens, please press SPACEBAR as quickly as you can.</br>This helps ensure that you are paying attention to the sounds.</p><p>This part of the study will take about 12 minutes to complete, and you will be given the opportunity to take a couple of short breaks every few minutes.</p><p><strong>Press SPACEBAR to begin</strong></p>","","32","","","","","","","","","","","","","","","","","","","","","","","","","","","","","","","",""
"html-keyboard-response","207","7785318","0.0-6.0-1.0-0.0","3","0","f44n7bu16muzd8u","","null","","<p style=""font-size: 40px;"">+</p>","","null","","","","","","","","","","","","","","","","","","","","","","","","","","","","","","","",""
"html-keyboard-response","208","7970323","0.0-6.0-1.0-1.0","3","0","f44n7bu16muzd8u","","null","","","","null","","","SL-TRAIN","","","0","798.3999999761581","588.6999999880791","sounds/C/TRAIN/SEQ__08.mp3","3","","","","","","","","","","","","","","","","","","","","","",""
"html-button-response","209","7983528","0.0-6.0-1.0-2.0","3","0","f44n7bu16muzd8u","","13203.299999952316","","<p>You may take a short break if you wish.</p>","0","","","","","","","","","","","","","","","","","","","","","","","","","","","","","","","","",""
"html-keyboard-response","210","7984533","0.0-6.0-1.0-3.0","3","0","f44n7bu16muzd8u","","null","","<p style=""font-size: 40px;"">+</p>","","null","","","","","","","","","","","","","","","","","","","","","","","","","","","","","","","",""
"html-keyboard-response","211","8169536","0.0-6.0-1.0-4.0","3","0","f44n7bu16muzd8u","","null","","","","null","","","SL-TRAIN","","","0","763.1000000238419","1036.2000000476837","sounds/C/TRAIN/SEQ__12.mp3","5","","","","","","","","","","","","","","","","","","","","","",""
"html-button-response","212","8171889","0.0-6.0-1.0-5.0","3","0","f44n7bu16muzd8u","","2352.199999988079","","<p>You may take a short break if you wish.</p>","0","","","","","","","","","","","","","","","","","","","","","","","","","","","","","","","","",""
"html-keyboard-response","213","8172894","0.0-6.0-1.0-6.0","3","0","f44n7bu16muzd8u","","null","","<p style=""font-size: 40px;"">+</p>","","null","","","","","","","","","","","","","","","","","","","","","","","","","","","","","","","",""
"html-keyboard-response","214","8357899","0.0-6.0-1.0-7.0","3","0","f44n7bu16muzd8u","","null","","","","null","","","SL-TRAIN","","","0","1558.5999999642372","1071.2999999523163","sounds/C/TRAIN/SEQ__10.mp3","6","","","","","","","","","","","","","","","","","","","","","",""
"html-button-response","215","8360487","0.0-6.0-1.0-8.0","3","0","f44n7bu16muzd8u","","2586.399999976158","","<p>You may take a short break if you wish.</p>","0","","","","","","","","","","","","","","","","","","","","","","","","","","","","","","","","",""
"html-keyboard-response","216","8361492","0.0-6.0-1.0-9.0","3","0","f44n7bu16muzd8u","","null","","<p style=""font-size: 40px;"">+</p>","","null","","","","","","","","","","","","","","","","","","","","","","","","","","","","","","","",""
"html-keyboard-response","217","8546496","0.0-6.0-1.0-10.0","3","0","f44n7bu16muzd8u","","null","","","","null","","","SL-TRAIN","","","0","1131.0999999642372","1017.5999999642372","sounds/C/TRAIN/SEQ__07.mp3","8","","","","","","","","","","","","","","","","","","","","","",""
"html-button-response","218","8548413","0.0-6.0-1.0-11.0","3","0","f44n7bu16muzd8u","","1915.199999988079","","<p>You may take a short break if you wish.</p>","0","","","","","","","","","","","","","","","","","","","","","","","","","","","","","","","","",""
"html-button-response","219","8557235","0.0-7.0-0.0","3","0","f44n7bu16muzd8u","","8821.199999988079","","<p>Welcome to the second part of the study. This is a <u>familiarity task</u>.</p><p>You will now hear short sounds and will be asked to rate how familiar they sound to you <b>based on what you heard in the previous part of the study</b>.</p><p>You will rate 12 sounds in total.</p>","0","","","","","","","","","","","","","","","","","","","","","","","","","","","","","","","","",""
"html-keyboard-response","220","8558238","0.0-7.0-1.0-0.0","3","0","f44n7bu16muzd8u","","null","","","","null","","","","","","","","","","","","","","","","","","","","","","","","","","","","","","","",""
"audio-keyboard-response","221","8559421","0.0-7.0-1.0-1.0","3","0","f44n7bu16muzd8u","","null","","sounds/C/FAM/N002.mp3","","null","","","","","","","","","","","","","","","","","","","","","","","","","","","","","","","",""
"html-keyboard-response","222","8567970","0.0-7.0-1.0-2.0","3","0","f44n7bu16muzd8u","","8044.800000011921","","<p>How familiar did this sound to you?</p><p>1&nbsp;&nbsp;&nbsp;&nbsp;&nbsp;&nbsp;&nbsp;&nbsp;&nbsp;&nbsp;&nbsp;&nbsp;&nbsp;&nbsp;&nbsp;&nbsp;&nbsp;&nbsp;&nbsp;2&nbsp;&nbsp;&nbsp;&nbsp;&nbsp;&nbsp;&nbsp;&nbsp;&nbsp;&nbsp;&nbsp;&nbsp;&nbsp;&nbsp;&nbsp;&nbsp;&nbsp;&nbsp;&nbsp;3&nbsp;&nbsp;&nbsp;&nbsp;&nbsp;&nbsp;&nbsp;&nbsp;&nbsp;&nbsp;&nbsp;&nbsp;&nbsp;&nbsp;&nbsp;&nbsp;&nbsp;&nbsp;&nbsp;4</p><p style=""font-size:14px"">Not at all familiar&nbsp;&nbsp;&nbsp;&nbsp;A little familiar&nbsp;&nbsp;&nbsp;Moderately familiar&nbsp;&nbsp;&nbsp;Extremely familiar</p><p>(press the corresponding number on your keyboard)</p>","","50","","","FAM-RESPONSE","","","","","","","","sounds/C/FAM/N002.mp3","nonword","","","","","","","","","","","","","","","","","","","",""
"html-keyboard-response","223","8569978","0.0-7.0-1.0-0.1","3","0","f44n7bu16muzd8u","","null","","","","null","","","","","","","","","","","","","","","","","","","","","","","","","","","","","","","",""
"audio-keyboard-response","224","8570918","0.0-7.0-1.0-1.1","3","0","f44n7bu16muzd8u","","null","","sounds/C/FAM/P002.mp3","","null","","","","","","","","","","","","","","","","","","","","","","","","","","","","","","","",""
"html-keyboard-response","225","8573359","0.0-7.0-1.0-2.1","3","0","f44n7bu16muzd8u","","1940.5","","<p>How familiar did this sound to you?</p><p>1&nbsp;&nbsp;&nbsp;&nbsp;&nbsp;&nbsp;&nbsp;&nbsp;&nbsp;&nbsp;&nbsp;&nbsp;&nbsp;&nbsp;&nbsp;&nbsp;&nbsp;&nbsp;&nbsp;2&nbsp;&nbsp;&nbsp;&nbsp;&nbsp;&nbsp;&nbsp;&nbsp;&nbsp;&nbsp;&nbsp;&nbsp;&nbsp;&nbsp;&nbsp;&nbsp;&nbsp;&nbsp;&nbsp;3&nbsp;&nbsp;&nbsp;&nbsp;&nbsp;&nbsp;&nbsp;&nbsp;&nbsp;&nbsp;&nbsp;&nbsp;&nbsp;&nbsp;&nbsp;&nbsp;&nbsp;&nbsp;&nbsp;4</p><p style=""font-size:14px"">Not at all familiar&nbsp;&nbsp;&nbsp;&nbsp;A little familiar&nbsp;&nbsp;&nbsp;Moderately familiar&nbsp;&nbsp;&nbsp;Extremely familiar</p><p>(press the corresponding number on your keyboard)</p>","","52","","","FAM-RESPONSE","","","","","","","","sounds/C/FAM/P002.mp3","partword","","","","","","","","","","","","","","","","","","","",""
"html-keyboard-response","226","8575367","0.0-7.0-1.0-0.2","3","0","f44n7bu16muzd8u","","null","","","","null","","","","","","","","","","","","","","","","","","","","","","","","","","","","","","","",""
"audio-keyboard-response","227","8576304","0.0-7.0-1.0-1.2","3","0","f44n7bu16muzd8u","","null","","sounds/C/FAM/W001.mp3","","null","","","","","","","","","","","","","","","","","","","","","","","","","","","","","","","",""
"html-keyboard-response","228","8579771","0.0-7.0-1.0-2.2","3","0","f44n7bu16muzd8u","","2965.300000011921","","<p>How familiar did this sound to you?</p><p>1&nbsp;&nbsp;&nbsp;&nbsp;&nbsp;&nbsp;&nbsp;&nbsp;&nbsp;&nbsp;&nbsp;&nbsp;&nbsp;&nbsp;&nbsp;&nbsp;&nbsp;&nbsp;&nbsp;2&nbsp;&nbsp;&nbsp;&nbsp;&nbsp;&nbsp;&nbsp;&nbsp;&nbsp;&nbsp;&nbsp;&nbsp;&nbsp;&nbsp;&nbsp;&nbsp;&nbsp;&nbsp;&nbsp;3&nbsp;&nbsp;&nbsp;&nbsp;&nbsp;&nbsp;&nbsp;&nbsp;&nbsp;&nbsp;&nbsp;&nbsp;&nbsp;&nbsp;&nbsp;&nbsp;&nbsp;&nbsp;&nbsp;4</p><p style=""font-size:14px"">Not at all familiar&nbsp;&nbsp;&nbsp;&nbsp;A little familiar&nbsp;&nbsp;&nbsp;Moderately familiar&nbsp;&nbsp;&nbsp;Extremely familiar</p><p>(press the corresponding number on your keyboard)</p>","","52","","","FAM-RESPONSE","","","","","","","","sounds/C/FAM/W001.mp3","word","","","","","","","","","","","","","","","","","","","",""
"html-keyboard-response","229","8581777","0.0-7.0-1.0-0.3","3","0","f44n7bu16muzd8u","","null","","","","null","","","","","","","","","","","","","","","","","","","","","","","","","","","","","","","",""
"audio-keyboard-response","230","8582715","0.0-7.0-1.0-1.3","3","0","f44n7bu16muzd8u","","null","","sounds/C/FAM/W002.mp3","","null","","","","","","","","","","","","","","","","","","","","","","","","","","","","","","","",""
"html-keyboard-response","231","8584714","0.0-7.0-1.0-2.3","3","0","f44n7bu16muzd8u","","1494.699999988079","","<p>How familiar did this sound to you?</p><p>1&nbsp;&nbsp;&nbsp;&nbsp;&nbsp;&nbsp;&nbsp;&nbsp;&nbsp;&nbsp;&nbsp;&nbsp;&nbsp;&nbsp;&nbsp;&nbsp;&nbsp;&nbsp;&nbsp;2&nbsp;&nbsp;&nbsp;&nbsp;&nbsp;&nbsp;&nbsp;&nbsp;&nbsp;&nbsp;&nbsp;&nbsp;&nbsp;&nbsp;&nbsp;&nbsp;&nbsp;&nbsp;&nbsp;3&nbsp;&nbsp;&nbsp;&nbsp;&nbsp;&nbsp;&nbsp;&nbsp;&nbsp;&nbsp;&nbsp;&nbsp;&nbsp;&nbsp;&nbsp;&nbsp;&nbsp;&nbsp;&nbsp;4</p><p style=""font-size:14px"">Not at all familiar&nbsp;&nbsp;&nbsp;&nbsp;A little familiar&nbsp;&nbsp;&nbsp;Moderately familiar&nbsp;&nbsp;&nbsp;Extremely familiar</p><p>(press the corresponding number on your keyboard)</p>","","50","","","FAM-RESPONSE","","","","","","","","sounds/C/FAM/W002.mp3","word","","","","","","","","","","","","","","","","","","","",""
"html-keyboard-response","232","8586718","0.0-7.0-1.0-0.4","3","0","f44n7bu16muzd8u","","null","","","","null","","","","","","","","","","","","","","","","","","","","","","","","","","","","","","","",""
"audio-keyboard-response","233","8587656","0.0-7.0-1.0-1.4","3","0","f44n7bu16muzd8u","","null","","sounds/C/FAM/N003.mp3","","null","","","","","","","","","","","","","","","","","","","","","","","","","","","","","","","",""
"html-keyboard-response","234","8591005","0.0-7.0-1.0-2.4","3","0","f44n7bu16muzd8u","","2843.600000023842","","<p>How familiar did this sound to you?</p><p>1&nbsp;&nbsp;&nbsp;&nbsp;&nbsp;&nbsp;&nbsp;&nbsp;&nbsp;&nbsp;&nbsp;&nbsp;&nbsp;&nbsp;&nbsp;&nbsp;&nbsp;&nbsp;&nbsp;2&nbsp;&nbsp;&nbsp;&nbsp;&nbsp;&nbsp;&nbsp;&nbsp;&nbsp;&nbsp;&nbsp;&nbsp;&nbsp;&nbsp;&nbsp;&nbsp;&nbsp;&nbsp;&nbsp;3&nbsp;&nbsp;&nbsp;&nbsp;&nbsp;&nbsp;&nbsp;&nbsp;&nbsp;&nbsp;&nbsp;&nbsp;&nbsp;&nbsp;&nbsp;&nbsp;&nbsp;&nbsp;&nbsp;4</p><p style=""font-size:14px"">Not at all familiar&nbsp;&nbsp;&nbsp;&nbsp;A little familiar&nbsp;&nbsp;&nbsp;Moderately familiar&nbsp;&nbsp;&nbsp;Extremely familiar</p><p>(press the corresponding number on your keyboard)</p>","","51","","","FAM-RESPONSE","","","","","","","","sounds/C/FAM/N003.mp3","nonword","","","","","","","","","","","","","","","","","","","",""
"html-keyboard-response","235","8593009","0.0-7.0-1.0-0.5","3","0","f44n7bu16muzd8u","","null","","","","null","","","","","","","","","","","","","","","","","","","","","","","","","","","","","","","",""
"audio-keyboard-response","236","8593945","0.0-7.0-1.0-1.5","3","0","f44n7bu16muzd8u","","null","","sounds/C/FAM/P001.mp3","","null","","","","","","","","","","","","","","","","","","","","","","","","","","","","","","","",""
"html-keyboard-response","237","8595541","0.0-7.0-1.0-2.5","3","0","f44n7bu16muzd8u","","1091.1000000238419","","<p>How familiar did this sound to you?</p><p>1&nbsp;&nbsp;&nbsp;&nbsp;&nbsp;&nbsp;&nbsp;&nbsp;&nbsp;&nbsp;&nbsp;&nbsp;&nbsp;&nbsp;&nbsp;&nbsp;&nbsp;&nbsp;&nbsp;2&nbsp;&nbsp;&nbsp;&nbsp;&nbsp;&nbsp;&nbsp;&nbsp;&nbsp;&nbsp;&nbsp;&nbsp;&nbsp;&nbsp;&nbsp;&nbsp;&nbsp;&nbsp;&nbsp;3&nbsp;&nbsp;&nbsp;&nbsp;&nbsp;&nbsp;&nbsp;&nbsp;&nbsp;&nbsp;&nbsp;&nbsp;&nbsp;&nbsp;&nbsp;&nbsp;&nbsp;&nbsp;&nbsp;4</p><p style=""font-size:14px"">Not at all familiar&nbsp;&nbsp;&nbsp;&nbsp;A little familiar&nbsp;&nbsp;&nbsp;Moderately familiar&nbsp;&nbsp;&nbsp;Extremely familiar</p><p>(press the corresponding number on your keyboard)</p>","","49","","","FAM-RESPONSE","","","","","","","","sounds/C/FAM/P001.mp3","partword","","","","","","","","","","","","","","","","","","","",""
"html-keyboard-response","238","8597549","0.0-7.0-1.0-0.6","3","0","f44n7bu16muzd8u","","null","","","","null","","","","","","","","","","","","","","","","","","","","","","","","","","","","","","","",""
"audio-keyboard-response","239","8598486","0.0-7.0-1.0-1.6","3","0","f44n7bu16muzd8u","","null","","sounds/C/FAM/P003.mp3","","null","","","","","","","","","","","","","","","","","","","","","","","","","","","","","","","",""
"html-keyboard-response","240","8600951","0.0-7.0-1.0-2.6","3","0","f44n7bu16muzd8u","","1960.5","","<p>How familiar did this sound to you?</p><p>1&nbsp;&nbsp;&nbsp;&nbsp;&nbsp;&nbsp;&nbsp;&nbsp;&nbsp;&nbsp;&nbsp;&nbsp;&nbsp;&nbsp;&nbsp;&nbsp;&nbsp;&nbsp;&nbsp;2&nbsp;&nbsp;&nbsp;&nbsp;&nbsp;&nbsp;&nbsp;&nbsp;&nbsp;&nbsp;&nbsp;&nbsp;&nbsp;&nbsp;&nbsp;&nbsp;&nbsp;&nbsp;&nbsp;3&nbsp;&nbsp;&nbsp;&nbsp;&nbsp;&nbsp;&nbsp;&nbsp;&nbsp;&nbsp;&nbsp;&nbsp;&nbsp;&nbsp;&nbsp;&nbsp;&nbsp;&nbsp;&nbsp;4</p><p style=""font-size:14px"">Not at all familiar&nbsp;&nbsp;&nbsp;&nbsp;A little familiar&nbsp;&nbsp;&nbsp;Moderately familiar&nbsp;&nbsp;&nbsp;Extremely familiar</p><p>(press the corresponding number on your keyboard)</p>","","51","","","FAM-RESPONSE","","","","","","","","sounds/C/FAM/P003.mp3","partword","","","","","","","","","","","","","","","","","","","",""
"html-keyboard-response","241","8602957","0.0-7.0-1.0-0.7","3","0","f44n7bu16muzd8u","","null","","","","null","","","","","","","","","","","","","","","","","","","","","","","","","","","","","","","",""
"audio-keyboard-response","242","8603895","0.0-7.0-1.0-1.7","3","0","f44n7bu16muzd8u","","null","","sounds/C/FAM/N001.mp3","","null","","","","","","","","","","","","","","","","","","","","","","","","","","","","","","","",""
"html-keyboard-response","243","8606312","0.0-7.0-1.0-2.7","3","0","f44n7bu16muzd8u","","1915.199999988079","","<p>How familiar did this sound to you?</p><p>1&nbsp;&nbsp;&nbsp;&nbsp;&nbsp;&nbsp;&nbsp;&nbsp;&nbsp;&nbsp;&nbsp;&nbsp;&nbsp;&nbsp;&nbsp;&nbsp;&nbsp;&nbsp;&nbsp;2&nbsp;&nbsp;&nbsp;&nbsp;&nbsp;&nbsp;&nbsp;&nbsp;&nbsp;&nbsp;&nbsp;&nbsp;&nbsp;&nbsp;&nbsp;&nbsp;&nbsp;&nbsp;&nbsp;3&nbsp;&nbsp;&nbsp;&nbsp;&nbsp;&nbsp;&nbsp;&nbsp;&nbsp;&nbsp;&nbsp;&nbsp;&nbsp;&nbsp;&nbsp;&nbsp;&nbsp;&nbsp;&nbsp;4</p><p style=""font-size:14px"">Not at all familiar&nbsp;&nbsp;&nbsp;&nbsp;A little familiar&nbsp;&nbsp;&nbsp;Moderately familiar&nbsp;&nbsp;&nbsp;Extremely familiar</p><p>(press the corresponding number on your keyboard)</p>","","50","","","FAM-RESPONSE","","","","","","","","sounds/C/FAM/N001.mp3","nonword","","","","","","","","","","","","","","","","","","","",""
"html-keyboard-response","244","8608320","0.0-7.0-1.0-0.8","3","0","f44n7bu16muzd8u","","null","","","","null","","","","","","","","","","","","","","","","","","","","","","","","","","","","","","","",""
"audio-keyboard-response","245","8609264","0.0-7.0-1.0-1.8","3","0","f44n7bu16muzd8u","","null","","sounds/C/FAM/N004.mp3","","null","","","","","","","","","","","","","","","","","","","","","","","","","","","","","","","",""
"html-keyboard-response","246","8611428","0.0-7.0-1.0-2.8","3","0","f44n7bu16muzd8u","","1661.699999988079","","<p>How familiar did this sound to you?</p><p>1&nbsp;&nbsp;&nbsp;&nbsp;&nbsp;&nbsp;&nbsp;&nbsp;&nbsp;&nbsp;&nbsp;&nbsp;&nbsp;&nbsp;&nbsp;&nbsp;&nbsp;&nbsp;&nbsp;2&nbsp;&nbsp;&nbsp;&nbsp;&nbsp;&nbsp;&nbsp;&nbsp;&nbsp;&nbsp;&nbsp;&nbsp;&nbsp;&nbsp;&nbsp;&nbsp;&nbsp;&nbsp;&nbsp;3&nbsp;&nbsp;&nbsp;&nbsp;&nbsp;&nbsp;&nbsp;&nbsp;&nbsp;&nbsp;&nbsp;&nbsp;&nbsp;&nbsp;&nbsp;&nbsp;&nbsp;&nbsp;&nbsp;4</p><p style=""font-size:14px"">Not at all familiar&nbsp;&nbsp;&nbsp;&nbsp;A little familiar&nbsp;&nbsp;&nbsp;Moderately familiar&nbsp;&nbsp;&nbsp;Extremely familiar</p><p>(press the corresponding number on your keyboard)</p>","","52","","","FAM-RESPONSE","","","","","","","","sounds/C/FAM/N004.mp3","nonword","","","","","","","","","","","","","","","","","","","",""
"html-keyboard-response","247","8613431","0.0-7.0-1.0-0.9","3","0","f44n7bu16muzd8u","","null","","","","null","","","","","","","","","","","","","","","","","","","","","","","","","","","","","","","",""
"audio-keyboard-response","248","8614372","0.0-7.0-1.0-1.9","3","0","f44n7bu16muzd8u","","null","","sounds/C/FAM/P004.mp3","","null","","","","","","","","","","","","","","","","","","","","","","","","","","","","","","","",""
"html-keyboard-response","249","8616515","0.0-7.0-1.0-2.9","3","0","f44n7bu16muzd8u","","1641.0999999642372","","<p>How familiar did this sound to you?</p><p>1&nbsp;&nbsp;&nbsp;&nbsp;&nbsp;&nbsp;&nbsp;&nbsp;&nbsp;&nbsp;&nbsp;&nbsp;&nbsp;&nbsp;&nbsp;&nbsp;&nbsp;&nbsp;&nbsp;2&nbsp;&nbsp;&nbsp;&nbsp;&nbsp;&nbsp;&nbsp;&nbsp;&nbsp;&nbsp;&nbsp;&nbsp;&nbsp;&nbsp;&nbsp;&nbsp;&nbsp;&nbsp;&nbsp;3&nbsp;&nbsp;&nbsp;&nbsp;&nbsp;&nbsp;&nbsp;&nbsp;&nbsp;&nbsp;&nbsp;&nbsp;&nbsp;&nbsp;&nbsp;&nbsp;&nbsp;&nbsp;&nbsp;4</p><p style=""font-size:14px"">Not at all familiar&nbsp;&nbsp;&nbsp;&nbsp;A little familiar&nbsp;&nbsp;&nbsp;Moderately familiar&nbsp;&nbsp;&nbsp;Extremely familiar</p><p>(press the corresponding number on your keyboard)</p>","","50","","","FAM-RESPONSE","","","","","","","","sounds/C/FAM/P004.mp3","partword","","","","","","","","","","","","","","","","","","","",""
"html-keyboard-response","250","8618521","0.0-7.0-1.0-0.10","3","0","f44n7bu16muzd8u","","null","","","","null","","","","","","","","","","","","","","","","","","","","","","","","","","","","","","","",""
"audio-keyboard-response","251","8619463","0.0-7.0-1.0-1.10","3","0","f44n7bu16muzd8u","","null","","sounds/C/FAM/W004.mp3","","null","","","","","","","","","","","","","","","","","","","","","","","","","","","","","","","",""
"html-keyboard-response","252","8623041","0.0-7.0-1.0-2.10","3","0","f44n7bu16muzd8u","","3074.400000035763","","<p>How familiar did this sound to you?</p><p>1&nbsp;&nbsp;&nbsp;&nbsp;&nbsp;&nbsp;&nbsp;&nbsp;&nbsp;&nbsp;&nbsp;&nbsp;&nbsp;&nbsp;&nbsp;&nbsp;&nbsp;&nbsp;&nbsp;2&nbsp;&nbsp;&nbsp;&nbsp;&nbsp;&nbsp;&nbsp;&nbsp;&nbsp;&nbsp;&nbsp;&nbsp;&nbsp;&nbsp;&nbsp;&nbsp;&nbsp;&nbsp;&nbsp;3&nbsp;&nbsp;&nbsp;&nbsp;&nbsp;&nbsp;&nbsp;&nbsp;&nbsp;&nbsp;&nbsp;&nbsp;&nbsp;&nbsp;&nbsp;&nbsp;&nbsp;&nbsp;&nbsp;4</p><p style=""font-size:14px"">Not at all familiar&nbsp;&nbsp;&nbsp;&nbsp;A little familiar&nbsp;&nbsp;&nbsp;Moderately familiar&nbsp;&nbsp;&nbsp;Extremely familiar</p><p>(press the corresponding number on your keyboard)</p>","","51","","","FAM-RESPONSE","","","","","","","","sounds/C/FAM/W004.mp3","word","","","","","","","","","","","","","","","","","","","",""
"html-keyboard-response","253","8625049","0.0-7.0-1.0-0.11","3","0","f44n7bu16muzd8u","","null","","","","null","","","","","","","","","","","","","","","","","","","","","","","","","","","","","","","",""
"audio-keyboard-response","254","8625984","0.0-7.0-1.0-1.11","3","0","f44n7bu16muzd8u","","null","","sounds/C/FAM/W003.mp3","","null","","","","","","","","","","","","","","","","","","","","","","","","","","","","","","","",""
"html-keyboard-response","255","8628169","0.0-7.0-1.0-2.11","3","0","f44n7bu16muzd8u","","1678.8999999761581","","<p>How familiar did this sound to you?</p><p>1&nbsp;&nbsp;&nbsp;&nbsp;&nbsp;&nbsp;&nbsp;&nbsp;&nbsp;&nbsp;&nbsp;&nbsp;&nbsp;&nbsp;&nbsp;&nbsp;&nbsp;&nbsp;&nbsp;2&nbsp;&nbsp;&nbsp;&nbsp;&nbsp;&nbsp;&nbsp;&nbsp;&nbsp;&nbsp;&nbsp;&nbsp;&nbsp;&nbsp;&nbsp;&nbsp;&nbsp;&nbsp;&nbsp;3&nbsp;&nbsp;&nbsp;&nbsp;&nbsp;&nbsp;&nbsp;&nbsp;&nbsp;&nbsp;&nbsp;&nbsp;&nbsp;&nbsp;&nbsp;&nbsp;&nbsp;&nbsp;&nbsp;4</p><p style=""font-size:14px"">Not at all familiar&nbsp;&nbsp;&nbsp;&nbsp;A little familiar&nbsp;&nbsp;&nbsp;Moderately familiar&nbsp;&nbsp;&nbsp;Extremely familiar</p><p>(press the corresponding number on your keyboard)</p>","","52","","","FAM-RESPONSE","","","","","","","","sounds/C/FAM/W003.mp3","word","","","","","","","","","","","","","","","","","","","",""
"html-button-response","256","8641559","0.0-8.0-0.0","3","0","f44n7bu16muzd8u","","12386.199999988079","","<p>You will now listen to longer sound sequences.</p><p>Each sound sequence will last about 16 seconds.</p><p>On each trial, you will be given a <u>TARGET SOUND</u>. Your task is to listen very carefully for this sound.</p><p>Every time you hear the <u>TARGET SOUND</u>, you will press the <b>SPACEBAR</b> as quickly and accurately as you can.</p>","0","","","","","","","","","","","","","","","","","","","","","","","","","","","","","","","","",""
"html-button-response","257","8651927","0.0-8.0-1.0","3","0","f44n7bu16muzd8u","","10114.199999988079","","<p>It is very important that you make your responses as quickly and accurately as possible.</p><p>To help you make your responses, you will be able to listen to the <u>TARGET SOUND</u> at the beginning of each trial.</p><p>There will be 36 total trials.</p><p><b>Note: This is meant to be a difficult task. We simply want you to try your best.</p>","0","","","","","","","","","","","","","","","","","","","","","","","","","","","","","","","","",""
"html-button-response","258","8654267","0.0-8.0-2.0-0.0","3","0","f44n7bu16muzd8u","","2085.2000000476837","","<p>Trial 1 of 36</p>","0","","","","","","","","","","","","","","ME","sounds/syllables/me_SWS.wav","4500,8100,10800,12600","1","","","","","","","","","","","","","","","",""
"html-keyboard-response","259","8658239","0.0-8.0-2.0-1.0","3","0","f44n7bu16muzd8u","","3970.600000023842","","","","80","","","","","","","","","","","","","ME","","4500,8100,10800,12600","1","","","","","","","","","","","","","","","",""
"audio-keyboard-response","260","8658672","0.0-8.0-2.0-2.0-0.0","3","0","f44n7bu16muzd8u","","null","","sounds/syllables/me_SWS.wav","","null","","","","","","","","","","","","","","","","","","","","","","","","","","","","","","","",""
"html-keyboard-response","261","8664514","0.0-8.0-2.0-2.0-1.0","3","0","f44n7bu16muzd8u","","5841","","<p>To replay the <u>TARGET SOUND</u>, press P.</p> When you are ready to begin, press SPACEBAR.","","80","","","","","","","","","","","","","","","","","","","","","","","","","","","","","","","",""
"audio-keyboard-response","262","8665315","0.0-8.0-2.0-2.1-0.1","3","0","f44n7bu16muzd8u","","null","","sounds/syllables/me_SWS.wav","","null","","","","","","","","","","","","","","","","","","","","","","","","","","","","","","","",""
"html-keyboard-response","263","8666197","0.0-8.0-2.0-2.1-1.1","3","0","f44n7bu16muzd8u","","881.1999999880791","","<p>To replay the <u>TARGET SOUND</u>, press P.</p> When you are ready to begin, press SPACEBAR.","","32","","","","","","","","","","","","","","","","","","","","","","","","","","","","","","","",""
"audio-keyboard-response","264","8681138","0.0-8.0-2.0-3.0","3","0","f44n7bu16muzd8u","","2357","","sounds/C/TD/ME_04_TD.mp3","","32","","","TD_SUMMARY","","","","","","","","","","ME","","4500,8100,10800,12600","1","4500","8100","10800","12600","null","null","null","1067.8999999761581","2353.099999964237_4618.099999964237_7130.799999952316_10810.599999964237_13667.899999976158","2","","","","","",""
"html-button-response","265","8682653","0.0-8.0-2.0-0.1","3","0","f44n7bu16muzd8u","","1512.199999988079","","<p>Trial 2 of 36</p>","0","","","","","","","","","","","","","","PU","sounds/syllables/pu_SWS.wav","1500,5100,9600,13200","3","","","","","","","","","","","","","","","",""
"html-keyboard-response","266","8687355","0.0-8.0-2.0-1.1","3","0","f44n7bu16muzd8u","","4700.699999988079","","","","80","","","","","","","","","","","","","PU","","1500,5100,9600,13200","3","","","","","","","","","","","","","","","",""
"audio-keyboard-response","267","8687653","0.0-8.0-2.0-2.2-0.2","3","0","f44n7bu16muzd8u","","null","","sounds/syllables/pu_SWS.wav","","null","","","","","","","","","","","","","","","","","","","","","","","","","","","","","","","",""
"html-keyboard-response","268","8689658","0.0-8.0-2.0-2.2-1.2","3","0","f44n7bu16muzd8u","","2004.2000000476837","","<p>To replay the <u>TARGET SOUND</u>, press P.</p> When you are ready to begin, press SPACEBAR.","","80","","","","","","","","","","","","","","","","","","","","","","","","","","","","","","","",""
"audio-keyboard-response","269","8690462","0.0-8.0-2.0-2.3-0.3","3","0","f44n7bu16muzd8u","","null","","sounds/syllables/pu_SWS.wav","","null","","","","","","","","","","","","","","","","","","","","","","","","","","","","","","","",""
"html-keyboard-response","270","8692141","0.0-8.0-2.0-2.3-1.3","3","0","f44n7bu16muzd8u","","1678.0999999642372","","<p>To replay the <u>TARGET SOUND</u>, press P.</p> When you are ready to begin, press SPACEBAR.","","32","","","","","","","","","","","","","","","","","","","","","","","","","","","","","","","",""
"audio-keyboard-response","271","8707090","0.0-8.0-2.0-3.1","3","0","f44n7bu16muzd8u","","2084","","sounds/C/TD/PU_07_TD.mp3","","32","","","TD_SUMMARY","","","","","","","","","","PU","","1500,5100,9600,13200","3","1500","5100","9600","13200","581.3000000119209","1086","null","1177.800000011921","_____2081.300000011921_5808.400000035763_6186_8211.100000023842_10858.100000023842_14053.800000011921_14377.800000011921","2","","","","","",""
"html-button-response","272","8709041","0.0-8.0-2.0-0.2","3","0","f44n7bu16muzd8u","","1947.800000011921","","<p>Trial 3 of 36</p>","0","","","","","","","","","","","","","","TI","sounds/syllables/ti_SWS.wav","1500,3300,10500,13200","3","","","","","","","","","","","","","","","",""
"html-keyboard-response","273","8711528","0.0-8.0-2.0-1.2","3","0","f44n7bu16muzd8u","","2485.899999976158","","","","80","","","","","","","","","","","","","TI","","1500,3300,10500,13200","3","","","","","","","","","","","","","","","",""
"audio-keyboard-response","274","8711833","0.0-8.0-2.0-2.4-0.4","3","0","f44n7bu16muzd8u","","null","","sounds/syllables/ti_SWS.wav","","null","","","","","","","","","","","","","","","","","","","","","","","","","","","","","","","",""
"html-keyboard-response","275","8713473","0.0-8.0-2.0-2.4-1.4","3","0","f44n7bu16muzd8u","","1638.800000011921","","<p>To replay the <u>TARGET SOUND</u>, press P.</p> When you are ready to begin, press SPACEBAR.","","80","","","","","","","","","","","","","","","","","","","","","","","","","","","","","","","",""
"audio-keyboard-response","276","8714283","0.0-8.0-2.0-2.5-0.5","3","0","f44n7bu16muzd8u","","null","","sounds/syllables/ti_SWS.wav","","null","","","","","","","","","","","","","","","","","","","","","","","","","","","","","","","",""
"html-keyboard-response","277","8716141","0.0-8.0-2.0-2.5-1.5","3","0","f44n7bu16muzd8u","","1857.1000000238419","","<p>To replay the <u>TARGET SOUND</u>, press P.</p> When you are ready to begin, press SPACEBAR.","","32","","","","","","","","","","","","","","","","","","","","","","","","","","","","","","","",""
"audio-keyboard-response","278","8731090","0.0-8.0-2.0-3.2","3","0","f44n7bu16muzd8u","","1045","","sounds/C/TD/TI_01_TD.mp3","","32","","","TD_SUMMARY","","","","","","","","","","TI","","1500,3300,10500,13200","3","1500","3300","10500","13200","null","644.5","1060.3999999761581","805.0999999642372","____________1047.8999999761581_3944.5_4510.5_6310.5_9540.599999964237_11314.199999988079_11560.399999976158_13808.199999988079_14005.099999964237","2","","","","","",""
"html-button-response","279","8732514","0.0-8.0-2.0-0.3","3","0","f44n7bu16muzd8u","","1421.1000000238419","","<p>Trial 4 of 36</p>","0","","","","","","","","","","","","","","FU","sounds/syllables/fu_SWS.wav","3300,6000,8700,12300","3","","","","","","","","","","","","","","","",""
"html-keyboard-response","280","8734046","0.0-8.0-2.0-1.3","3","0","f44n7bu16muzd8u","","1530.3999999761581","","","","80","","","","","","","","","","","","","FU","","3300,6000,8700,12300","3","","","","","","","","","","","","","","","",""
"audio-keyboard-response","281","8734350","0.0-8.0-2.0-2.6-0.6","3","0","f44n7bu16muzd8u","","null","","sounds/syllables/fu_SWS.wav","","null","","","","","","","","","","","","","","","","","","","","","","","","","","","","","","","",""
"html-keyboard-response","282","8735928","0.0-8.0-2.0-2.6-1.6","3","0","f44n7bu16muzd8u","","1576.6000000238419","","<p>To replay the <u>TARGET SOUND</u>, press P.</p> When you are ready to begin, press SPACEBAR.","","80","","","","","","","","","","","","","","","","","","","","","","","","","","","","","","","",""
"audio-keyboard-response","283","8736725","0.0-8.0-2.0-2.7-0.7","3","0","f44n7bu16muzd8u","","null","","sounds/syllables/fu_SWS.wav","","null","","","","","","","","","","","","","","","","","","","","","","","","","","","","","","","",""
"html-keyboard-response","284","8737875","0.0-8.0-2.0-2.7-1.7","3","0","f44n7bu16muzd8u","","1148.800000011921","","<p>To replay the <u>TARGET SOUND</u>, press P.</p> When you are ready to begin, press SPACEBAR.","","32","","","","","","","","","","","","","","","","","","","","","","","","","","","","","","","",""
"audio-keyboard-response","285","8752826","0.0-8.0-2.0-3.3","3","0","f44n7bu16muzd8u","","1033","","sounds/C/TD/FU_03_TD.mp3","","32","","","TD_SUMMARY","","","","","","","","","","FU","","3300,6000,8700,12300","3","3300","6000","8700","12300","null","274.80000001192093","952.8999999761581","565.5999999642372","_____________________1036.199999988079_3016.899999976158_3248.099999964237_5338.099999964237_6274.800000011921_8117_9652.899999976158_10761.699999988079_12865.599999964237","2","","","","","",""
"html-button-response","286","8753994","0.0-8.0-2.0-0.4","3","0","f44n7bu16muzd8u","","1165.300000011921","","<p>Trial 5 of 36</p>","0","","","","","","","","","","","","","","NI","sounds/syllables/ni_SWS.wav","900,2700,9900,11700","1","","","","","","","","","","","","","","","",""
"html-keyboard-response","287","8755585","0.0-8.0-2.0-1.4","3","0","f44n7bu16muzd8u","","1588.9000000357628","","","","80","","","","","","","","","","","","","NI","","900,2700,9900,11700","1","","","","","","","","","","","","","","","",""
"audio-keyboard-response","288","8755884","0.0-8.0-2.0-2.8-0.8","3","0","f44n7bu16muzd8u","","null","","sounds/syllables/ni_SWS.wav","","null","","","","","","","","","","","","","","","","","","","","","","","","","","","","","","","",""
"html-keyboard-response","289","8757426","0.0-8.0-2.0-2.8-1.8","3","0","f44n7bu16muzd8u","","1541","","<p>To replay the <u>TARGET SOUND</u>, press P.</p> When you are ready to begin, press SPACEBAR.","","80","","","","","","","","","","","","","","","","","","","","","","","","","","","","","","","",""
"audio-keyboard-response","290","8758229","0.0-8.0-2.0-2.9-0.9","3","0","f44n7bu16muzd8u","","null","","sounds/syllables/ni_SWS.wav","","null","","","","","","","","","","","","","","","","","","","","","","","","","","","","","","","",""
"html-keyboard-response","291","8758912","0.0-8.0-2.0-2.9-1.9","3","0","f44n7bu16muzd8u","","681.5","","<p>To replay the <u>TARGET SOUND</u>, press P.</p> When you are ready to begin, press SPACEBAR.","","32","","","","","","","","","","","","","","","","","","","","","","","","","","","","","","","",""
"audio-keyboard-response","292","8773861","0.0-8.0-2.0-3.4","3","0","f44n7bu16muzd8u","","1527","","sounds/C/TD/NI_04_TD.mp3","","32","","","TD_SUMMARY","","","","","","","","","","NI","","900,2700,9900,11700","1","900","2700","9900","11700","628.8000000119209","null","1094.300000011921","367.5999999642372","______________________________1528.800000011921_2703.099999964237_4850.699999988079_5621.199999988079_7519.399999976158_9315.5_10497.899999976158_10994.300000011921_12067.599999964237","2","","","","","",""
"html-button-response","293","8776274","0.0-8.0-2.0-0.5","3","0","f44n7bu16muzd8u","","2410.399999976158","","<p>Trial 6 of 36</p>","0","","","","","","","","","","","","","","KO","sounds/syllables/ko_SWS.wav","1800,3600,5400,9900","1","","","","","","","","","","","","","","","",""
"html-keyboard-response","294","8778196","0.0-8.0-2.0-1.5","3","0","f44n7bu16muzd8u","","1920.800000011921","","","","80","","","","","","","","","","","","","KO","","1800,3600,5400,9900","1","","","","","","","","","","","","","","","",""
"audio-keyboard-response","295","8778494","0.0-8.0-2.0-2.10-0.10","3","0","f44n7bu16muzd8u","","null","","sounds/syllables/ko_SWS.wav","","null","","","","","","","","","","","","","","","","","","","","","","","","","","","","","","","",""
"html-keyboard-response","296","8779816","0.0-8.0-2.0-2.10-1.10","3","0","f44n7bu16muzd8u","","1321.4000000357628","","<p>To replay the <u>TARGET SOUND</u>, press P.</p> When you are ready to begin, press SPACEBAR.","","80","","","","","","","","","","","","","","","","","","","","","","","","","","","","","","","",""
"audio-keyboard-response","297","8780619","0.0-8.0-2.0-2.11-0.11","3","0","f44n7bu16muzd8u","","null","","sounds/syllables/ko_SWS.wav","","null","","","","","","","","","","","","","","","","","","","","","","","","","","","","","","","",""
"html-keyboard-response","298","8781420","0.0-8.0-2.0-2.11-1.11","3","0","f44n7bu16muzd8u","","799.1000000238419","","<p>To replay the <u>TARGET SOUND</u>, press P.</p> When you are ready to begin, press SPACEBAR.","","32","","","","","","","","","","","","","","","","","","","","","","","","","","","","","","","",""
"audio-keyboard-response","299","8796367","0.0-8.0-2.0-3.5","3","0","f44n7bu16muzd8u","","2653","","sounds/C/TD/KO_05_TD.mp3","","32","","","TD_SUMMARY","","","","","","","","","","KO","","1800,3600,5400,9900","1","1800","3600","5400","9900","848.8999999761581","1017.6999999880791","null","null","_______________________________________2648.899999976158_4617.699999988079_7621.199999988079_9460.5_11131.5_12929.300000011921_13381.300000011921","2","","","","","",""
"html-button-response","300","8797487","0.0-8.0-2.0-0.6","3","0","f44n7bu16muzd8u","","1117.699999988079","","<p>Trial 7 of 36</p>","0","","","","","","","","","","","","","","TI","sounds/syllables/ti_SWS.wav","3300,6000,10500,13200","3","","","","","","","","","","","","","","","",""
"html-keyboard-response","301","8799226","0.0-8.0-2.0-1.6","3","0","f44n7bu16muzd8u","","1736.9000000357628","","","","80","","","","","","","","","","","","","TI","","3300,6000,10500,13200","3","","","","","","","","","","","","","","","",""
"audio-keyboard-response","302","8799523","0.0-8.0-2.0-2.12-0.12","3","0","f44n7bu16muzd8u","","null","","sounds/syllables/ti_SWS.wav","","null","","","","","","","","","","","","","","","","","","","","","","","","","","","","","","","",""
"html-keyboard-response","303","8800966","0.0-8.0-2.0-2.12-1.12","3","0","f44n7bu16muzd8u","","1442.0999999642372","","<p>To replay the <u>TARGET SOUND</u>, press P.</p> When you are ready to begin, press SPACEBAR.","","80","","","","","","","","","","","","","","","","","","","","","","","","","","","","","","","",""
"audio-keyboard-response","304","8801770","0.0-8.0-2.0-2.13-0.13","3","0","f44n7bu16muzd8u","","null","","sounds/syllables/ti_SWS.wav","","null","","","","","","","","","","","","","","","","","","","","","","","","","","","","","","","",""
"html-keyboard-response","305","8802609","0.0-8.0-2.0-2.13-1.13","3","0","f44n7bu16muzd8u","","838","","<p>To replay the <u>TARGET SOUND</u>, press P.</p> When you are ready to begin, press SPACEBAR.","","32","","","","","","","","","","","","","","","","","","","","","","","","","","","","","","","",""
"audio-keyboard-response","306","8817564","0.0-8.0-2.0-3.6","3","0","f44n7bu16muzd8u","","639","","sounds/C/TD/TI_02_TD.mp3","","32","","","TD_SUMMARY","","","","","","","","","","TI","","3300,6000,10500,13200","3","3300","6000","10500","13200","833.4000000357628","1003.2000000476837","769.1000000238419","627","______________________________________________640.7000000476837_2544.300000011921_4133.400000035763_5385.200000047684_6681.300000011921_7003.200000047684_8905.300000011921_9760.200000047684_11269.100000023842_12460.100000023842_13827","2","","","","","",""
"html-button-response","307","8818673","0.0-8.0-2.0-0.7","3","0","f44n7bu16muzd8u","","1105.5","","<p>Trial 8 of 36</p>","0","","","","","","","","","","","","","","TA","sounds/syllables/ta_SWS.wav","2100,6600,8400,12000","2","","","","","","","","","","","","","","","",""
"html-keyboard-response","308","8820527","0.0-8.0-2.0-1.7","3","0","f44n7bu16muzd8u","","1853.6000000238419","","","","80","","","","","","","","","","","","","TA","","2100,6600,8400,12000","2","","","","","","","","","","","","","","","",""
"audio-keyboard-response","309","8820824","0.0-8.0-2.0-2.14-0.14","3","0","f44n7bu16muzd8u","","null","","sounds/syllables/ta_SWS.wav","","null","","","","","","","","","","","","","","","","","","","","","","","","","","","","","","","",""
"html-keyboard-response","310","8821720","0.0-8.0-2.0-2.14-1.14","3","0","f44n7bu16muzd8u","","894.9000000357628","","<p>To replay the <u>TARGET SOUND</u>, press P.</p> When you are ready to begin, press SPACEBAR.","","80","","","","","","","","","","","","","","","","","","","","","","","","","","","","","","","",""
"audio-keyboard-response","311","8822521","0.0-8.0-2.0-2.15-0.15","3","0","f44n7bu16muzd8u","","null","","sounds/syllables/ta_SWS.wav","","null","","","","","","","","","","","","","","","","","","","","","","","","","","","","","","","",""
"html-keyboard-response","312","8823453","0.0-8.0-2.0-2.15-1.15","3","0","f44n7bu16muzd8u","","931","","<p>To replay the <u>TARGET SOUND</u>, press P.</p> When you are ready to begin, press SPACEBAR.","","80","","","","","","","","","","","","","","","","","","","","","","","","","","","","","","","",""
"audio-keyboard-response","313","8824253","0.0-8.0-2.0-2.16-0.16","3","0","f44n7bu16muzd8u","","null","","sounds/syllables/ta_SWS.wav","","null","","","","","","","","","","","","","","","","","","","","","","","","","","","","","","","",""
"html-keyboard-response","314","8824754","0.0-8.0-2.0-2.16-1.16","3","0","f44n7bu16muzd8u","","500.0999999642372","","<p>To replay the <u>TARGET SOUND</u>, press P.</p> When you are ready to begin, press SPACEBAR.","","32","","","","","","","","","","","","","","","","","","","","","","","","","","","","","","","",""
"audio-keyboard-response","315","8839699","0.0-8.0-2.0-3.7","3","0","f44n7bu16muzd8u","","2148","","sounds/C/TD/TA_08_TD.mp3","","32","","","TD_SUMMARY","","","","","","","","","","TA","","2100,6600,8400,12000","2","2100","6600","8400","12000","null","225","null","368","_________________________________________________________2142.900000035763_4885.900000035763_5513.100000023842_6825_10354.5_12368_14372.900000035763","3","","","","","",""
"html-button-response","316","8840795","0.0-8.0-2.0-0.8","3","0","f44n7bu16muzd8u","","1094.199999988079","","<p>Trial 9 of 36</p>","0","","","","","","","","","","","","","","RU","sounds/syllables/ru_SWS.wav","3900,6600,8400,12900","2","","","","","","","","","","","","","","","",""
"html-keyboard-response","317","8850939","0.0-8.0-2.0-1.8","3","0","f44n7bu16muzd8u","","10143.299999952316","","","","80","","","","","","","","","","","","","RU","","3900,6600,8400,12900","2","","","","","","","","","","","","","","","",""
"audio-keyboard-response","318","8851242","0.0-8.0-2.0-2.17-0.17","3","0","f44n7bu16muzd8u","","null","","sounds/syllables/ru_SWS.wav","","null","","","","","","","","","","","","","","","","","","","","","","","","","","","","","","","",""
"html-keyboard-response","319","8853022","0.0-8.0-2.0-2.17-1.17","3","0","f44n7bu16muzd8u","","1779.800000011921","","<p>To replay the <u>TARGET SOUND</u>, press P.</p> When you are ready to begin, press SPACEBAR.","","80","","","","","","","","","","","","","","","","","","","","","","","","","","","","","","","",""
"audio-keyboard-response","320","8853819","0.0-8.0-2.0-2.18-0.18","3","0","f44n7bu16muzd8u","","null","","sounds/syllables/ru_SWS.wav","","null","","","","","","","","","","","","","","","","","","","","","","","","","","","","","","","",""
"html-keyboard-response","321","8854753","0.0-8.0-2.0-2.18-1.18","3","0","f44n7bu16muzd8u","","933.6999999880791","","<p>To replay the <u>TARGET SOUND</u>, press P.</p> When you are ready to begin, press SPACEBAR.","","32","","","","","","","","","","","","","","","","","","","","","","","","","","","","","","","",""
"audio-keyboard-response","322","8869706","0.0-8.0-2.0-3.8","3","0","f44n7bu16muzd8u","","1875","","sounds/C/TD/RU_09_TD.mp3","","32","","","TD_SUMMARY","","","","","","","","","","RU","","3900,6600,8400,12900","2","3900","6600","8400","12900","1073.7000000476837","null","null","1022.4000000357628","________________________________________________________________1880.800000011921_2795_4505.200000047684_4973.700000047684_5248.900000035763_6715_8396.800000011921_11139.800000011921_13680.700000047684_13922.400000035763_14125.5","2","","","","","",""
"html-button-response","323","8871055","0.0-8.0-2.0-0.9","3","0","f44n7bu16muzd8u","","1347.2999999523163","","<p>Trial 10 of 36</p>","0","","","","","","","","","","","","","","FE","sounds/syllables/fe_SWS.wav","3900,6600,10200,12000","2","","","","","","","","","","","","","","","",""
"html-keyboard-response","324","8872487","0.0-8.0-2.0-1.9","3","0","f44n7bu16muzd8u","","1431.199999988079","","","","80","","","","","","","","","","","","","FE","","3900,6600,10200,12000","2","","","","","","","","","","","","","","","",""
"audio-keyboard-response","325","8872786","0.0-8.0-2.0-2.19-0.19","3","0","f44n7bu16muzd8u","","null","","sounds/syllables/fe_SWS.wav","","null","","","","","","","","","","","","","","","","","","","","","","","","","","","","","","","",""
"html-keyboard-response","326","8874626","0.0-8.0-2.0-2.19-1.19","3","0","f44n7bu16muzd8u","","1839.5","","<p>To replay the <u>TARGET SOUND</u>, press P.</p> When you are ready to begin, press SPACEBAR.","","32","","","","","","","","","","","","","","","","","","","","","","","","","","","","","","","",""
"audio-keyboard-response","327","8889576","0.0-8.0-2.0-3.9","3","0","f44n7bu16muzd8u","","505","","sounds/C/TD/FE_09_TD.mp3","","32","","","TD_SUMMARY","","","","","","","","","","FE","","3900,6600,10200,12000","2","3900","6600","10200","12000","632","626.8000000119209","679.5","684.6000000238419","___________________________________________________________________________512.5_2595_2820.900000035763_3012.900000035763_4532_5584.900000035763_5803.5_7226.800000011921_10879.5_12684.600000023842_14347.5","1","","","","","",""
"html-button-response","328","8890948","0.0-8.0-2.0-0.10","3","0","f44n7bu16muzd8u","","1369","","<p>Trial 11 of 36</p>","0","","","","","","","","","","","","","","GE","sounds/syllables/ge_SWS.wav","1500,3300,6900,13200","3","","","","","","","","","","","","","","","",""
"html-keyboard-response","329","8895119","0.0-8.0-2.0-1.10","3","0","f44n7bu16muzd8u","","4170","","","","80","","","","","","","","","","","","","GE","","1500,3300,6900,13200","3","","","","","","","","","","","","","","","",""
"audio-keyboard-response","330","8895420","0.0-8.0-2.0-2.20-0.20","3","0","f44n7bu16muzd8u","","null","","sounds/syllables/ge_SWS.wav","","null","","","","","","","","","","","","","","","","","","","","","","","","","","","","","","","",""
"html-keyboard-response","331","8896611","0.0-8.0-2.0-2.20-1.20","3","0","f44n7bu16muzd8u","","1191.2999999523163","","<p>To replay the <u>TARGET SOUND</u>, press P.</p> When you are ready to begin, press SPACEBAR.","","80","","","","","","","","","","","","","","","","","","","","","","","","","","","","","","","",""
"audio-keyboard-response","332","8897412","0.0-8.0-2.0-2.21-0.21","3","0","f44n7bu16muzd8u","","null","","sounds/syllables/ge_SWS.wav","","null","","","","","","","","","","","","","","","","","","","","","","","","","","","","","","","",""
"html-keyboard-response","333","8899041","0.0-8.0-2.0-2.21-1.21","3","0","f44n7bu16muzd8u","","1628.4000000357628","","<p>To replay the <u>TARGET SOUND</u>, press P.</p> When you are ready to begin, press SPACEBAR.","","32","","","","","","","","","","","","","","","","","","","","","","","","","","","","","","","",""
"audio-keyboard-response","334","8913994","0.0-8.0-2.0-3.10","3","0","f44n7bu16muzd8u","","1666","","sounds/C/TD/GE_05_TD.mp3","","32","","","TD_SUMMARY","","","","","","","","","","GE","","1500,3300,6900,13200","3","1500","3300","6900","13200","null","523.0999999642372","605.8999999761581","948","______________________________________________________________________________________1669.0999999642372_3365.899999976158_3596.899999976158_3823.099999964237_6087.800000011921_7294.399999976158_7505.899999976158_10802.599999964237_13736.599999964237_13953.899999976158_14148","2","","","","","",""
