"trial_type","trial_index","time_elapsed","internal_node_id","counterbalance","lang_instruct","ParticipantID","view_history","rt","url","stimulus","button_pressed","key_press","correctRESP","correct","designation","location","correctanswer","responses","sentence","keywords","typed_resp","keyword1_acc","keyword2_acc","keyword3_acc","keyword4_acc","keyword5_acc","total_acc","prop_acc","timeouts","pause_rt01","pause_rt02","train_file","numKeyPress","sound","fam_type","SYLLABLE","EXEMPLAR","TD_LOCS","TD_TYPE","TDLOC_01","TDLOC_02","TDLOC_03","TDLOC_04","TD_RT_01","TD_RT_02","TD_RT_03","TD_RT_04","TD_SUBJ_RTs","number_of_plays","slider_start","response","question_order","syllable","syllable_type"
"pavlovia","0","3","0.0-0.0","2","1","8pzu8v5pxltwot7","","","","","","","","","","","","","","","","","","","","","","","","","","","","","","","","","","","","","","","","","","","","","","","",""
"instructions","1","113318","0.0-1.0","2","1","8pzu8v5pxltwot7","[{""page_index"":0,""viewing_time"":7016},{""page_index"":1,""viewing_time"":106294}]","113315","","","","","","","","","","","","","","","","","","","","","","","","","","","","","","","","","","","","","","","","","","","","","",""
"external-html","2","240422","0.0-2.0","2","1","8pzu8v5pxltwot7","","126970","consent/consent.html","","","","","","","","","","","","","","","","","","","","","","","","","","","","","","","","","","","","","","","","","","","","",""
"html-button-response","3","247792","0.0-3.0-0.0-0.0","2","1","8pzu8v5pxltwot7","","7368","","<p>Welcome to the study. You will first complete a short volume calibration and headphone check.</p><p>Please make sure you are in a quiet listening environment, that you are wearing headphones, and that your computer's volume is turned on.<p></p>","0","","","","","","","","","","","","","","","","","","","","","","","","","","","","","","","","","","","","","","","","","","",""
"html-button-response","4","254712","0.0-3.0-0.0-1.0","2","1","8pzu8v5pxltwot7","","6648","","<p>The volume calibration will be first.</p><p>You will hear a thirty-second noise. Please adjust your computer's volume so that this noise is being presented at a comfortable level.<p></p>","0","","","","","","","","","","","","","","","","","","","","","","","","","","","","","","","","","","","","","","","","","","",""
"audio-button-response","5","271044","0.0-3.0-0.0-2.0","2","1","8pzu8v5pxltwot7","","16069","","audCalib/volumetest.mp3","0","","","","","","","","","","","","","","","","","","","","","","","","","","","","","","","","","","","","","","","","","","",""
"html-button-response","6","283200","0.0-3.0-1.0-0.0","2","1","8pzu8v5pxltwot7","","12154","","<p>You will now complete a short headphone check.</p><p>On each trial, you will hear three tones. One of these tones will be quieter than the others. Your task is to identify whether the quiet tone occured first, second, or third.</p><p>There are six trials in total.<p></p>","0","","","","","","","","","","","","","","","","","","","","","","","","","","","","","","","","","","","","","","","","","","",""
"html-keyboard-response","7","283965","0.0-3.0-1.0-1.0-0.0","2","1","8pzu8v5pxltwot7","","null","","<div style=""font-size:60px;"">+</div>","","null","","","","","","","","","","","","","","","","","","","","","","","","","","","","","","","","","","","","","","","","","",""
"audio-button-response","8","289100","0.0-3.0-1.0-1.0-1.0","2","1","8pzu8v5pxltwot7","","5131","","audCalib/t1_2.mp3","0","","0","1","headphone-test","","","","","","","","","","","","","","","","","","","","","","","","","","","","","","","","","","","","","","",""
"html-keyboard-response","9","289869","0.0-3.0-1.0-1.0-0.1","2","1","8pzu8v5pxltwot7","","null","","<div style=""font-size:60px;"">+</div>","","null","","","","","","","","","","","","","","","","","","","","","","","","","","","","","","","","","","","","","","","","","",""
"audio-button-response","10","294942","0.0-3.0-1.0-1.0-1.1","2","1","8pzu8v5pxltwot7","","5072","","audCalib/t3_1.mp3","2","","2","1","headphone-test","","","","","","","","","","","","","","","","","","","","","","","","","","","","","","","","","","","","","","",""
"html-keyboard-response","11","295715","0.0-3.0-1.0-1.0-0.2","2","1","8pzu8v5pxltwot7","","null","","<div style=""font-size:60px;"">+</div>","","null","","","","","","","","","","","","","","","","","","","","","","","","","","","","","","","","","","","","","","","","","",""
"audio-button-response","12","300278","0.0-3.0-1.0-1.0-1.2","2","1","8pzu8v5pxltwot7","","4560","","audCalib/t1_1.mp3","0","","0","1","headphone-test","","","","","","","","","","","","","","","","","","","","","","","","","","","","","","","","","","","","","","",""
"html-keyboard-response","13","301052","0.0-3.0-1.0-1.0-0.3","2","1","8pzu8v5pxltwot7","","null","","<div style=""font-size:60px;"">+</div>","","null","","","","","","","","","","","","","","","","","","","","","","","","","","","","","","","","","","","","","","","","","",""
"audio-button-response","14","305424","0.0-3.0-1.0-1.0-1.3","2","1","8pzu8v5pxltwot7","","4379","","audCalib/t3_2.mp3","2","","2","1","headphone-test","","","","","","","","","","","","","","","","","","","","","","","","","","","","","","","","","","","","","","",""
"html-keyboard-response","15","306199","0.0-3.0-1.0-1.0-0.4","2","1","8pzu8v5pxltwot7","","null","","<div style=""font-size:60px;"">+</div>","","null","","","","","","","","","","","","","","","","","","","","","","","","","","","","","","","","","","","","","","","","","",""
"audio-button-response","16","310558","0.0-3.0-1.0-1.0-1.4","2","1","8pzu8v5pxltwot7","","4360","","audCalib/t2_1.mp3","1","","1","1","headphone-test","","","","","","","","","","","","","","","","","","","","","","","","","","","","","","","","","","","","","","",""
"html-keyboard-response","17","311341","0.0-3.0-1.0-1.0-0.5","2","1","8pzu8v5pxltwot7","","null","","<div style=""font-size:60px;"">+</div>","","null","","","","","","","","","","","","","","","","","","","","","","","","","","","","","","","","","","","","","","","","","",""
"audio-button-response","18","315853","0.0-3.0-1.0-1.0-1.5","2","1","8pzu8v5pxltwot7","","4520","","audCalib/t2_2.mp3","1","","1","1","headphone-test","","","","","","","","","","","","","","","","","","","","","","","","","","","","","","","","","","","","","","",""
"html-button-response","19","318110","0.0-3.0-2.0","2","1","8pzu8v5pxltwot7","","1988","","<p>The volume calibration and headphone check are now complete.</p>","0","","","","","","","","","","","","","","","","","","","","","","","","","","","","","","","","","","","","","","","","","","",""
"instructions","20","339245","0.0-4.0-0.0","2","1","8pzu8v5pxltwot7","[{""page_index"":0,""viewing_time"":1606},{""page_index"":1,""viewing_time"":15489},{""page_index"":2,""viewing_time"":4040}]","21135","","","","","","","","","","","","","","","","","","","","","","","","","","","","","","","","","","","","","","","","","","","","","",""
"audio-keyboard-response","21","339563","0.0-4.0-1.0-0.0","2","1","8pzu8v5pxltwot7","","null","","sounds/induction/right/me_SWS.wav","","null","","","","","","","","","","","","","","","","","","","","","","","","","","","","","","","","","","","","","","","","","",""
"html-button-response","22","343052","0.0-4.0-1.0-1.0","2","1","8pzu8v5pxltwot7","","3488","","What sound did you hear?","0","","","1","INDUCTION-JUDGMENT","right","0","","","","","","","","","","","","","","","","","","","","","","","","","","","","","","","","","","","","",""
"html-keyboard-response","23","344065","0.0-4.0-1.0-2.0","2","1","8pzu8v5pxltwot7","","null","","<p style=""color:green;""><b>Correct!</b></p>","","null","","","","","","","","","","","","","","","","","","","","","","","","","","","","","","","","","","","","","","","","","",""
"audio-keyboard-response","24","344882","0.0-4.0-1.0-0.1","2","1","8pzu8v5pxltwot7","","null","","sounds/induction/left/ge_SWS.wav","","null","","","","","","","","","","","","","","","","","","","","","","","","","","","","","","","","","","","","","","","","","",""
"html-button-response","25","349049","0.0-4.0-1.0-1.1","2","1","8pzu8v5pxltwot7","","4167","","What sound did you hear?","0","","","0","INDUCTION-JUDGMENT","left","1","","","","","","","","","","","","","","","","","","","","","","","","","","","","","","","","","","","","",""
"html-keyboard-response","26","350051","0.0-4.0-1.0-2.1","2","1","8pzu8v5pxltwot7","","null","","<p style=""color:red;""><b>Incorrect!</b></p>","","null","","","","","","","","","","","","","","","","","","","","","","","","","","","","","","","","","","","","","","","","","",""
"audio-keyboard-response","27","350882","0.0-4.0-1.0-0.2","2","1","8pzu8v5pxltwot7","","null","","sounds/induction/left/su_SWS.wav","","null","","","","","","","","","","","","","","","","","","","","","","","","","","","","","","","","","","","","","","","","","",""
"html-button-response","28","352628","0.0-4.0-1.0-1.2","2","1","8pzu8v5pxltwot7","","1745","","What sound did you hear?","0","","","1","INDUCTION-JUDGMENT","left","0","","","","","","","","","","","","","","","","","","","","","","","","","","","","","","","","","","","","",""
"html-keyboard-response","29","353631","0.0-4.0-1.0-2.2","2","1","8pzu8v5pxltwot7","","null","","<p style=""color:green;""><b>Correct!</b></p>","","null","","","","","","","","","","","","","","","","","","","","","","","","","","","","","","","","","","","","","","","","","",""
"audio-keyboard-response","30","354443","0.0-4.0-1.0-0.3","2","1","8pzu8v5pxltwot7","","null","","sounds/induction/right/ni_SWS.wav","","null","","","","","","","","","","","","","","","","","","","","","","","","","","","","","","","","","","","","","","","","","",""
"html-button-response","31","356524","0.0-4.0-1.0-1.3","2","1","8pzu8v5pxltwot7","","2081","","What sound did you hear?","1","","","0","INDUCTION-JUDGMENT","right","0","","","","","","","","","","","","","","","","","","","","","","","","","","","","","","","","","","","","",""
"html-keyboard-response","32","357531","0.0-4.0-1.0-2.3","2","1","8pzu8v5pxltwot7","","null","","<p style=""color:red;""><b>Incorrect!</b></p>","","null","","","","","","","","","","","","","","","","","","","","","","","","","","","","","","","","","","","","","","","","","",""
"audio-keyboard-response","33","358362","0.0-4.0-1.0-0.4","2","1","8pzu8v5pxltwot7","","null","","sounds/induction/left/fe_SWS.wav","","null","","","","","","","","","","","","","","","","","","","","","","","","","","","","","","","","","","","","","","","","","",""
"html-button-response","34","359893","0.0-4.0-1.0-1.4","2","1","8pzu8v5pxltwot7","","1529","","What sound did you hear?","1","","","1","INDUCTION-JUDGMENT","left","1","","","","","","","","","","","","","","","","","","","","","","","","","","","","","","","","","","","","",""
"html-keyboard-response","35","360911","0.0-4.0-1.0-2.4","2","1","8pzu8v5pxltwot7","","null","","<p style=""color:green;""><b>Correct!</b></p>","","null","","","","","","","","","","","","","","","","","","","","","","","","","","","","","","","","","","","","","","","","","",""
"audio-keyboard-response","36","361731","0.0-4.0-1.0-0.5","2","1","8pzu8v5pxltwot7","","null","","sounds/induction/left/fu_SWS.wav","","null","","","","","","","","","","","","","","","","","","","","","","","","","","","","","","","","","","","","","","","","","",""
"html-button-response","37","364700","0.0-4.0-1.0-1.5","2","1","8pzu8v5pxltwot7","","2967","","What sound did you hear?","1","","","1","INDUCTION-JUDGMENT","left","1","","","","","","","","","","","","","","","","","","","","","","","","","","","","","","","","","","","","",""
"html-keyboard-response","38","365711","0.0-4.0-1.0-2.5","2","1","8pzu8v5pxltwot7","","null","","<p style=""color:green;""><b>Correct!</b></p>","","null","","","","","","","","","","","","","","","","","","","","","","","","","","","","","","","","","","","","","","","","","",""
"audio-keyboard-response","39","366532","0.0-4.0-1.0-0.6","2","1","8pzu8v5pxltwot7","","null","","sounds/induction/right/su_SWS.wav","","null","","","","","","","","","","","","","","","","","","","","","","","","","","","","","","","","","","","","","","","","","",""
"html-button-response","40","367944","0.0-4.0-1.0-1.6","2","1","8pzu8v5pxltwot7","","1411","","What sound did you hear?","1","","","1","INDUCTION-JUDGMENT","right","1","","","","","","","","","","","","","","","","","","","","","","","","","","","","","","","","","","","","",""
"html-keyboard-response","41","368951","0.0-4.0-1.0-2.6","2","1","8pzu8v5pxltwot7","","null","","<p style=""color:green;""><b>Correct!</b></p>","","null","","","","","","","","","","","","","","","","","","","","","","","","","","","","","","","","","","","","","","","","","",""
"audio-keyboard-response","42","369772","0.0-4.0-1.0-0.7","2","1","8pzu8v5pxltwot7","","null","","sounds/induction/right/ru_SWS.wav","","null","","","","","","","","","","","","","","","","","","","","","","","","","","","","","","","","","","","","","","","","","",""
"html-button-response","43","370881","0.0-4.0-1.0-1.7","2","1","8pzu8v5pxltwot7","","1108","","What sound did you hear?","1","","","1","INDUCTION-JUDGMENT","right","1","","","","","","","","","","","","","","","","","","","","","","","","","","","","","","","","","","","","",""
"html-keyboard-response","44","371891","0.0-4.0-1.0-2.7","2","1","8pzu8v5pxltwot7","","null","","<p style=""color:green;""><b>Correct!</b></p>","","null","","","","","","","","","","","","","","","","","","","","","","","","","","","","","","","","","","","","","","","","","",""
"audio-keyboard-response","45","372693","0.0-4.0-1.0-0.8","2","1","8pzu8v5pxltwot7","","null","","sounds/induction/left/ru_SWS.wav","","null","","","","","","","","","","","","","","","","","","","","","","","","","","","","","","","","","","","","","","","","","",""
"html-button-response","46","373559","0.0-4.0-1.0-1.8","2","1","8pzu8v5pxltwot7","","866","","What sound did you hear?","0","","","1","INDUCTION-JUDGMENT","left","0","","","","","","","","","","","","","","","","","","","","","","","","","","","","","","","","","","","","",""
"html-keyboard-response","47","374571","0.0-4.0-1.0-2.8","2","1","8pzu8v5pxltwot7","","null","","<p style=""color:green;""><b>Correct!</b></p>","","null","","","","","","","","","","","","","","","","","","","","","","","","","","","","","","","","","","","","","","","","","",""
"audio-keyboard-response","48","375403","0.0-4.0-1.0-0.9","2","1","8pzu8v5pxltwot7","","null","","sounds/induction/right/ge_SWS.wav","","null","","","","","","","","","","","","","","","","","","","","","","","","","","","","","","","","","","","","","","","","","",""
"html-button-response","49","376469","0.0-4.0-1.0-1.9","2","1","8pzu8v5pxltwot7","","1067","","What sound did you hear?","0","","","1","INDUCTION-JUDGMENT","right","0","","","","","","","","","","","","","","","","","","","","","","","","","","","","","","","","","","","","",""
"html-keyboard-response","50","377472","0.0-4.0-1.0-2.9","2","1","8pzu8v5pxltwot7","","null","","<p style=""color:green;""><b>Correct!</b></p>","","null","","","","","","","","","","","","","","","","","","","","","","","","","","","","","","","","","","","","","","","","","",""
"audio-keyboard-response","51","378293","0.0-4.0-1.0-0.10","2","1","8pzu8v5pxltwot7","","null","","sounds/induction/right/ta_SWS.wav","","null","","","","","","","","","","","","","","","","","","","","","","","","","","","","","","","","","","","","","","","","","",""
"html-button-response","52","379351","0.0-4.0-1.0-1.10","2","1","8pzu8v5pxltwot7","","1058","","What sound did you hear?","1","","","1","INDUCTION-JUDGMENT","right","1","","","","","","","","","","","","","","","","","","","","","","","","","","","","","","","","","","","","",""
"html-keyboard-response","53","380371","0.0-4.0-1.0-2.10","2","1","8pzu8v5pxltwot7","","null","","<p style=""color:green;""><b>Correct!</b></p>","","null","","","","","","","","","","","","","","","","","","","","","","","","","","","","","","","","","","","","","","","","","",""
"audio-keyboard-response","54","381202","0.0-4.0-1.0-0.11","2","1","8pzu8v5pxltwot7","","null","","sounds/induction/left/re_SWS.wav","","null","","","","","","","","","","","","","","","","","","","","","","","","","","","","","","","","","","","","","","","","","",""
"html-button-response","55","382411","0.0-4.0-1.0-1.11","2","1","8pzu8v5pxltwot7","","1208","","What sound did you hear?","0","","","1","INDUCTION-JUDGMENT","left","0","","","","","","","","","","","","","","","","","","","","","","","","","","","","","","","","","","","","",""
"html-keyboard-response","56","383431","0.0-4.0-1.0-2.11","2","1","8pzu8v5pxltwot7","","null","","<p style=""color:green;""><b>Correct!</b></p>","","null","","","","","","","","","","","","","","","","","","","","","","","","","","","","","","","","","","","","","","","","","",""
"audio-keyboard-response","57","384252","0.0-4.0-1.0-0.12","2","1","8pzu8v5pxltwot7","","null","","sounds/induction/right/pu_SWS.wav","","null","","","","","","","","","","","","","","","","","","","","","","","","","","","","","","","","","","","","","","","","","",""
"html-button-response","58","385498","0.0-4.0-1.0-1.12","2","1","8pzu8v5pxltwot7","","1244","","What sound did you hear?","1","","","1","INDUCTION-JUDGMENT","right","1","","","","","","","","","","","","","","","","","","","","","","","","","","","","","","","","","","","","",""
"html-keyboard-response","59","386512","0.0-4.0-1.0-2.12","2","1","8pzu8v5pxltwot7","","null","","<p style=""color:green;""><b>Correct!</b></p>","","null","","","","","","","","","","","","","","","","","","","","","","","","","","","","","","","","","","","","","","","","","",""
"audio-keyboard-response","60","387332","0.0-4.0-1.0-0.13","2","1","8pzu8v5pxltwot7","","null","","sounds/induction/left/ru_SWS.wav","","null","","","","","","","","","","","","","","","","","","","","","","","","","","","","","","","","","","","","","","","","","",""
"html-button-response","61","388301","0.0-4.0-1.0-1.13","2","1","8pzu8v5pxltwot7","","968","","What sound did you hear?","0","","","1","INDUCTION-JUDGMENT","left","0","","","","","","","","","","","","","","","","","","","","","","","","","","","","","","","","","","","","",""
"html-keyboard-response","62","389311","0.0-4.0-1.0-2.13","2","1","8pzu8v5pxltwot7","","null","","<p style=""color:green;""><b>Correct!</b></p>","","null","","","","","","","","","","","","","","","","","","","","","","","","","","","","","","","","","","","","","","","","","",""
"audio-keyboard-response","63","390133","0.0-4.0-1.0-0.14","2","1","8pzu8v5pxltwot7","","null","","sounds/induction/right/ge_SWS.wav","","null","","","","","","","","","","","","","","","","","","","","","","","","","","","","","","","","","","","","","","","","","",""
"html-button-response","64","391133","0.0-4.0-1.0-1.14","2","1","8pzu8v5pxltwot7","","999","","What sound did you hear?","0","","","1","INDUCTION-JUDGMENT","right","0","","","","","","","","","","","","","","","","","","","","","","","","","","","","","","","","","","","","",""
"html-keyboard-response","65","392150","0.0-4.0-1.0-2.14","2","1","8pzu8v5pxltwot7","","null","","<p style=""color:green;""><b>Correct!</b></p>","","null","","","","","","","","","","","","","","","","","","","","","","","","","","","","","","","","","","","","","","","","","",""
"audio-keyboard-response","66","392962","0.0-4.0-1.0-0.15","2","1","8pzu8v5pxltwot7","","null","","sounds/induction/right/ti_SWS.wav","","null","","","","","","","","","","","","","","","","","","","","","","","","","","","","","","","","","","","","","","","","","",""
"html-button-response","67","393991","0.0-4.0-1.0-1.15","2","1","8pzu8v5pxltwot7","","1028","","What sound did you hear?","1","","","1","INDUCTION-JUDGMENT","right","1","","","","","","","","","","","","","","","","","","","","","","","","","","","","","","","","","","","","",""
"html-keyboard-response","68","395011","0.0-4.0-1.0-2.15","2","1","8pzu8v5pxltwot7","","null","","<p style=""color:green;""><b>Correct!</b></p>","","null","","","","","","","","","","","","","","","","","","","","","","","","","","","","","","","","","","","","","","","","","",""
"audio-keyboard-response","69","395842","0.0-4.0-1.0-0.16","2","1","8pzu8v5pxltwot7","","null","","sounds/induction/left/re_SWS.wav","","null","","","","","","","","","","","","","","","","","","","","","","","","","","","","","","","","","","","","","","","","","",""
"html-button-response","70","396789","0.0-4.0-1.0-1.16","2","1","8pzu8v5pxltwot7","","947","","What sound did you hear?","0","","","1","INDUCTION-JUDGMENT","left","0","","","","","","","","","","","","","","","","","","","","","","","","","","","","","","","","","","","","",""
"html-keyboard-response","71","397791","0.0-4.0-1.0-2.16","2","1","8pzu8v5pxltwot7","","null","","<p style=""color:green;""><b>Correct!</b></p>","","null","","","","","","","","","","","","","","","","","","","","","","","","","","","","","","","","","","","","","","","","","",""
"audio-keyboard-response","72","398613","0.0-4.0-1.0-0.17","2","1","8pzu8v5pxltwot7","","null","","sounds/induction/right/su_SWS.wav","","null","","","","","","","","","","","","","","","","","","","","","","","","","","","","","","","","","","","","","","","","","",""
"html-button-response","73","399571","0.0-4.0-1.0-1.17","2","1","8pzu8v5pxltwot7","","959","","What sound did you hear?","1","","","1","INDUCTION-JUDGMENT","right","1","","","","","","","","","","","","","","","","","","","","","","","","","","","","","","","","","","","","",""
"html-keyboard-response","74","400591","0.0-4.0-1.0-2.17","2","1","8pzu8v5pxltwot7","","null","","<p style=""color:green;""><b>Correct!</b></p>","","null","","","","","","","","","","","","","","","","","","","","","","","","","","","","","","","","","","","","","","","","","",""
"audio-keyboard-response","75","401412","0.0-4.0-1.0-0.18","2","1","8pzu8v5pxltwot7","","null","","sounds/induction/right/fu_SWS.wav","","null","","","","","","","","","","","","","","","","","","","","","","","","","","","","","","","","","","","","","","","","","",""
"html-button-response","76","402640","0.0-4.0-1.0-1.18","2","1","8pzu8v5pxltwot7","","1225","","What sound did you hear?","0","","","1","INDUCTION-JUDGMENT","right","0","","","","","","","","","","","","","","","","","","","","","","","","","","","","","","","","","","","","",""
"html-keyboard-response","77","403642","0.0-4.0-1.0-2.18","2","1","8pzu8v5pxltwot7","","null","","<p style=""color:green;""><b>Correct!</b></p>","","null","","","","","","","","","","","","","","","","","","","","","","","","","","","","","","","","","","","","","","","","","",""
"audio-keyboard-response","78","404472","0.0-4.0-1.0-0.19","2","1","8pzu8v5pxltwot7","","null","","sounds/induction/right/re_SWS.wav","","null","","","","","","","","","","","","","","","","","","","","","","","","","","","","","","","","","","","","","","","","","",""
"html-button-response","79","405415","0.0-4.0-1.0-1.19","2","1","8pzu8v5pxltwot7","","942","","What sound did you hear?","1","","","1","INDUCTION-JUDGMENT","right","1","","","","","","","","","","","","","","","","","","","","","","","","","","","","","","","","","","","","",""
"html-keyboard-response","80","406421","0.0-4.0-1.0-2.19","2","1","8pzu8v5pxltwot7","","null","","<p style=""color:green;""><b>Correct!</b></p>","","null","","","","","","","","","","","","","","","","","","","","","","","","","","","","","","","","","","","","","","","","","",""
"audio-keyboard-response","81","407243","0.0-4.0-1.0-0.20","2","1","8pzu8v5pxltwot7","","null","","sounds/induction/left/fu_SWS.wav","","null","","","","","","","","","","","","","","","","","","","","","","","","","","","","","","","","","","","","","","","","","",""
"html-button-response","82","408156","0.0-4.0-1.0-1.20","2","1","8pzu8v5pxltwot7","","913","","What sound did you hear?","1","","","1","INDUCTION-JUDGMENT","left","1","","","","","","","","","","","","","","","","","","","","","","","","","","","","","","","","","","","","",""
"html-keyboard-response","83","409161","0.0-4.0-1.0-2.20","2","1","8pzu8v5pxltwot7","","null","","<p style=""color:green;""><b>Correct!</b></p>","","null","","","","","","","","","","","","","","","","","","","","","","","","","","","","","","","","","","","","","","","","","",""
"audio-keyboard-response","84","409961","0.0-4.0-1.0-0.21","2","1","8pzu8v5pxltwot7","","null","","sounds/induction/right/ta_SWS.wav","","null","","","","","","","","","","","","","","","","","","","","","","","","","","","","","","","","","","","","","","","","","",""
"html-button-response","85","410840","0.0-4.0-1.0-1.21","2","1","8pzu8v5pxltwot7","","877","","What sound did you hear?","1","","","1","INDUCTION-JUDGMENT","right","1","","","","","","","","","","","","","","","","","","","","","","","","","","","","","","","","","","","","",""
"html-keyboard-response","86","411842","0.0-4.0-1.0-2.21","2","1","8pzu8v5pxltwot7","","null","","<p style=""color:green;""><b>Correct!</b></p>","","null","","","","","","","","","","","","","","","","","","","","","","","","","","","","","","","","","","","","","","","","","",""
"audio-keyboard-response","87","412671","0.0-4.0-1.0-0.22","2","1","8pzu8v5pxltwot7","","null","","sounds/induction/left/ni_SWS.wav","","null","","","","","","","","","","","","","","","","","","","","","","","","","","","","","","","","","","","","","","","","","",""
"html-button-response","88","413780","0.0-4.0-1.0-1.22","2","1","8pzu8v5pxltwot7","","1108","","What sound did you hear?","1","","","1","INDUCTION-JUDGMENT","left","1","","","","","","","","","","","","","","","","","","","","","","","","","","","","","","","","","","","","",""
"html-keyboard-response","89","414791","0.0-4.0-1.0-2.22","2","1","8pzu8v5pxltwot7","","null","","<p style=""color:green;""><b>Correct!</b></p>","","null","","","","","","","","","","","","","","","","","","","","","","","","","","","","","","","","","","","","","","","","","",""
"audio-keyboard-response","90","415612","0.0-4.0-1.0-0.23","2","1","8pzu8v5pxltwot7","","null","","sounds/induction/left/pu_SWS.wav","","null","","","","","","","","","","","","","","","","","","","","","","","","","","","","","","","","","","","","","","","","","",""
"html-button-response","91","416522","0.0-4.0-1.0-1.23","2","1","8pzu8v5pxltwot7","","909","","What sound did you hear?","0","","","1","INDUCTION-JUDGMENT","left","0","","","","","","","","","","","","","","","","","","","","","","","","","","","","","","","","","","","","",""
"html-keyboard-response","92","417531","0.0-4.0-1.0-2.23","2","1","8pzu8v5pxltwot7","","null","","<p style=""color:green;""><b>Correct!</b></p>","","null","","","","","","","","","","","","","","","","","","","","","","","","","","","","","","","","","","","","","","","","","",""
"audio-keyboard-response","93","418362","0.0-4.0-1.0-0.24","2","1","8pzu8v5pxltwot7","","null","","sounds/induction/left/ni_SWS.wav","","null","","","","","","","","","","","","","","","","","","","","","","","","","","","","","","","","","","","","","","","","","",""
"html-button-response","94","419362","0.0-4.0-1.0-1.24","2","1","8pzu8v5pxltwot7","","999","","What sound did you hear?","1","","","1","INDUCTION-JUDGMENT","left","1","","","","","","","","","","","","","","","","","","","","","","","","","","","","","","","","","","","","",""
"html-keyboard-response","95","420371","0.0-4.0-1.0-2.24","2","1","8pzu8v5pxltwot7","","null","","<p style=""color:green;""><b>Correct!</b></p>","","null","","","","","","","","","","","","","","","","","","","","","","","","","","","","","","","","","","","","","","","","","",""
"audio-keyboard-response","96","421202","0.0-4.0-1.0-0.25","2","1","8pzu8v5pxltwot7","","null","","sounds/induction/left/ta_SWS.wav","","null","","","","","","","","","","","","","","","","","","","","","","","","","","","","","","","","","","","","","","","","","",""
"html-button-response","97","422041","0.0-4.0-1.0-1.25","2","1","8pzu8v5pxltwot7","","836","","What sound did you hear?","0","","","1","INDUCTION-JUDGMENT","left","0","","","","","","","","","","","","","","","","","","","","","","","","","","","","","","","","","","","","",""
"html-keyboard-response","98","423051","0.0-4.0-1.0-2.25","2","1","8pzu8v5pxltwot7","","null","","<p style=""color:green;""><b>Correct!</b></p>","","null","","","","","","","","","","","","","","","","","","","","","","","","","","","","","","","","","","","","","","","","","",""
"audio-keyboard-response","99","423852","0.0-4.0-1.0-0.26","2","1","8pzu8v5pxltwot7","","null","","sounds/induction/left/ko_SWS.wav","","null","","","","","","","","","","","","","","","","","","","","","","","","","","","","","","","","","","","","","","","","","",""
"html-button-response","100","426149","0.0-4.0-1.0-1.26","2","1","8pzu8v5pxltwot7","","2297","","What sound did you hear?","1","","","1","INDUCTION-JUDGMENT","left","1","","","","","","","","","","","","","","","","","","","","","","","","","","","","","","","","","","","","",""
"html-keyboard-response","101","427152","0.0-4.0-1.0-2.26","2","1","8pzu8v5pxltwot7","","null","","<p style=""color:green;""><b>Correct!</b></p>","","null","","","","","","","","","","","","","","","","","","","","","","","","","","","","","","","","","","","","","","","","","",""
"audio-keyboard-response","102","427971","0.0-4.0-1.0-0.27","2","1","8pzu8v5pxltwot7","","null","","sounds/induction/left/ta_SWS.wav","","null","","","","","","","","","","","","","","","","","","","","","","","","","","","","","","","","","","","","","","","","","",""
"html-button-response","103","429631","0.0-4.0-1.0-1.27","2","1","8pzu8v5pxltwot7","","1659","","What sound did you hear?","0","","","1","INDUCTION-JUDGMENT","left","0","","","","","","","","","","","","","","","","","","","","","","","","","","","","","","","","","","","","",""
"html-keyboard-response","104","430651","0.0-4.0-1.0-2.27","2","1","8pzu8v5pxltwot7","","null","","<p style=""color:green;""><b>Correct!</b></p>","","null","","","","","","","","","","","","","","","","","","","","","","","","","","","","","","","","","","","","","","","","","",""
"audio-keyboard-response","105","431451","0.0-4.0-1.0-0.28","2","1","8pzu8v5pxltwot7","","null","","sounds/induction/left/ko_SWS.wav","","null","","","","","","","","","","","","","","","","","","","","","","","","","","","","","","","","","","","","","","","","","",""
"html-button-response","106","433540","0.0-4.0-1.0-1.28","2","1","8pzu8v5pxltwot7","","2088","","What sound did you hear?","1","","","1","INDUCTION-JUDGMENT","left","1","","","","","","","","","","","","","","","","","","","","","","","","","","","","","","","","","","","","",""
"html-keyboard-response","107","434541","0.0-4.0-1.0-2.28","2","1","8pzu8v5pxltwot7","","null","","<p style=""color:green;""><b>Correct!</b></p>","","null","","","","","","","","","","","","","","","","","","","","","","","","","","","","","","","","","","","","","","","","","",""
"audio-keyboard-response","108","435362","0.0-4.0-1.0-0.29","2","1","8pzu8v5pxltwot7","","null","","sounds/induction/left/me_SWS.wav","","null","","","","","","","","","","","","","","","","","","","","","","","","","","","","","","","","","","","","","","","","","",""
"html-button-response","109","437086","0.0-4.0-1.0-1.29","2","1","8pzu8v5pxltwot7","","1721","","What sound did you hear?","1","","","1","INDUCTION-JUDGMENT","left","1","","","","","","","","","","","","","","","","","","","","","","","","","","","","","","","","","","","","",""
"html-keyboard-response","110","438101","0.0-4.0-1.0-2.29","2","1","8pzu8v5pxltwot7","","null","","<p style=""color:green;""><b>Correct!</b></p>","","null","","","","","","","","","","","","","","","","","","","","","","","","","","","","","","","","","","","","","","","","","",""
"audio-keyboard-response","111","438922","0.0-4.0-1.0-0.30","2","1","8pzu8v5pxltwot7","","null","","sounds/induction/left/ge_SWS.wav","","null","","","","","","","","","","","","","","","","","","","","","","","","","","","","","","","","","","","","","","","","","",""
"html-button-response","112","439743","0.0-4.0-1.0-1.30","2","1","8pzu8v5pxltwot7","","821","","What sound did you hear?","1","","","1","INDUCTION-JUDGMENT","left","1","","","","","","","","","","","","","","","","","","","","","","","","","","","","","","","","","","","","",""
"html-keyboard-response","113","440761","0.0-4.0-1.0-2.30","2","1","8pzu8v5pxltwot7","","null","","<p style=""color:green;""><b>Correct!</b></p>","","null","","","","","","","","","","","","","","","","","","","","","","","","","","","","","","","","","","","","","","","","","",""
"audio-keyboard-response","114","441593","0.0-4.0-1.0-0.31","2","1","8pzu8v5pxltwot7","","null","","sounds/induction/right/ti_SWS.wav","","null","","","","","","","","","","","","","","","","","","","","","","","","","","","","","","","","","","","","","","","","","",""
"html-button-response","115","442371","0.0-4.0-1.0-1.31","2","1","8pzu8v5pxltwot7","","777","","What sound did you hear?","1","","","1","INDUCTION-JUDGMENT","right","1","","","","","","","","","","","","","","","","","","","","","","","","","","","","","","","","","","","","",""
"html-keyboard-response","116","443381","0.0-4.0-1.0-2.31","2","1","8pzu8v5pxltwot7","","null","","<p style=""color:green;""><b>Correct!</b></p>","","null","","","","","","","","","","","","","","","","","","","","","","","","","","","","","","","","","","","","","","","","","",""
"audio-keyboard-response","117","444201","0.0-4.0-1.0-0.32","2","1","8pzu8v5pxltwot7","","null","","sounds/induction/right/fu_SWS.wav","","null","","","","","","","","","","","","","","","","","","","","","","","","","","","","","","","","","","","","","","","","","",""
"html-button-response","118","445049","0.0-4.0-1.0-1.32","2","1","8pzu8v5pxltwot7","","847","","What sound did you hear?","0","","","1","INDUCTION-JUDGMENT","right","0","","","","","","","","","","","","","","","","","","","","","","","","","","","","","","","","","","","","",""
"html-keyboard-response","119","446061","0.0-4.0-1.0-2.32","2","1","8pzu8v5pxltwot7","","null","","<p style=""color:green;""><b>Correct!</b></p>","","null","","","","","","","","","","","","","","","","","","","","","","","","","","","","","","","","","","","","","","","","","",""
"audio-keyboard-response","120","446883","0.0-4.0-1.0-0.33","2","1","8pzu8v5pxltwot7","","null","","sounds/induction/right/me_SWS.wav","","null","","","","","","","","","","","","","","","","","","","","","","","","","","","","","","","","","","","","","","","","","",""
"html-button-response","121","447899","0.0-4.0-1.0-1.33","2","1","8pzu8v5pxltwot7","","1017","","What sound did you hear?","0","","","1","INDUCTION-JUDGMENT","right","0","","","","","","","","","","","","","","","","","","","","","","","","","","","","","","","","","","","","",""
"html-keyboard-response","122","448911","0.0-4.0-1.0-2.33","2","1","8pzu8v5pxltwot7","","null","","<p style=""color:green;""><b>Correct!</b></p>","","null","","","","","","","","","","","","","","","","","","","","","","","","","","","","","","","","","","","","","","","","","",""
"audio-keyboard-response","123","449732","0.0-4.0-1.0-0.34","2","1","8pzu8v5pxltwot7","","null","","sounds/induction/right/fe_SWS.wav","","null","","","","","","","","","","","","","","","","","","","","","","","","","","","","","","","","","","","","","","","","","",""
"html-button-response","124","451294","0.0-4.0-1.0-1.34","2","1","8pzu8v5pxltwot7","","1560","","What sound did you hear?","0","","","1","INDUCTION-JUDGMENT","right","0","","","","","","","","","","","","","","","","","","","","","","","","","","","","","","","","","","","","",""
"html-keyboard-response","125","452311","0.0-4.0-1.0-2.34","2","1","8pzu8v5pxltwot7","","null","","<p style=""color:green;""><b>Correct!</b></p>","","null","","","","","","","","","","","","","","","","","","","","","","","","","","","","","","","","","","","","","","","","","",""
"audio-keyboard-response","126","453132","0.0-4.0-1.0-0.35","2","1","8pzu8v5pxltwot7","","null","","sounds/induction/left/me_SWS.wav","","null","","","","","","","","","","","","","","","","","","","","","","","","","","","","","","","","","","","","","","","","","",""
"html-button-response","127","454985","0.0-4.0-1.0-1.35","2","1","8pzu8v5pxltwot7","","1853","","What sound did you hear?","1","","","1","INDUCTION-JUDGMENT","left","1","","","","","","","","","","","","","","","","","","","","","","","","","","","","","","","","","","","","",""
"html-keyboard-response","128","455991","0.0-4.0-1.0-2.35","2","1","8pzu8v5pxltwot7","","null","","<p style=""color:green;""><b>Correct!</b></p>","","null","","","","","","","","","","","","","","","","","","","","","","","","","","","","","","","","","","","","","","","","","",""
"audio-keyboard-response","129","456803","0.0-4.0-1.0-0.36","2","1","8pzu8v5pxltwot7","","null","","sounds/induction/right/ko_SWS.wav","","null","","","","","","","","","","","","","","","","","","","","","","","","","","","","","","","","","","","","","","","","","",""
"html-button-response","130","459085","0.0-4.0-1.0-1.36","2","1","8pzu8v5pxltwot7","","2283","","What sound did you hear?","0","","","1","INDUCTION-JUDGMENT","right","0","","","","","","","","","","","","","","","","","","","","","","","","","","","","","","","","","","","","",""
"html-keyboard-response","131","460092","0.0-4.0-1.0-2.36","2","1","8pzu8v5pxltwot7","","null","","<p style=""color:green;""><b>Correct!</b></p>","","null","","","","","","","","","","","","","","","","","","","","","","","","","","","","","","","","","","","","","","","","","",""
"audio-keyboard-response","132","460922","0.0-4.0-1.0-0.37","2","1","8pzu8v5pxltwot7","","null","","sounds/induction/right/re_SWS.wav","","null","","","","","","","","","","","","","","","","","","","","","","","","","","","","","","","","","","","","","","","","","",""
"html-button-response","133","461705","0.0-4.0-1.0-1.37","2","1","8pzu8v5pxltwot7","","783","","What sound did you hear?","1","","","1","INDUCTION-JUDGMENT","right","1","","","","","","","","","","","","","","","","","","","","","","","","","","","","","","","","","","","","",""
"html-keyboard-response","134","462721","0.0-4.0-1.0-2.37","2","1","8pzu8v5pxltwot7","","null","","<p style=""color:green;""><b>Correct!</b></p>","","null","","","","","","","","","","","","","","","","","","","","","","","","","","","","","","","","","","","","","","","","","",""
"audio-keyboard-response","135","463552","0.0-4.0-1.0-0.38","2","1","8pzu8v5pxltwot7","","null","","sounds/induction/right/pu_SWS.wav","","null","","","","","","","","","","","","","","","","","","","","","","","","","","","","","","","","","","","","","","","","","",""
"html-button-response","136","464245","0.0-4.0-1.0-1.38","2","1","8pzu8v5pxltwot7","","689","","What sound did you hear?","1","","","1","INDUCTION-JUDGMENT","right","1","","","","","","","","","","","","","","","","","","","","","","","","","","","","","","","","","","","","",""
"html-keyboard-response","137","465261","0.0-4.0-1.0-2.38","2","1","8pzu8v5pxltwot7","","null","","<p style=""color:green;""><b>Correct!</b></p>","","null","","","","","","","","","","","","","","","","","","","","","","","","","","","","","","","","","","","","","","","","","",""
"audio-keyboard-response","138","466082","0.0-4.0-1.0-0.39","2","1","8pzu8v5pxltwot7","","null","","sounds/induction/left/pu_SWS.wav","","null","","","","","","","","","","","","","","","","","","","","","","","","","","","","","","","","","","","","","","","","","",""
"html-button-response","139","466873","0.0-4.0-1.0-1.39","2","1","8pzu8v5pxltwot7","","790","","What sound did you hear?","0","","","1","INDUCTION-JUDGMENT","left","0","","","","","","","","","","","","","","","","","","","","","","","","","","","","","","","","","","","","",""
"html-keyboard-response","140","467891","0.0-4.0-1.0-2.39","2","1","8pzu8v5pxltwot7","","null","","<p style=""color:green;""><b>Correct!</b></p>","","null","","","","","","","","","","","","","","","","","","","","","","","","","","","","","","","","","","","","","","","","","",""
"audio-keyboard-response","141","468722","0.0-4.0-1.0-0.40","2","1","8pzu8v5pxltwot7","","null","","sounds/induction/left/su_SWS.wav","","null","","","","","","","","","","","","","","","","","","","","","","","","","","","","","","","","","","","","","","","","","",""
"html-button-response","142","469822","0.0-4.0-1.0-1.40","2","1","8pzu8v5pxltwot7","","1098","","What sound did you hear?","0","","","1","INDUCTION-JUDGMENT","left","0","","","","","","","","","","","","","","","","","","","","","","","","","","","","","","","","","","","","",""
"html-keyboard-response","143","470826","0.0-4.0-1.0-2.40","2","1","8pzu8v5pxltwot7","","null","","<p style=""color:green;""><b>Correct!</b></p>","","null","","","","","","","","","","","","","","","","","","","","","","","","","","","","","","","","","","","","","","","","","",""
"audio-keyboard-response","144","471643","0.0-4.0-1.0-0.41","2","1","8pzu8v5pxltwot7","","null","","sounds/induction/right/fe_SWS.wav","","null","","","","","","","","","","","","","","","","","","","","","","","","","","","","","","","","","","","","","","","","","",""
"html-button-response","145","473340","0.0-4.0-1.0-1.41","2","1","8pzu8v5pxltwot7","","1697","","What sound did you hear?","0","","","1","INDUCTION-JUDGMENT","right","0","","","","","","","","","","","","","","","","","","","","","","","","","","","","","","","","","","","","",""
"html-keyboard-response","146","474351","0.0-4.0-1.0-2.41","2","1","8pzu8v5pxltwot7","","null","","<p style=""color:green;""><b>Correct!</b></p>","","null","","","","","","","","","","","","","","","","","","","","","","","","","","","","","","","","","","","","","","","","","",""
"audio-keyboard-response","147","475163","0.0-4.0-1.0-0.42","2","1","8pzu8v5pxltwot7","","null","","sounds/induction/right/ko_SWS.wav","","null","","","","","","","","","","","","","","","","","","","","","","","","","","","","","","","","","","","","","","","","","",""
"html-button-response","148","476789","0.0-4.0-1.0-1.42","2","1","8pzu8v5pxltwot7","","1627","","What sound did you hear?","0","","","1","INDUCTION-JUDGMENT","right","0","","","","","","","","","","","","","","","","","","","","","","","","","","","","","","","","","","","","",""
"html-keyboard-response","149","477791","0.0-4.0-1.0-2.42","2","1","8pzu8v5pxltwot7","","null","","<p style=""color:green;""><b>Correct!</b></p>","","null","","","","","","","","","","","","","","","","","","","","","","","","","","","","","","","","","","","","","","","","","",""
"audio-keyboard-response","150","478612","0.0-4.0-1.0-0.43","2","1","8pzu8v5pxltwot7","","null","","sounds/induction/right/ru_SWS.wav","","null","","","","","","","","","","","","","","","","","","","","","","","","","","","","","","","","","","","","","","","","","",""
"html-button-response","151","479283","0.0-4.0-1.0-1.43","2","1","8pzu8v5pxltwot7","","670","","What sound did you hear?","1","","","1","INDUCTION-JUDGMENT","right","1","","","","","","","","","","","","","","","","","","","","","","","","","","","","","","","","","","","","",""
"html-keyboard-response","152","480292","0.0-4.0-1.0-2.43","2","1","8pzu8v5pxltwot7","","null","","<p style=""color:green;""><b>Correct!</b></p>","","null","","","","","","","","","","","","","","","","","","","","","","","","","","","","","","","","","","","","","","","","","",""
"audio-keyboard-response","153","481122","0.0-4.0-1.0-0.44","2","1","8pzu8v5pxltwot7","","null","","sounds/induction/left/fe_SWS.wav","","null","","","","","","","","","","","","","","","","","","","","","","","","","","","","","","","","","","","","","","","","","",""
"html-button-response","154","482163","0.0-4.0-1.0-1.44","2","1","8pzu8v5pxltwot7","","1040","","What sound did you hear?","1","","","1","INDUCTION-JUDGMENT","left","1","","","","","","","","","","","","","","","","","","","","","","","","","","","","","","","","","","","","",""
"html-keyboard-response","155","483181","0.0-4.0-1.0-2.44","2","1","8pzu8v5pxltwot7","","null","","<p style=""color:green;""><b>Correct!</b></p>","","null","","","","","","","","","","","","","","","","","","","","","","","","","","","","","","","","","","","","","","","","","",""
"audio-keyboard-response","156","484002","0.0-4.0-1.0-0.45","2","1","8pzu8v5pxltwot7","","null","","sounds/induction/left/ti_SWS.wav","","null","","","","","","","","","","","","","","","","","","","","","","","","","","","","","","","","","","","","","","","","","",""
"html-button-response","157","485943","0.0-4.0-1.0-1.45","2","1","8pzu8v5pxltwot7","","1940","","What sound did you hear?","0","","","1","INDUCTION-JUDGMENT","left","0","","","","","","","","","","","","","","","","","","","","","","","","","","","","","","","","","","","","",""
"html-keyboard-response","158","486946","0.0-4.0-1.0-2.45","2","1","8pzu8v5pxltwot7","","null","","<p style=""color:green;""><b>Correct!</b></p>","","null","","","","","","","","","","","","","","","","","","","","","","","","","","","","","","","","","","","","","","","","","",""
"audio-keyboard-response","159","487762","0.0-4.0-1.0-0.46","2","1","8pzu8v5pxltwot7","","null","","sounds/induction/left/ti_SWS.wav","","null","","","","","","","","","","","","","","","","","","","","","","","","","","","","","","","","","","","","","","","","","",""
"html-button-response","160","488443","0.0-4.0-1.0-1.46","2","1","8pzu8v5pxltwot7","","681","","What sound did you hear?","0","","","1","INDUCTION-JUDGMENT","left","0","","","","","","","","","","","","","","","","","","","","","","","","","","","","","","","","","","","","",""
"html-keyboard-response","161","489451","0.0-4.0-1.0-2.46","2","1","8pzu8v5pxltwot7","","null","","<p style=""color:green;""><b>Correct!</b></p>","","null","","","","","","","","","","","","","","","","","","","","","","","","","","","","","","","","","","","","","","","","","",""
"audio-keyboard-response","162","490272","0.0-4.0-1.0-0.47","2","1","8pzu8v5pxltwot7","","null","","sounds/induction/right/ni_SWS.wav","","null","","","","","","","","","","","","","","","","","","","","","","","","","","","","","","","","","","","","","","","","","",""
"html-button-response","163","491447","0.0-4.0-1.0-1.47","2","1","8pzu8v5pxltwot7","","1174","","What sound did you hear?","0","","","1","INDUCTION-JUDGMENT","right","0","","","","","","","","","","","","","","","","","","","","","","","","","","","","","","","","","","","","",""
"html-keyboard-response","164","492451","0.0-4.0-1.0-2.47","2","1","8pzu8v5pxltwot7","","null","","<p style=""color:green;""><b>Correct!</b></p>","","null","","","","","","","","","","","","","","","","","","","","","","","","","","","","","","","","","","","","","","","","","",""
"html-button-response","165","508577","0.0-5.0-0.0","2","1","8pzu8v5pxltwot7","","15627","","<p>Thank you for your answers.</p><p>You will now listen to similar sounds. The main difference is that the sounds will be longer and will make up complete sentences.</p><p>Please listen carefully to each sentence. After each sentence, you will be asked to type back what you heard to the best of your ability. After you provide your response, you will be given feedback about the correct answer.</p><p>There are 10 sentences in total.","0","","","","","","","","","","","","","","","","","","","","","","","","","","","","","","","","","","","","","","","","","","",""
"audio-keyboard-response","166","511703","0.0-5.0-1.0-0.0","2","1","8pzu8v5pxltwot7","","null","","sounds/sentences/left/14_01_cfSWS.wav","","null","","","","","","","","","","","","","","","","","","","","","","","","","","","","","","","","","","","","","","","","","",""
"sentence-resp","167","531615","0.0-5.0-1.0-1.0","2","1","8pzu8v5pxltwot7","","19910","","","","","","","SWS-SENT-RESPONSE","","","{""Q0"":""""}","A cramp is no small danger on a swim.","cramp,no,small,danger,swim","","0","0","0","0","0","0","0","","","","","","","","","","","","","","","","","","","","","","","","","",""
"html-keyboard-response","168","532897","0.0-5.0-1.0-2.0","2","1","8pzu8v5pxltwot7","","null","","","","null","","","","","","","","","","","","","","","","","","","","","","","","","","","","","","","","","","","","","","","","","",""
"audio-keyboard-response","169","535522","0.0-5.0-1.0-3.0","2","1","8pzu8v5pxltwot7","","null","","sounds/sentences/left/14_01_cfSWS.wav","","null","","","","","","","","","","","","","","","","","","","","","","","","","","","","","","","","","","","","","","","","","",""
"html-keyboard-response","170","536542","0.0-5.0-1.0-4.0","2","1","8pzu8v5pxltwot7","","null","","","","null","","","","","","","","","","","","","","","","","","","","","","","","","","","","","","","","","","","","","","","","","",""
"html-button-response","171","539828","0.0-5.0-1.0-5.0","2","1","8pzu8v5pxltwot7","","2767","","<p>Press the button below when you are ready to continue.</p>","0","","","","","","","","","","","","","","","","","","","","","","","","","","","","","","","","","","","","","","","","","","",""
"audio-keyboard-response","172","542863","0.0-5.0-1.0-0.1","2","1","8pzu8v5pxltwot7","","null","","sounds/sentences/right/14_10_cfSWS.wav","","null","","","","","","","","","","","","","","","","","","","","","","","","","","","","","","","","","","","","","","","","","",""
"sentence-resp","173","563013","0.0-5.0-1.0-1.1","2","1","8pzu8v5pxltwot7","","20149","","","","","","","SWS-SENT-RESPONSE","","","{""Q0"":""a strong swim lands on a smokey days""}","Port is a strong wine with a smoky taste.","port,strong,wine,smoky,taste","A STRONG SWIM LANDS ON A SMOKEY DAYS","0","1","0","0","0","1","0.2","","","","","","","","","","","","","","","","","","","","","","","","","",""
"html-keyboard-response","174","564281","0.0-5.0-1.0-2.1","2","1","8pzu8v5pxltwot7","","null","","","","null","","","","","","","","","","","","","","","","","","","","","","","","","","","","","","","","","","","","","","","","","",""
"audio-keyboard-response","175","566802","0.0-5.0-1.0-3.1","2","1","8pzu8v5pxltwot7","","null","","sounds/sentences/right/14_10_cfSWS.wav","","null","","","","","","","","","","","","","","","","","","","","","","","","","","","","","","","","","","","","","","","","","",""
"html-keyboard-response","176","567821","0.0-5.0-1.0-4.1","2","1","8pzu8v5pxltwot7","","null","","","","null","","","","","","","","","","","","","","","","","","","","","","","","","","","","","","","","","","","","","","","","","",""
"html-button-response","177","569462","0.0-5.0-1.0-5.1","2","1","8pzu8v5pxltwot7","","1119","","<p>Press the button below when you are ready to continue.</p>","0","","","","","","","","","","","","","","","","","","","","","","","","","","","","","","","","","","","","","","","","","","",""
"audio-keyboard-response","178","572222","0.0-5.0-1.0-0.2","2","1","8pzu8v5pxltwot7","","null","","sounds/sentences/right/14_09_cfSWS.wav","","null","","","","","","","","","","","","","","","","","","","","","","","","","","","","","","","","","","","","","","","","","",""
"sentence-resp","179","584597","0.0-5.0-1.0-1.2","2","1","8pzu8v5pxltwot7","","12375","","","","","","","SWS-SENT-RESPONSE","","","{""Q0"":""we have thrown to take a bad turn""}","We frown when events take a bad turn.","frown,events,take,bad,turn","WE HAVE THROWN TO TAKE A BAD TURN","0","0","1","1","1","3","0.6","","","","","","","","","","","","","","","","","","","","","","","","","",""
"html-keyboard-response","180","585862","0.0-5.0-1.0-2.2","2","1","8pzu8v5pxltwot7","","null","","","","null","","","","","","","","","","","","","","","","","","","","","","","","","","","","","","","","","","","","","","","","","",""
"audio-keyboard-response","181","588103","0.0-5.0-1.0-3.2","2","1","8pzu8v5pxltwot7","","null","","sounds/sentences/right/14_09_cfSWS.wav","","null","","","","","","","","","","","","","","","","","","","","","","","","","","","","","","","","","","","","","","","","","",""
"html-keyboard-response","182","589121","0.0-5.0-1.0-4.2","2","1","8pzu8v5pxltwot7","","null","","","","null","","","","","","","","","","","","","","","","","","","","","","","","","","","","","","","","","","","","","","","","","",""
"html-button-response","183","590529","0.0-5.0-1.0-5.2","2","1","8pzu8v5pxltwot7","","908","","<p>Press the button below when you are ready to continue.</p>","0","","","","","","","","","","","","","","","","","","","","","","","","","","","","","","","","","","","","","","","","","","",""
"audio-keyboard-response","184","593541","0.0-5.0-1.0-0.3","2","1","8pzu8v5pxltwot7","","null","","sounds/sentences/left/14_05_cfSWS.wav","","null","","","","","","","","","","","","","","","","","","","","","","","","","","","","","","","","","","","","","","","","","",""
"sentence-resp","185","606967","0.0-5.0-1.0-1.3","2","1","8pzu8v5pxltwot7","","13425","","","","","","","SWS-SENT-RESPONSE","","","{""Q0"":""I only look in the eyes of the sweet girl""}","The glow deepened in the eyes of the sweet girl.","glow,deepened,eyes,sweet,girl","I ONLY LOOK IN THE EYES OF THE SWEET GIRL","0","0","1","1","1","3","0.6","","","","","","","","","","","","","","","","","","","","","","","","","",""
"html-keyboard-response","186","608229","0.0-5.0-1.0-2.3","2","1","8pzu8v5pxltwot7","","null","","","","null","","","","","","","","","","","","","","","","","","","","","","","","","","","","","","","","","","","","","","","","","",""
"audio-keyboard-response","187","610722","0.0-5.0-1.0-3.3","2","1","8pzu8v5pxltwot7","","null","","sounds/sentences/left/14_05_cfSWS.wav","","null","","","","","","","","","","","","","","","","","","","","","","","","","","","","","","","","","","","","","","","","","",""
"html-keyboard-response","188","611741","0.0-5.0-1.0-4.3","2","1","8pzu8v5pxltwot7","","null","","","","null","","","","","","","","","","","","","","","","","","","","","","","","","","","","","","","","","","","","","","","","","",""
"html-button-response","189","613263","0.0-5.0-1.0-5.3","2","1","8pzu8v5pxltwot7","","1017","","<p>Press the button below when you are ready to continue.</p>","0","","","","","","","","","","","","","","","","","","","","","","","","","","","","","","","","","","","","","","","","","","",""
"audio-keyboard-response","190","616172","0.0-5.0-1.0-0.4","2","1","8pzu8v5pxltwot7","","null","","sounds/sentences/right/14_07_cfSWS.wav","","null","","","","","","","","","","","","","","","","","","","","","","","","","","","","","","","","","","","","","","","","","",""
"sentence-resp","191","629465","0.0-5.0-1.0-1.4","2","1","8pzu8v5pxltwot7","","13292","","","","","","","SWS-SENT-RESPONSE","","","{""Q0"":""write a fond joke to the friends you cherish""}","Write a fond note to the friend you cherish.","write,fond,note,friend,cherish","WRITE A FOND JOKE TO THE FRIENDS YOU CHERISH","1","1","0","0","1","3","0.6","","","","","","","","","","","","","","","","","","","","","","","","","",""
"html-keyboard-response","192","630731","0.0-5.0-1.0-2.4","2","1","8pzu8v5pxltwot7","","null","","","","null","","","","","","","","","","","","","","","","","","","","","","","","","","","","","","","","","","","","","","","","","",""
"audio-keyboard-response","193","633131","0.0-5.0-1.0-3.4","2","1","8pzu8v5pxltwot7","","null","","sounds/sentences/right/14_07_cfSWS.wav","","null","","","","","","","","","","","","","","","","","","","","","","","","","","","","","","","","","","","","","","","","","",""
"html-keyboard-response","194","634151","0.0-5.0-1.0-4.4","2","1","8pzu8v5pxltwot7","","null","","","","null","","","","","","","","","","","","","","","","","","","","","","","","","","","","","","","","","","","","","","","","","",""
"html-button-response","195","636965","0.0-5.0-1.0-5.4","2","1","8pzu8v5pxltwot7","","2295","","<p>Press the button below when you are ready to continue.</p>","0","","","","","","","","","","","","","","","","","","","","","","","","","","","","","","","","","","","","","","","","","","",""
"audio-keyboard-response","196","639742","0.0-5.0-1.0-0.5","2","1","8pzu8v5pxltwot7","","null","","sounds/sentences/right/14_08_cfSWS.wav","","null","","","","","","","","","","","","","","","","","","","","","","","","","","","","","","","","","","","","","","","","","",""
"sentence-resp","197","652903","0.0-5.0-1.0-1.5","2","1","8pzu8v5pxltwot7","","13160","","","","","","","SWS-SENT-RESPONSE","","","{""Q0"":""soap and washing are the free to new meds""}","Clothes and lodging are free to new men.","clothes,lodging,free,new,men","SOAP AND WASHING ARE THE FREE TO NEW MEDS","0","0","1","1","0","2","0.4","","","","","","","","","","","","","","","","","","","","","","","","","",""
"html-keyboard-response","198","654170","0.0-5.0-1.0-2.5","2","1","8pzu8v5pxltwot7","","null","","","","null","","","","","","","","","","","","","","","","","","","","","","","","","","","","","","","","","","","","","","","","","",""
"audio-keyboard-response","199","656432","0.0-5.0-1.0-3.5","2","1","8pzu8v5pxltwot7","","null","","sounds/sentences/right/14_08_cfSWS.wav","","null","","","","","","","","","","","","","","","","","","","","","","","","","","","","","","","","","","","","","","","","","",""
"html-keyboard-response","200","657450","0.0-5.0-1.0-4.5","2","1","8pzu8v5pxltwot7","","null","","","","null","","","","","","","","","","","","","","","","","","","","","","","","","","","","","","","","","","","","","","","","","",""
"html-button-response","201","659359","0.0-5.0-1.0-5.5","2","1","8pzu8v5pxltwot7","","1389","","<p>Press the button below when you are ready to continue.</p>","0","","","","","","","","","","","","","","","","","","","","","","","","","","","","","","","","","","","","","","","","","","",""
"audio-keyboard-response","202","662192","0.0-5.0-1.0-0.6","2","1","8pzu8v5pxltwot7","","null","","sounds/sentences/left/14_02_cfSWS.wav","","null","","","","","","","","","","","","","","","","","","","","","","","","","","","","","","","","","","","","","","","","","",""
"sentence-resp","203","674631","0.0-5.0-1.0-1.6","2","1","8pzu8v5pxltwot7","","12438","","","","","","","SWS-SENT-RESPONSE","","","{""Q0"":""he said the same phrase 30 times""}","He said the same phrase thirty times.","said,same,phrase,thirty,times","HE SAID THE SAME PHRASE 30 TIMES","1","1","1","0","1","4","0.8","","","","","","","","","","","","","","","","","","","","","","","","","",""
"html-keyboard-response","204","675910","0.0-5.0-1.0-2.6","2","1","8pzu8v5pxltwot7","","null","","","","null","","","","","","","","","","","","","","","","","","","","","","","","","","","","","","","","","","","","","","","","","",""
"audio-keyboard-response","205","678233","0.0-5.0-1.0-3.6","2","1","8pzu8v5pxltwot7","","null","","sounds/sentences/left/14_02_cfSWS.wav","","null","","","","","","","","","","","","","","","","","","","","","","","","","","","","","","","","","","","","","","","","","",""
"html-keyboard-response","206","679251","0.0-5.0-1.0-4.6","2","1","8pzu8v5pxltwot7","","null","","","","null","","","","","","","","","","","","","","","","","","","","","","","","","","","","","","","","","","","","","","","","","",""
"html-button-response","207","680975","0.0-5.0-1.0-5.6","2","1","8pzu8v5pxltwot7","","1204","","<p>Press the button below when you are ready to continue.</p>","0","","","","","","","","","","","","","","","","","","","","","","","","","","","","","","","","","","","","","","","","","","",""
"audio-keyboard-response","208","683562","0.0-5.0-1.0-0.7","2","1","8pzu8v5pxltwot7","","null","","sounds/sentences/left/14_04_cfSWS.wav","","null","","","","","","","","","","","","","","","","","","","","","","","","","","","","","","","","","","","","","","","","","",""
"sentence-resp","209","697495","0.0-5.0-1.0-1.7","2","1","8pzu8v5pxltwot7","","13932","","","","","","","SWS-SENT-RESPONSE","","","{""Q0"":""two plus seven is less than ten""}","Two plus seven is less than ten.","two,plus,seven,less,ten","TWO PLUS SEVEN IS LESS THAN TEN","1","1","1","1","1","5","1","","","","","","","","","","","","","","","","","","","","","","","","","",""
"html-keyboard-response","210","698760","0.0-5.0-1.0-2.7","2","1","8pzu8v5pxltwot7","","null","","","","null","","","","","","","","","","","","","","","","","","","","","","","","","","","","","","","","","","","","","","","","","",""
"audio-keyboard-response","211","700822","0.0-5.0-1.0-3.7","2","1","8pzu8v5pxltwot7","","null","","sounds/sentences/left/14_04_cfSWS.wav","","null","","","","","","","","","","","","","","","","","","","","","","","","","","","","","","","","","","","","","","","","","",""
"html-keyboard-response","212","701840","0.0-5.0-1.0-4.7","2","1","8pzu8v5pxltwot7","","null","","","","null","","","","","","","","","","","","","","","","","","","","","","","","","","","","","","","","","","","","","","","","","",""
"html-button-response","213","703699","0.0-5.0-1.0-5.7","2","1","8pzu8v5pxltwot7","","1358","","<p>Press the button below when you are ready to continue.</p>","0","","","","","","","","","","","","","","","","","","","","","","","","","","","","","","","","","","","","","","","","","","",""
"audio-keyboard-response","214","706462","0.0-5.0-1.0-0.8","2","1","8pzu8v5pxltwot7","","null","","sounds/sentences/right/14_06_cfSWS.wav","","null","","","","","","","","","","","","","","","","","","","","","","","","","","","","","","","","","","","","","","","","","",""
"sentence-resp","215","717271","0.0-5.0-1.0-1.8","2","1","8pzu8v5pxltwot7","","10809","","","","","","","SWS-SENT-RESPONSE","","","{""Q0"":""bring your problems to the wise chief""}","Bring your problems to the wise chief.","bring,your,problems,wise,chief","BRING YOUR PROBLEMS TO THE WISE CHIEF","1","1","1","1","1","5","1","","","","","","","","","","","","","","","","","","","","","","","","","",""
"html-keyboard-response","216","718540","0.0-5.0-1.0-2.8","2","1","8pzu8v5pxltwot7","","null","","","","null","","","","","","","","","","","","","","","","","","","","","","","","","","","","","","","","","","","","","","","","","",""
"audio-keyboard-response","217","720792","0.0-5.0-1.0-3.8","2","1","8pzu8v5pxltwot7","","null","","sounds/sentences/right/14_06_cfSWS.wav","","null","","","","","","","","","","","","","","","","","","","","","","","","","","","","","","","","","","","","","","","","","",""
"html-keyboard-response","218","721795","0.0-5.0-1.0-4.8","2","1","8pzu8v5pxltwot7","","null","","","","null","","","","","","","","","","","","","","","","","","","","","","","","","","","","","","","","","","","","","","","","","",""
"html-button-response","219","722869","0.0-5.0-1.0-5.8","2","1","8pzu8v5pxltwot7","","568","","<p>Press the button below when you are ready to continue.</p>","0","","","","","","","","","","","","","","","","","","","","","","","","","","","","","","","","","","","","","","","","","","",""
"audio-keyboard-response","220","725472","0.0-5.0-1.0-0.9","2","1","8pzu8v5pxltwot7","","null","","sounds/sentences/left/14_03_cfSWS.wav","","null","","","","","","","","","","","","","","","","","","","","","","","","","","","","","","","","","","","","","","","","","",""
"sentence-resp","221","745562","0.0-5.0-1.0-1.9","2","1","8pzu8v5pxltwot7","","20089","","","","","","","SWS-SENT-RESPONSE","","","{""Q0"":""i thought the tide rose without leaves""}","Pluck the bright rose without leaves.","pluck,bright,rose,without,leaves","I THOUGHT THE TIDE ROSE WITHOUT LEAVES","0","0","1","1","1","3","0.6","","","","","","","","","","","","","","","","","","","","","","","","","",""
"html-keyboard-response","222","746841","0.0-5.0-1.0-2.9","2","1","8pzu8v5pxltwot7","","null","","","","null","","","","","","","","","","","","","","","","","","","","","","","","","","","","","","","","","","","","","","","","","",""
"audio-keyboard-response","223","748932","0.0-5.0-1.0-3.9","2","1","8pzu8v5pxltwot7","","null","","sounds/sentences/left/14_03_cfSWS.wav","","null","","","","","","","","","","","","","","","","","","","","","","","","","","","","","","","","","","","","","","","","","",""
"html-keyboard-response","224","749941","0.0-5.0-1.0-4.9","2","1","8pzu8v5pxltwot7","","null","","","","null","","","","","","","","","","","","","","","","","","","","","","","","","","","","","","","","","","","","","","","","","",""
"html-button-response","225","751785","0.0-5.0-1.0-5.9","2","1","8pzu8v5pxltwot7","","1324","","<p>Press the button below when you are ready to continue.</p>","0","","","","","","","","","","","","","","","","","","","","","","","","","","","","","","","","","","","","","","","","","","",""
"html-keyboard-response","226","778353","0.0-6.0-0.0","2","1","8pzu8v5pxltwot7","","26051","","<p>In this part of the study, you will hear sounds similar to those you just heard.</p><p>Please focus on these sounds, as you may be asked questions about them later.</p><p>Occasionally, the sounds will pause for up to two seconds. When this happens, please press SPACEBAR as quickly as you can.</br>This helps ensure that you are paying attention to the sounds.</p><p>This part of the study will take about 12 minutes to complete, and you will be given the opportunity to take a couple of short breaks every few minutes.</p><p><strong>Press SPACEBAR to begin</strong></p>","","32","","","","","","","","","","","","","","","","","","","","","","","","","","","","","","","","","","","","","","","","","",""
"html-keyboard-response","227","779361","0.0-6.0-1.0-0.0","2","1","8pzu8v5pxltwot7","","null","","<p style=""font-size: 40px;"">+</p>","","null","","","","","","","","","","","","","","","","","","","","","","","","","","","","","","","","","","","","","","","","","",""
"html-keyboard-response","228","964385","0.0-6.0-1.0-1.0","2","1","8pzu8v5pxltwot7","","null","","","","null","","","SL-TRAIN","","","","","","","","","","","","","","0","502","719","sounds/B/TRAIN/SEQ__10.mp3","2","","","","","","","","","","","","","","","","","","","","",""
"html-button-response","229","971150","0.0-6.0-1.0-2.0","2","1","8pzu8v5pxltwot7","","6762","","<p>You may take a short break if you wish.</p>","0","","","","","","","","","","","","","","","","","","","","","","","","","","","","","","","","","","","","","","","","","","",""
"html-keyboard-response","230","972160","0.0-6.0-1.0-3.0","2","1","8pzu8v5pxltwot7","","null","","<p style=""font-size: 40px;"">+</p>","","null","","","","","","","","","","","","","","","","","","","","","","","","","","","","","","","","","","","","","","","","","",""
"html-keyboard-response","231","1157166","0.0-6.0-1.0-4.0","2","1","8pzu8v5pxltwot7","","null","","","","null","","","SL-TRAIN","","","","","","","","","","","","","","0","575","586","sounds/B/TRAIN/SEQ__07.mp3","5","","","","","","","","","","","","","","","","","","","","",""
"html-button-response","232","1160738","0.0-6.0-1.0-5.0","2","1","8pzu8v5pxltwot7","","3572","","<p>You may take a short break if you wish.</p>","0","","","","","","","","","","","","","","","","","","","","","","","","","","","","","","","","","","","","","","","","","","",""
"html-keyboard-response","233","1161750","0.0-6.0-1.0-6.0","2","1","8pzu8v5pxltwot7","","null","","<p style=""font-size: 40px;"">+</p>","","null","","","","","","","","","","","","","","","","","","","","","","","","","","","","","","","","","","","","","","","","","",""
"html-keyboard-response","234","1346756","0.0-6.0-1.0-7.0","2","1","8pzu8v5pxltwot7","","null","","","","null","","","SL-TRAIN","","","","","","","","","","","","","","0","723","473","sounds/B/TRAIN/SEQ__03.mp3","11","","","","","","","","","","","","","","","","","","","","",""
"html-button-response","235","1349488","0.0-6.0-1.0-8.0","2","1","8pzu8v5pxltwot7","","2729","","<p>You may take a short break if you wish.</p>","0","","","","","","","","","","","","","","","","","","","","","","","","","","","","","","","","","","","","","","","","","","",""
"html-keyboard-response","236","1350488","0.0-6.0-1.0-9.0","2","1","8pzu8v5pxltwot7","","null","","<p style=""font-size: 40px;"">+</p>","","null","","","","","","","","","","","","","","","","","","","","","","","","","","","","","","","","","","","","","","","","","",""
"html-keyboard-response","237","1535494","0.0-6.0-1.0-10.0","2","1","8pzu8v5pxltwot7","","null","","","","null","","","SL-TRAIN","","","","","","","","","","","","","","0","478","534","sounds/B/TRAIN/SEQ__09.mp3","11","","","","","","","","","","","","","","","","","","","","",""
"html-button-response","238","1538769","0.0-6.0-1.0-11.0","2","1","8pzu8v5pxltwot7","","3275","","<p>You may take a short break if you wish.</p>","0","","","","","","","","","","","","","","","","","","","","","","","","","","","","","","","","","","","","","","","","","","",""
"html-button-response","239","1547159","0.0-7.0-0.0","2","1","8pzu8v5pxltwot7","","8390","","<p>Welcome to the second part of the study. This is a <u>familiarity task</u>.</p><p>You will now hear short sounds and will be asked to rate how familiar they sound to you <b>based on what you heard in the previous part of the study</b>.</p><p>You will rate 12 sounds in total.</p>","0","","","","","","","","","","","","","","","","","","","","","","","","","","","","","","","","","","","","","","","","","","",""
"html-keyboard-response","240","1548169","0.0-7.0-1.0-0.0","2","1","8pzu8v5pxltwot7","","null","","","","null","","","","","","","","","","","","","","","","","","","","","","","","","","","","","","","","","","","","","","","","","",""
"audio-keyboard-response","241","1549120","0.0-7.0-1.0-1.0","2","1","8pzu8v5pxltwot7","","null","","sounds/B/FAM/W003.mp3","","null","","","","","","","","","","","","","","","","","","","","","","","","","","","","","","","","","","","","","","","","","",""
"html-keyboard-response","242","1554943","0.0-7.0-1.0-2.0","2","1","8pzu8v5pxltwot7","","5313","","<p>How familiar did this sound to you?</p><p>1&nbsp;&nbsp;&nbsp;&nbsp;&nbsp;&nbsp;&nbsp;&nbsp;&nbsp;&nbsp;&nbsp;&nbsp;&nbsp;&nbsp;&nbsp;&nbsp;&nbsp;&nbsp;&nbsp;2&nbsp;&nbsp;&nbsp;&nbsp;&nbsp;&nbsp;&nbsp;&nbsp;&nbsp;&nbsp;&nbsp;&nbsp;&nbsp;&nbsp;&nbsp;&nbsp;&nbsp;&nbsp;&nbsp;3&nbsp;&nbsp;&nbsp;&nbsp;&nbsp;&nbsp;&nbsp;&nbsp;&nbsp;&nbsp;&nbsp;&nbsp;&nbsp;&nbsp;&nbsp;&nbsp;&nbsp;&nbsp;&nbsp;4</p><p style=""font-size:14px"">Not at all familiar&nbsp;&nbsp;&nbsp;&nbsp;A little familiar&nbsp;&nbsp;&nbsp;Moderately familiar&nbsp;&nbsp;&nbsp;Extremely familiar</p><p>(press the corresponding number on your keyboard)</p>","","52","","","FAM-RESPONSE","","","","","","","","","","","","","","","","","","","sounds/B/FAM/W003.mp3","word","","","","","","","","","","","","","","","","","","",""
"html-keyboard-response","243","1556952","0.0-7.0-1.0-0.1","2","1","8pzu8v5pxltwot7","","null","","","","null","","","","","","","","","","","","","","","","","","","","","","","","","","","","","","","","","","","","","","","","","",""
"audio-keyboard-response","244","1557910","0.0-7.0-1.0-1.1","2","1","8pzu8v5pxltwot7","","null","","sounds/B/FAM/P004.mp3","","null","","","","","","","","","","","","","","","","","","","","","","","","","","","","","","","","","","","","","","","","","",""
"html-keyboard-response","245","1558917","0.0-7.0-1.0-2.1","2","1","8pzu8v5pxltwot7","","489","","<p>How familiar did this sound to you?</p><p>1&nbsp;&nbsp;&nbsp;&nbsp;&nbsp;&nbsp;&nbsp;&nbsp;&nbsp;&nbsp;&nbsp;&nbsp;&nbsp;&nbsp;&nbsp;&nbsp;&nbsp;&nbsp;&nbsp;2&nbsp;&nbsp;&nbsp;&nbsp;&nbsp;&nbsp;&nbsp;&nbsp;&nbsp;&nbsp;&nbsp;&nbsp;&nbsp;&nbsp;&nbsp;&nbsp;&nbsp;&nbsp;&nbsp;3&nbsp;&nbsp;&nbsp;&nbsp;&nbsp;&nbsp;&nbsp;&nbsp;&nbsp;&nbsp;&nbsp;&nbsp;&nbsp;&nbsp;&nbsp;&nbsp;&nbsp;&nbsp;&nbsp;4</p><p style=""font-size:14px"">Not at all familiar&nbsp;&nbsp;&nbsp;&nbsp;A little familiar&nbsp;&nbsp;&nbsp;Moderately familiar&nbsp;&nbsp;&nbsp;Extremely familiar</p><p>(press the corresponding number on your keyboard)</p>","","52","","","FAM-RESPONSE","","","","","","","","","","","","","","","","","","","sounds/B/FAM/P004.mp3","partword","","","","","","","","","","","","","","","","","","",""
"html-keyboard-response","246","1560929","0.0-7.0-1.0-0.2","2","1","8pzu8v5pxltwot7","","null","","","","null","","","","","","","","","","","","","","","","","","","","","","","","","","","","","","","","","","","","","","","","","",""
"audio-keyboard-response","247","1561881","0.0-7.0-1.0-1.2","2","1","8pzu8v5pxltwot7","","null","","sounds/B/FAM/W001.mp3","","null","","","","","","","","","","","","","","","","","","","","","","","","","","","","","","","","","","","","","","","","","",""
"html-keyboard-response","248","1562766","0.0-7.0-1.0-2.2","2","1","8pzu8v5pxltwot7","","376","","<p>How familiar did this sound to you?</p><p>1&nbsp;&nbsp;&nbsp;&nbsp;&nbsp;&nbsp;&nbsp;&nbsp;&nbsp;&nbsp;&nbsp;&nbsp;&nbsp;&nbsp;&nbsp;&nbsp;&nbsp;&nbsp;&nbsp;2&nbsp;&nbsp;&nbsp;&nbsp;&nbsp;&nbsp;&nbsp;&nbsp;&nbsp;&nbsp;&nbsp;&nbsp;&nbsp;&nbsp;&nbsp;&nbsp;&nbsp;&nbsp;&nbsp;3&nbsp;&nbsp;&nbsp;&nbsp;&nbsp;&nbsp;&nbsp;&nbsp;&nbsp;&nbsp;&nbsp;&nbsp;&nbsp;&nbsp;&nbsp;&nbsp;&nbsp;&nbsp;&nbsp;4</p><p style=""font-size:14px"">Not at all familiar&nbsp;&nbsp;&nbsp;&nbsp;A little familiar&nbsp;&nbsp;&nbsp;Moderately familiar&nbsp;&nbsp;&nbsp;Extremely familiar</p><p>(press the corresponding number on your keyboard)</p>","","52","","","FAM-RESPONSE","","","","","","","","","","","","","","","","","","","sounds/B/FAM/W001.mp3","word","","","","","","","","","","","","","","","","","","",""
"html-keyboard-response","249","1564789","0.0-7.0-1.0-0.3","2","1","8pzu8v5pxltwot7","","null","","","","null","","","","","","","","","","","","","","","","","","","","","","","","","","","","","","","","","","","","","","","","","",""
"audio-keyboard-response","250","1565750","0.0-7.0-1.0-1.3","2","1","8pzu8v5pxltwot7","","null","","sounds/B/FAM/N004.mp3","","null","","","","","","","","","","","","","","","","","","","","","","","","","","","","","","","","","","","","","","","","","",""
"html-keyboard-response","251","1566791","0.0-7.0-1.0-2.3","2","1","8pzu8v5pxltwot7","","521","","<p>How familiar did this sound to you?</p><p>1&nbsp;&nbsp;&nbsp;&nbsp;&nbsp;&nbsp;&nbsp;&nbsp;&nbsp;&nbsp;&nbsp;&nbsp;&nbsp;&nbsp;&nbsp;&nbsp;&nbsp;&nbsp;&nbsp;2&nbsp;&nbsp;&nbsp;&nbsp;&nbsp;&nbsp;&nbsp;&nbsp;&nbsp;&nbsp;&nbsp;&nbsp;&nbsp;&nbsp;&nbsp;&nbsp;&nbsp;&nbsp;&nbsp;3&nbsp;&nbsp;&nbsp;&nbsp;&nbsp;&nbsp;&nbsp;&nbsp;&nbsp;&nbsp;&nbsp;&nbsp;&nbsp;&nbsp;&nbsp;&nbsp;&nbsp;&nbsp;&nbsp;4</p><p style=""font-size:14px"">Not at all familiar&nbsp;&nbsp;&nbsp;&nbsp;A little familiar&nbsp;&nbsp;&nbsp;Moderately familiar&nbsp;&nbsp;&nbsp;Extremely familiar</p><p>(press the corresponding number on your keyboard)</p>","","51","","","FAM-RESPONSE","","","","","","","","","","","","","","","","","","","sounds/B/FAM/N004.mp3","nonword","","","","","","","","","","","","","","","","","","",""
"html-keyboard-response","252","1568809","0.0-7.0-1.0-0.4","2","1","8pzu8v5pxltwot7","","null","","","","null","","","","","","","","","","","","","","","","","","","","","","","","","","","","","","","","","","","","","","","","","",""
"audio-keyboard-response","253","1569760","0.0-7.0-1.0-1.4","2","1","8pzu8v5pxltwot7","","null","","sounds/B/FAM/N002.mp3","","null","","","","","","","","","","","","","","","","","","","","","","","","","","","","","","","","","","","","","","","","","",""
"html-keyboard-response","254","1571031","0.0-7.0-1.0-2.4","2","1","8pzu8v5pxltwot7","","763","","<p>How familiar did this sound to you?</p><p>1&nbsp;&nbsp;&nbsp;&nbsp;&nbsp;&nbsp;&nbsp;&nbsp;&nbsp;&nbsp;&nbsp;&nbsp;&nbsp;&nbsp;&nbsp;&nbsp;&nbsp;&nbsp;&nbsp;2&nbsp;&nbsp;&nbsp;&nbsp;&nbsp;&nbsp;&nbsp;&nbsp;&nbsp;&nbsp;&nbsp;&nbsp;&nbsp;&nbsp;&nbsp;&nbsp;&nbsp;&nbsp;&nbsp;3&nbsp;&nbsp;&nbsp;&nbsp;&nbsp;&nbsp;&nbsp;&nbsp;&nbsp;&nbsp;&nbsp;&nbsp;&nbsp;&nbsp;&nbsp;&nbsp;&nbsp;&nbsp;&nbsp;4</p><p style=""font-size:14px"">Not at all familiar&nbsp;&nbsp;&nbsp;&nbsp;A little familiar&nbsp;&nbsp;&nbsp;Moderately familiar&nbsp;&nbsp;&nbsp;Extremely familiar</p><p>(press the corresponding number on your keyboard)</p>","","51","","","FAM-RESPONSE","","","","","","","","","","","","","","","","","","","sounds/B/FAM/N002.mp3","nonword","","","","","","","","","","","","","","","","","","",""
"html-keyboard-response","255","1573069","0.0-7.0-1.0-0.5","2","1","8pzu8v5pxltwot7","","null","","","","null","","","","","","","","","","","","","","","","","","","","","","","","","","","","","","","","","","","","","","","","","",""
"audio-keyboard-response","256","1574010","0.0-7.0-1.0-1.5","2","1","8pzu8v5pxltwot7","","null","","sounds/B/FAM/W002.mp3","","null","","","","","","","","","","","","","","","","","","","","","","","","","","","","","","","","","","","","","","","","","",""
"html-keyboard-response","257","1574823","0.0-7.0-1.0-2.5","2","1","8pzu8v5pxltwot7","","294","","<p>How familiar did this sound to you?</p><p>1&nbsp;&nbsp;&nbsp;&nbsp;&nbsp;&nbsp;&nbsp;&nbsp;&nbsp;&nbsp;&nbsp;&nbsp;&nbsp;&nbsp;&nbsp;&nbsp;&nbsp;&nbsp;&nbsp;2&nbsp;&nbsp;&nbsp;&nbsp;&nbsp;&nbsp;&nbsp;&nbsp;&nbsp;&nbsp;&nbsp;&nbsp;&nbsp;&nbsp;&nbsp;&nbsp;&nbsp;&nbsp;&nbsp;3&nbsp;&nbsp;&nbsp;&nbsp;&nbsp;&nbsp;&nbsp;&nbsp;&nbsp;&nbsp;&nbsp;&nbsp;&nbsp;&nbsp;&nbsp;&nbsp;&nbsp;&nbsp;&nbsp;4</p><p style=""font-size:14px"">Not at all familiar&nbsp;&nbsp;&nbsp;&nbsp;A little familiar&nbsp;&nbsp;&nbsp;Moderately familiar&nbsp;&nbsp;&nbsp;Extremely familiar</p><p>(press the corresponding number on your keyboard)</p>","","52","","","FAM-RESPONSE","","","","","","","","","","","","","","","","","","","sounds/B/FAM/W002.mp3","word","","","","","","","","","","","","","","","","","","",""
"html-keyboard-response","258","1576849","0.0-7.0-1.0-0.6","2","1","8pzu8v5pxltwot7","","null","","","","null","","","","","","","","","","","","","","","","","","","","","","","","","","","","","","","","","","","","","","","","","",""
"audio-keyboard-response","259","1577800","0.0-7.0-1.0-1.6","2","1","8pzu8v5pxltwot7","","null","","sounds/B/FAM/P001.mp3","","null","","","","","","","","","","","","","","","","","","","","","","","","","","","","","","","","","","","","","","","","","",""
"html-keyboard-response","260","1578591","0.0-7.0-1.0-2.6","2","1","8pzu8v5pxltwot7","","282","","<p>How familiar did this sound to you?</p><p>1&nbsp;&nbsp;&nbsp;&nbsp;&nbsp;&nbsp;&nbsp;&nbsp;&nbsp;&nbsp;&nbsp;&nbsp;&nbsp;&nbsp;&nbsp;&nbsp;&nbsp;&nbsp;&nbsp;2&nbsp;&nbsp;&nbsp;&nbsp;&nbsp;&nbsp;&nbsp;&nbsp;&nbsp;&nbsp;&nbsp;&nbsp;&nbsp;&nbsp;&nbsp;&nbsp;&nbsp;&nbsp;&nbsp;3&nbsp;&nbsp;&nbsp;&nbsp;&nbsp;&nbsp;&nbsp;&nbsp;&nbsp;&nbsp;&nbsp;&nbsp;&nbsp;&nbsp;&nbsp;&nbsp;&nbsp;&nbsp;&nbsp;4</p><p style=""font-size:14px"">Not at all familiar&nbsp;&nbsp;&nbsp;&nbsp;A little familiar&nbsp;&nbsp;&nbsp;Moderately familiar&nbsp;&nbsp;&nbsp;Extremely familiar</p><p>(press the corresponding number on your keyboard)</p>","","52","","","FAM-RESPONSE","","","","","","","","","","","","","","","","","","","sounds/B/FAM/P001.mp3","partword","","","","","","","","","","","","","","","","","","",""
"html-keyboard-response","261","1580629","0.0-7.0-1.0-0.7","2","1","8pzu8v5pxltwot7","","null","","","","null","","","","","","","","","","","","","","","","","","","","","","","","","","","","","","","","","","","","","","","","","",""
"audio-keyboard-response","262","1581590","0.0-7.0-1.0-1.7","2","1","8pzu8v5pxltwot7","","null","","sounds/B/FAM/N003.mp3","","null","","","","","","","","","","","","","","","","","","","","","","","","","","","","","","","","","","","","","","","","","",""
"html-keyboard-response","263","1582615","0.0-7.0-1.0-2.7","2","1","8pzu8v5pxltwot7","","505","","<p>How familiar did this sound to you?</p><p>1&nbsp;&nbsp;&nbsp;&nbsp;&nbsp;&nbsp;&nbsp;&nbsp;&nbsp;&nbsp;&nbsp;&nbsp;&nbsp;&nbsp;&nbsp;&nbsp;&nbsp;&nbsp;&nbsp;2&nbsp;&nbsp;&nbsp;&nbsp;&nbsp;&nbsp;&nbsp;&nbsp;&nbsp;&nbsp;&nbsp;&nbsp;&nbsp;&nbsp;&nbsp;&nbsp;&nbsp;&nbsp;&nbsp;3&nbsp;&nbsp;&nbsp;&nbsp;&nbsp;&nbsp;&nbsp;&nbsp;&nbsp;&nbsp;&nbsp;&nbsp;&nbsp;&nbsp;&nbsp;&nbsp;&nbsp;&nbsp;&nbsp;4</p><p style=""font-size:14px"">Not at all familiar&nbsp;&nbsp;&nbsp;&nbsp;A little familiar&nbsp;&nbsp;&nbsp;Moderately familiar&nbsp;&nbsp;&nbsp;Extremely familiar</p><p>(press the corresponding number on your keyboard)</p>","","50","","","FAM-RESPONSE","","","","","","","","","","","","","","","","","","","sounds/B/FAM/N003.mp3","nonword","","","","","","","","","","","","","","","","","","",""
"html-keyboard-response","264","1584649","0.0-7.0-1.0-0.8","2","1","8pzu8v5pxltwot7","","null","","","","null","","","","","","","","","","","","","","","","","","","","","","","","","","","","","","","","","","","","","","","","","",""
"audio-keyboard-response","265","1585601","0.0-7.0-1.0-1.8","2","1","8pzu8v5pxltwot7","","null","","sounds/B/FAM/P002.mp3","","null","","","","","","","","","","","","","","","","","","","","","","","","","","","","","","","","","","","","","","","","","",""
"html-keyboard-response","266","1586319","0.0-7.0-1.0-2.8","2","1","8pzu8v5pxltwot7","","199","","<p>How familiar did this sound to you?</p><p>1&nbsp;&nbsp;&nbsp;&nbsp;&nbsp;&nbsp;&nbsp;&nbsp;&nbsp;&nbsp;&nbsp;&nbsp;&nbsp;&nbsp;&nbsp;&nbsp;&nbsp;&nbsp;&nbsp;2&nbsp;&nbsp;&nbsp;&nbsp;&nbsp;&nbsp;&nbsp;&nbsp;&nbsp;&nbsp;&nbsp;&nbsp;&nbsp;&nbsp;&nbsp;&nbsp;&nbsp;&nbsp;&nbsp;3&nbsp;&nbsp;&nbsp;&nbsp;&nbsp;&nbsp;&nbsp;&nbsp;&nbsp;&nbsp;&nbsp;&nbsp;&nbsp;&nbsp;&nbsp;&nbsp;&nbsp;&nbsp;&nbsp;4</p><p style=""font-size:14px"">Not at all familiar&nbsp;&nbsp;&nbsp;&nbsp;A little familiar&nbsp;&nbsp;&nbsp;Moderately familiar&nbsp;&nbsp;&nbsp;Extremely familiar</p><p>(press the corresponding number on your keyboard)</p>","","52","","","FAM-RESPONSE","","","","","","","","","","","","","","","","","","","sounds/B/FAM/P002.mp3","partword","","","","","","","","","","","","","","","","","","",""
"html-keyboard-response","267","1588359","0.0-7.0-1.0-0.9","2","1","8pzu8v5pxltwot7","","null","","","","null","","","","","","","","","","","","","","","","","","","","","","","","","","","","","","","","","","","","","","","","","",""
"audio-keyboard-response","268","1589319","0.0-7.0-1.0-1.9","2","1","8pzu8v5pxltwot7","","null","","sounds/B/FAM/N001.mp3","","null","","","","","","","","","","","","","","","","","","","","","","","","","","","","","","","","","","","","","","","","","",""
"html-keyboard-response","269","1590191","0.0-7.0-1.0-2.9","2","1","8pzu8v5pxltwot7","","352","","<p>How familiar did this sound to you?</p><p>1&nbsp;&nbsp;&nbsp;&nbsp;&nbsp;&nbsp;&nbsp;&nbsp;&nbsp;&nbsp;&nbsp;&nbsp;&nbsp;&nbsp;&nbsp;&nbsp;&nbsp;&nbsp;&nbsp;2&nbsp;&nbsp;&nbsp;&nbsp;&nbsp;&nbsp;&nbsp;&nbsp;&nbsp;&nbsp;&nbsp;&nbsp;&nbsp;&nbsp;&nbsp;&nbsp;&nbsp;&nbsp;&nbsp;3&nbsp;&nbsp;&nbsp;&nbsp;&nbsp;&nbsp;&nbsp;&nbsp;&nbsp;&nbsp;&nbsp;&nbsp;&nbsp;&nbsp;&nbsp;&nbsp;&nbsp;&nbsp;&nbsp;4</p><p style=""font-size:14px"">Not at all familiar&nbsp;&nbsp;&nbsp;&nbsp;A little familiar&nbsp;&nbsp;&nbsp;Moderately familiar&nbsp;&nbsp;&nbsp;Extremely familiar</p><p>(press the corresponding number on your keyboard)</p>","","50","","","FAM-RESPONSE","","","","","","","","","","","","","","","","","","","sounds/B/FAM/N001.mp3","nonword","","","","","","","","","","","","","","","","","","",""
"html-keyboard-response","270","1592218","0.0-7.0-1.0-0.10","2","1","8pzu8v5pxltwot7","","null","","","","null","","","","","","","","","","","","","","","","","","","","","","","","","","","","","","","","","","","","","","","","","",""
"audio-keyboard-response","271","1593159","0.0-7.0-1.0-1.10","2","1","8pzu8v5pxltwot7","","null","","sounds/B/FAM/P003.mp3","","null","","","","","","","","","","","","","","","","","","","","","","","","","","","","","","","","","","","","","","","","","",""
"html-keyboard-response","272","1593703","0.0-7.0-1.0-2.10","2","1","8pzu8v5pxltwot7","","24","","<p>How familiar did this sound to you?</p><p>1&nbsp;&nbsp;&nbsp;&nbsp;&nbsp;&nbsp;&nbsp;&nbsp;&nbsp;&nbsp;&nbsp;&nbsp;&nbsp;&nbsp;&nbsp;&nbsp;&nbsp;&nbsp;&nbsp;2&nbsp;&nbsp;&nbsp;&nbsp;&nbsp;&nbsp;&nbsp;&nbsp;&nbsp;&nbsp;&nbsp;&nbsp;&nbsp;&nbsp;&nbsp;&nbsp;&nbsp;&nbsp;&nbsp;3&nbsp;&nbsp;&nbsp;&nbsp;&nbsp;&nbsp;&nbsp;&nbsp;&nbsp;&nbsp;&nbsp;&nbsp;&nbsp;&nbsp;&nbsp;&nbsp;&nbsp;&nbsp;&nbsp;4</p><p style=""font-size:14px"">Not at all familiar&nbsp;&nbsp;&nbsp;&nbsp;A little familiar&nbsp;&nbsp;&nbsp;Moderately familiar&nbsp;&nbsp;&nbsp;Extremely familiar</p><p>(press the corresponding number on your keyboard)</p>","","52","","","FAM-RESPONSE","","","","","","","","","","","","","","","","","","","sounds/B/FAM/P003.mp3","partword","","","","","","","","","","","","","","","","","","",""
"html-keyboard-response","273","1595719","0.0-7.0-1.0-0.11","2","1","8pzu8v5pxltwot7","","null","","","","null","","","","","","","","","","","","","","","","","","","","","","","","","","","","","","","","","","","","","","","","","",""
"audio-keyboard-response","274","1596669","0.0-7.0-1.0-1.11","2","1","8pzu8v5pxltwot7","","null","","sounds/B/FAM/W004.mp3","","null","","","","","","","","","","","","","","","","","","","","","","","","","","","","","","","","","","","","","","","","","",""
"html-keyboard-response","275","1597766","0.0-7.0-1.0-2.11","2","1","8pzu8v5pxltwot7","","587","","<p>How familiar did this sound to you?</p><p>1&nbsp;&nbsp;&nbsp;&nbsp;&nbsp;&nbsp;&nbsp;&nbsp;&nbsp;&nbsp;&nbsp;&nbsp;&nbsp;&nbsp;&nbsp;&nbsp;&nbsp;&nbsp;&nbsp;2&nbsp;&nbsp;&nbsp;&nbsp;&nbsp;&nbsp;&nbsp;&nbsp;&nbsp;&nbsp;&nbsp;&nbsp;&nbsp;&nbsp;&nbsp;&nbsp;&nbsp;&nbsp;&nbsp;3&nbsp;&nbsp;&nbsp;&nbsp;&nbsp;&nbsp;&nbsp;&nbsp;&nbsp;&nbsp;&nbsp;&nbsp;&nbsp;&nbsp;&nbsp;&nbsp;&nbsp;&nbsp;&nbsp;4</p><p style=""font-size:14px"">Not at all familiar&nbsp;&nbsp;&nbsp;&nbsp;A little familiar&nbsp;&nbsp;&nbsp;Moderately familiar&nbsp;&nbsp;&nbsp;Extremely familiar</p><p>(press the corresponding number on your keyboard)</p>","","52","","","FAM-RESPONSE","","","","","","","","","","","","","","","","","","","sounds/B/FAM/W004.mp3","word","","","","","","","","","","","","","","","","","","",""
"html-button-response","276","1610121","0.0-8.0-0.0","2","1","8pzu8v5pxltwot7","","11342","","<p>You will now listen to longer sound sequences.</p><p>Each sound sequence will last about 16 seconds.</p><p>On each trial, you will be given a <u>TARGET SOUND</u>. Your task is to listen very carefully for this sound.</p><p>Every time you hear the <u>TARGET SOUND</u>, you will press the <b>SPACEBAR</b> as quickly and accurately as you can.</p>","0","","","","","","","","","","","","","","","","","","","","","","","","","","","","","","","","","","","","","","","","","","",""
"html-button-response","277","1621923","0.0-8.0-1.0","2","1","8pzu8v5pxltwot7","","11544","","<p>It is very important that you make your responses as quickly and accurately as possible.</p><p>To help you make your responses, you will be able to listen to the <u>TARGET SOUND</u> at the beginning of each trial.</p><p>There will be 36 total trials.</p><p><b>Note: This is meant to be a difficult task. We simply want you to try your best.</p>","0","","","","","","","","","","","","","","","","","","","","","","","","","","","","","","","","","","","","","","","","","","",""
"html-button-response","278","1623789","0.0-8.0-2.0-0.0","2","1","8pzu8v5pxltwot7","","1608","","<p>Trial 1 of 36</p>","0","","","","","","","","","","","","","","","","","","","","","","","","","TI","sounds/syllables/ti_SWS.wav","4500,6300,9000,11700","1","","","","","","","","","","","","","","",""
"html-keyboard-response","279","1628319","0.0-8.0-2.0-1.0","2","1","8pzu8v5pxltwot7","","4529","","","","80","","","","","","","","","","","","","","","","","","","","","","","","TI","","4500,6300,9000,11700","1","","","","","","","","","","","","","","",""
"audio-keyboard-response","280","1628630","0.0-8.0-2.0-2.0-0.0","2","1","8pzu8v5pxltwot7","","null","","sounds/syllables/ti_SWS.wav","","null","","","","","","","","","","","","","","","","","","","","","","","","","","","","","","","","","","","","","","","","","",""
"html-keyboard-response","281","1631550","0.0-8.0-2.0-2.0-1.0","2","1","8pzu8v5pxltwot7","","2919","","<p>To replay the <u>TARGET SOUND</u>, press P.</p> When you are ready to begin, press SPACEBAR.","","80","","","","","","","","","","","","","","","","","","","","","","","","","","","","","","","","","","","","","","","","","",""
"audio-keyboard-response","282","1632370","0.0-8.0-2.0-2.1-0.1","2","1","8pzu8v5pxltwot7","","null","","sounds/syllables/ti_SWS.wav","","null","","","","","","","","","","","","","","","","","","","","","","","","","","","","","","","","","","","","","","","","","",""
"html-keyboard-response","283","1633983","0.0-8.0-2.0-2.1-1.1","2","1","8pzu8v5pxltwot7","","1611","","<p>To replay the <u>TARGET SOUND</u>, press P.</p> When you are ready to begin, press SPACEBAR.","","32","","","","","","","","","","","","","","","","","","","","","","","","","","","","","","","","","","","","","","","","","",""
"audio-keyboard-response","284","1648949","0.0-8.0-2.0-3.0","2","1","8pzu8v5pxltwot7","","6131","","sounds/B/TD/TI_02_TD.mp3","","32","","","TD_SUMMARY","","","","","","","","","","","","","","","","","","","","","TI","","4500,6300,9000,11700","1","4500","6300","9000","11700","null","null","524","null","6125_8533_9524_11397","2","","","","",""
"html-button-response","285","1652483","0.0-8.0-2.0-0.1","2","1","8pzu8v5pxltwot7","","3534","","<p>Trial 2 of 36</p>","0","","","","","","","","","","","","","","","","","","","","","","","","","RE","sounds/syllables/re_SWS.wav","1500,3300,7800,13200","3","","","","","","","","","","","","","","",""
"html-keyboard-response","286","1654351","0.0-8.0-2.0-1.1","2","1","8pzu8v5pxltwot7","","1867","","","","80","","","","","","","","","","","","","","","","","","","","","","","","RE","","1500,3300,7800,13200","3","","","","","","","","","","","","","","",""
"audio-keyboard-response","287","1654669","0.0-8.0-2.0-2.2-0.2","2","1","8pzu8v5pxltwot7","","null","","sounds/syllables/re_SWS.wav","","null","","","","","","","","","","","","","","","","","","","","","","","","","","","","","","","","","","","","","","","","","",""
"html-keyboard-response","288","1655559","0.0-8.0-2.0-2.2-1.2","2","1","8pzu8v5pxltwot7","","889","","<p>To replay the <u>TARGET SOUND</u>, press P.</p> When you are ready to begin, press SPACEBAR.","","80","","","","","","","","","","","","","","","","","","","","","","","","","","","","","","","","","","","","","","","","","",""
"audio-keyboard-response","289","1656400","0.0-8.0-2.0-2.3-0.3","2","1","8pzu8v5pxltwot7","","null","","sounds/syllables/re_SWS.wav","","null","","","","","","","","","","","","","","","","","","","","","","","","","","","","","","","","","","","","","","","","","",""
"html-keyboard-response","290","1656631","0.0-8.0-2.0-2.3-1.3","2","1","8pzu8v5pxltwot7","","230","","<p>To replay the <u>TARGET SOUND</u>, press P.</p> When you are ready to begin, press SPACEBAR.","","80","","","","","","","","","","","","","","","","","","","","","","","","","","","","","","","","","","","","","","","","","",""
"audio-keyboard-response","291","1657439","0.0-8.0-2.0-2.4-0.4","2","1","8pzu8v5pxltwot7","","null","","sounds/syllables/re_SWS.wav","","null","","","","","","","","","","","","","","","","","","","","","","","","","","","","","","","","","","","","","","","","","",""
"html-keyboard-response","292","1657549","0.0-8.0-2.0-2.4-1.4","2","1","8pzu8v5pxltwot7","","110","","<p>To replay the <u>TARGET SOUND</u>, press P.</p> When you are ready to begin, press SPACEBAR.","","80","","","","","","","","","","","","","","","","","","","","","","","","","","","","","","","","","","","","","","","","","",""
"audio-keyboard-response","293","1658360","0.0-8.0-2.0-2.5-0.5","2","1","8pzu8v5pxltwot7","","null","","sounds/syllables/re_SWS.wav","","null","","","","","","","","","","","","","","","","","","","","","","","","","","","","","","","","","","","","","","","","","",""
"html-keyboard-response","294","1658519","0.0-8.0-2.0-2.5-1.5","2","1","8pzu8v5pxltwot7","","158","","<p>To replay the <u>TARGET SOUND</u>, press P.</p> When you are ready to begin, press SPACEBAR.","","32","","","","","","","","","","","","","","","","","","","","","","","","","","","","","","","","","","","","","","","","","",""
"audio-keyboard-response","295","1673491","0.0-8.0-2.0-3.1","2","1","8pzu8v5pxltwot7","","1469","","sounds/B/TD/RE_08_TD.mp3","","32","","","TD_SUMMARY","","","","","","","","","","","","","","","","","","","","","RE","","1500,3300,7800,13200","3","1500","3300","7800","13200","null","null","null","null","____1467_3187_5131_7451_9875_11867","4","","","","",""
"html-button-response","296","1747533","0.0-8.0-2.0-0.2","2","1","8pzu8v5pxltwot7","","74040","","<p>Trial 3 of 36</p>","0","","","","","","","","","","","","","","","","","","","","","","","","","FU","sounds/syllables/fu_SWS.wav","1800,5400,8100,11700","1","","","","","","","","","","","","","","",""
"html-keyboard-response","297","1748846","0.0-8.0-2.0-1.2","2","1","8pzu8v5pxltwot7","","1313","","","","80","","","","","","","","","","","","","","","","","","","","","","","","FU","","1800,5400,8100,11700","1","","","","","","","","","","","","","","",""
"audio-keyboard-response","298","1749160","0.0-8.0-2.0-2.6-0.6","2","1","8pzu8v5pxltwot7","","null","","sounds/syllables/fu_SWS.wav","","null","","","","","","","","","","","","","","","","","","","","","","","","","","","","","","","","","","","","","","","","","",""
"html-keyboard-response","299","1749479","0.0-8.0-2.0-2.6-1.6","2","1","8pzu8v5pxltwot7","","319","","<p>To replay the <u>TARGET SOUND</u>, press P.</p> When you are ready to begin, press SPACEBAR.","","80","","","","","","","","","","","","","","","","","","","","","","","","","","","","","","","","","","","","","","","","","",""
"audio-keyboard-response","300","1750310","0.0-8.0-2.0-2.7-0.7","2","1","8pzu8v5pxltwot7","","null","","sounds/syllables/fu_SWS.wav","","null","","","","","","","","","","","","","","","","","","","","","","","","","","","","","","","","","","","","","","","","","",""
"html-keyboard-response","301","1750757","0.0-8.0-2.0-2.7-1.7","2","1","8pzu8v5pxltwot7","","446","","<p>To replay the <u>TARGET SOUND</u>, press P.</p> When you are ready to begin, press SPACEBAR.","","32","","","","","","","","","","","","","","","","","","","","","","","","","","","","","","","","","","","","","","","","","",""
"audio-keyboard-response","302","1765720","0.0-8.0-2.0-3.2","2","1","8pzu8v5pxltwot7","","2381","","sounds/B/TD/FU_09_TD.mp3","","32","","","TD_SUMMARY","","","","","","","","","","","","","","","","","","","","","FU","","1800,5400,8100,11700","1","1800","5400","8100","11700","583","null","818","923","__________2383_4031_5414_6750_8918_12623","2","","","","",""
"html-button-response","303","1773191","0.0-8.0-2.0-0.3","2","1","8pzu8v5pxltwot7","","7469","","<p>Trial 4 of 36</p>","0","","","","","","","","","","","","","","","","","","","","","","","","","FU","sounds/syllables/fu_SWS.wav","6300,8100,10800,12600","1","","","","","","","","","","","","","","",""
"html-keyboard-response","304","1775253","0.0-8.0-2.0-1.3","2","1","8pzu8v5pxltwot7","","2062","","","","80","","","","","","","","","","","","","","","","","","","","","","","","FU","","6300,8100,10800,12600","1","","","","","","","","","","","","","","",""
"audio-keyboard-response","305","1775560","0.0-8.0-2.0-2.8-0.8","2","1","8pzu8v5pxltwot7","","null","","sounds/syllables/fu_SWS.wav","","null","","","","","","","","","","","","","","","","","","","","","","","","","","","","","","","","","","","","","","","","","",""
"html-keyboard-response","306","1776007","0.0-8.0-2.0-2.8-1.8","2","1","8pzu8v5pxltwot7","","445","","<p>To replay the <u>TARGET SOUND</u>, press P.</p> When you are ready to begin, press SPACEBAR.","","80","","","","","","","","","","","","","","","","","","","","","","","","","","","","","","","","","","","","","","","","","",""
"audio-keyboard-response","307","1776810","0.0-8.0-2.0-2.9-0.9","2","1","8pzu8v5pxltwot7","","null","","sounds/syllables/fu_SWS.wav","","null","","","","","","","","","","","","","","","","","","","","","","","","","","","","","","","","","","","","","","","","","",""
"html-keyboard-response","308","1776982","0.0-8.0-2.0-2.9-1.9","2","1","8pzu8v5pxltwot7","","171","","<p>To replay the <u>TARGET SOUND</u>, press P.</p> When you are ready to begin, press SPACEBAR.","","80","","","","","","","","","","","","","","","","","","","","","","","","","","","","","","","","","","","","","","","","","",""
"audio-keyboard-response","309","1777799","0.0-8.0-2.0-2.10-0.10","2","1","8pzu8v5pxltwot7","","null","","sounds/syllables/fu_SWS.wav","","null","","","","","","","","","","","","","","","","","","","","","","","","","","","","","","","","","","","","","","","","","",""
"html-keyboard-response","310","1778935","0.0-8.0-2.0-2.10-1.10","2","1","8pzu8v5pxltwot7","","1134","","<p>To replay the <u>TARGET SOUND</u>, press P.</p> When you are ready to begin, press SPACEBAR.","","32","","","","","","","","","","","","","","","","","","","","","","","","","","","","","","","","","","","","","","","","","",""
"audio-keyboard-response","311","1793901","0.0-8.0-2.0-3.3","2","1","8pzu8v5pxltwot7","","1720","","sounds/B/TD/FU_10_TD.mp3","","32","","","TD_SUMMARY","","","","","","","","","","","","","","","","","","","","","FU","","6300,8100,10800,12600","1","6300","8100","10800","12600","748","868","912","null","________________1720_7048_8968_11712","3","","","","",""
"html-button-response","312","1795617","0.0-8.0-2.0-0.4","2","1","8pzu8v5pxltwot7","","1716","","<p>Trial 5 of 36</p>","0","","","","","","","","","","","","","","","","","","","","","","","","","PU","sounds/syllables/pu_SWS.wav","900,2700,5400,9900","1","","","","","","","","","","","","","","",""
"html-keyboard-response","313","1796862","0.0-8.0-2.0-1.4","2","1","8pzu8v5pxltwot7","","1243","","","","80","","","","","","","","","","","","","","","","","","","","","","","","PU","","900,2700,5400,9900","1","","","","","","","","","","","","","","",""
"audio-keyboard-response","314","1797169","0.0-8.0-2.0-2.11-0.11","2","1","8pzu8v5pxltwot7","","null","","sounds/syllables/pu_SWS.wav","","null","","","","","","","","","","","","","","","","","","","","","","","","","","","","","","","","","","","","","","","","","",""
"html-keyboard-response","315","1797823","0.0-8.0-2.0-2.11-1.11","2","1","8pzu8v5pxltwot7","","652","","<p>To replay the <u>TARGET SOUND</u>, press P.</p> When you are ready to begin, press SPACEBAR.","","80","","","","","","","","","","","","","","","","","","","","","","","","","","","","","","","","","","","","","","","","","",""
"audio-keyboard-response","316","1798639","0.0-8.0-2.0-2.12-0.12","2","1","8pzu8v5pxltwot7","","null","","sounds/syllables/pu_SWS.wav","","null","","","","","","","","","","","","","","","","","","","","","","","","","","","","","","","","","","","","","","","","","",""
"html-keyboard-response","317","1798782","0.0-8.0-2.0-2.12-1.12","2","1","8pzu8v5pxltwot7","","143","","<p>To replay the <u>TARGET SOUND</u>, press P.</p> When you are ready to begin, press SPACEBAR.","","80","","","","","","","","","","","","","","","","","","","","","","","","","","","","","","","","","","","","","","","","","",""
"audio-keyboard-response","318","1799600","0.0-8.0-2.0-2.13-0.13","2","1","8pzu8v5pxltwot7","","null","","sounds/syllables/pu_SWS.wav","","null","","","","","","","","","","","","","","","","","","","","","","","","","","","","","","","","","","","","","","","","","",""
"html-keyboard-response","319","1799614","0.0-8.0-2.0-2.13-1.13","2","1","8pzu8v5pxltwot7","","14","","<p>To replay the <u>TARGET SOUND</u>, press P.</p> When you are ready to begin, press SPACEBAR.","","32","","","","","","","","","","","","","","","","","","","","","","","","","","","","","","","","","","","","","","","","","",""
