"trial_type","trial_index","time_elapsed","internal_node_id","counterbalance","lang_instruct","ParticipantID","view_history","rt","url","stimulus","button_pressed","key_press","correctRESP","correct","designation","location","correctanswer","responses","sentence","keywords","typed_resp","keyword1_acc","keyword2_acc","keyword3_acc","keyword4_acc","keyword5_acc","total_acc","prop_acc","timeouts","pause_rt01","pause_rt02","train_file","numKeyPress","sound","fam_type","SYLLABLE","EXEMPLAR","TD_LOCS","TD_TYPE","TDLOC_01","TDLOC_02","TDLOC_03","TDLOC_04","TD_RT_01","TD_RT_02","TD_RT_03","TD_RT_04","TD_SUBJ_RTs","number_of_plays","slider_start","response","question_order","syllable","syllable_type"
"pavlovia","0","1","0.0-0.0","3","1","680or5kyaf1d7b1","","","","","","","","","","","","","","","","","","","","","","","","","","","","","","","","","","","","","","","","","","","","","","","",""
"instructions","1","61235","0.0-1.0","3","1","680or5kyaf1d7b1","[{""page_index"":0,""viewing_time"":4867.999999999996},{""page_index"":1,""viewing_time"":56361.000000000015}]","61234","","","","","","","","","","","","","","","","","","","","","","","","","","","","","","","","","","","","","","","","","","","","","",""
"external-html","2","65142","0.0-2.0","3","1","680or5kyaf1d7b1","","3146","consent/consent.html","","","","","","","","","","","","","","","","","","","","","","","","","","","","","","","","","","","","","","","","","","","","",""
"html-button-response","3","67227","0.0-3.0-0.0-0.0","3","1","680or5kyaf1d7b1","","2084.0000000000146","","<p>Welcome to the study. You will first complete a short volume calibration and headphone check.</p><p>Please make sure you are in a quiet listening environment, that you are wearing headphones, and that your computer's volume is turned on.<p></p>","0","","","","","","","","","","","","","","","","","","","","","","","","","","","","","","","","","","","","","","","","","","",""
"html-button-response","4","72726","0.0-3.0-0.0-1.0","3","1","680or5kyaf1d7b1","","5246","","<p>The volume calibration will be first.</p><p>You will hear a thirty-second noise. Please adjust your computer's volume so that this noise is being presented at a comfortable level.<p></p>","0","","","","","","","","","","","","","","","","","","","","","","","","","","","","","","","","","","","","","","","","","","",""
"audio-button-response","5","77061","0.0-3.0-0.0-2.0","3","1","680or5kyaf1d7b1","","4064","","audCalib/volumetest.mp3","0","","","","","","","","","","","","","","","","","","","","","","","","","","","","","","","","","","","","","","","","","","",""
"html-button-response","6","85752","0.0-3.0-1.0-0.0","3","1","680or5kyaf1d7b1","","8690.000000000015","","<p>You will now complete a short headphone check.</p><p>On each trial, you will hear three tones. One of these tones will be quieter than the others. Your task is to identify whether the quiet tone occured first, second, or third.</p><p>There are six trials in total.<p></p>","0","","","","","","","","","","","","","","","","","","","","","","","","","","","","","","","","","","","","","","","","","","",""
"html-keyboard-response","7","86506","0.0-3.0-1.0-1.0-0.0","3","1","680or5kyaf1d7b1","","null","","<div style=""font-size:60px;"">+</div>","","null","","","","","","","","","","","","","","","","","","","","","","","","","","","","","","","","","","","","","","","","","",""
"audio-button-response","8","91676","0.0-3.0-1.0-1.0-1.0","3","1","680or5kyaf1d7b1","","5163","","audCalib/t3_2.mp3","2","","2","1","headphone-test","","","","","","","","","","","","","","","","","","","","","","","","","","","","","","","","","","","","","","",""
"html-keyboard-response","9","92431","0.0-3.0-1.0-1.0-0.1","3","1","680or5kyaf1d7b1","","null","","<div style=""font-size:60px;"">+</div>","","null","","","","","","","","","","","","","","","","","","","","","","","","","","","","","","","","","","","","","","","","","",""
"audio-button-response","10","97612","0.0-3.0-1.0-1.0-1.1","3","1","680or5kyaf1d7b1","","5184","","audCalib/t1_1.mp3","0","","0","1","headphone-test","","","","","","","","","","","","","","","","","","","","","","","","","","","","","","","","","","","","","","",""
"html-keyboard-response","11","98365","0.0-3.0-1.0-1.0-0.2","3","1","680or5kyaf1d7b1","","null","","<div style=""font-size:60px;"">+</div>","","null","","","","","","","","","","","","","","","","","","","","","","","","","","","","","","","","","","","","","","","","","",""
"audio-button-response","12","103409","0.0-3.0-1.0-1.0-1.2","3","1","680or5kyaf1d7b1","","5035","","audCalib/t3_1.mp3","2","","2","1","headphone-test","","","","","","","","","","","","","","","","","","","","","","","","","","","","","","","","","","","","","","",""
"html-keyboard-response","13","104162","0.0-3.0-1.0-1.0-0.3","3","1","680or5kyaf1d7b1","","null","","<div style=""font-size:60px;"">+</div>","","null","","","","","","","","","","","","","","","","","","","","","","","","","","","","","","","","","","","","","","","","","",""
"audio-button-response","14","108778","0.0-3.0-1.0-1.0-1.3","3","1","680or5kyaf1d7b1","","4619","","audCalib/t2_1.mp3","1","","1","1","headphone-test","","","","","","","","","","","","","","","","","","","","","","","","","","","","","","","","","","","","","","",""
"html-keyboard-response","15","109531","0.0-3.0-1.0-1.0-0.4","3","1","680or5kyaf1d7b1","","null","","<div style=""font-size:60px;"">+</div>","","null","","","","","","","","","","","","","","","","","","","","","","","","","","","","","","","","","","","","","","","","","",""
"audio-button-response","16","113937","0.0-3.0-1.0-1.0-1.4","3","1","680or5kyaf1d7b1","","4395","","audCalib/t1_2.mp3","0","","0","1","headphone-test","","","","","","","","","","","","","","","","","","","","","","","","","","","","","","","","","","","","","","",""
"html-keyboard-response","17","114690","0.0-3.0-1.0-1.0-0.5","3","1","680or5kyaf1d7b1","","null","","<div style=""font-size:60px;"">+</div>","","null","","","","","","","","","","","","","","","","","","","","","","","","","","","","","","","","","","","","","","","","","",""
"audio-button-response","18","119235","0.0-3.0-1.0-1.0-1.5","3","1","680or5kyaf1d7b1","","4544","","audCalib/t2_2.mp3","1","","1","1","headphone-test","","","","","","","","","","","","","","","","","","","","","","","","","","","","","","","","","","","","","","",""
"html-button-response","19","121742","0.0-3.0-2.0","3","1","680or5kyaf1d7b1","","2254","","<p>The volume calibration and headphone check are now complete.</p>","0","","","","","","","","","","","","","","","","","","","","","","","","","","","","","","","","","","","","","","","","","","",""
"instructions","20","137653","0.0-4.0-0.0","3","1","680or5kyaf1d7b1","[{""page_index"":0,""viewing_time"":1320},{""page_index"":1,""viewing_time"":12727},{""page_index"":2,""viewing_time"":1863}]","15910","","","","","","","","","","","","","","","","","","","","","","","","","","","","","","","","","","","","","","","","","","","","","",""
"audio-keyboard-response","21","137960","0.0-4.0-1.0-0.0","3","1","680or5kyaf1d7b1","","null","","sounds/induction/left/ru_SWS.wav","","null","","","","","","","","","","","","","","","","","","","","","","","","","","","","","","","","","","","","","","","","","",""
"html-button-response","22","140570","0.0-4.0-1.0-1.0","3","1","680or5kyaf1d7b1","","2608","","What sound did you hear?","0","","","1","INDUCTION-JUDGMENT","left","0","","","","","","","","","","","","","","","","","","","","","","","","","","","","","","","","","","","","",""
"html-keyboard-response","23","141573","0.0-4.0-1.0-2.0","3","1","680or5kyaf1d7b1","","null","","<p style=""color:green;""><b>Correct!</b></p>","","null","","","","","","","","","","","","","","","","","","","","","","","","","","","","","","","","","","","","","","","","","",""
"audio-keyboard-response","24","142376","0.0-4.0-1.0-0.1","3","1","680or5kyaf1d7b1","","null","","sounds/induction/right/ni_SWS.wav","","null","","","","","","","","","","","","","","","","","","","","","","","","","","","","","","","","","","","","","","","","","",""
"html-button-response","25","145379","0.0-4.0-1.0-1.1","3","1","680or5kyaf1d7b1","","3001","","What sound did you hear?","0","","","1","INDUCTION-JUDGMENT","right","0","","","","","","","","","","","","","","","","","","","","","","","","","","","","","","","","","","","","",""
"html-keyboard-response","26","146381","0.0-4.0-1.0-2.1","3","1","680or5kyaf1d7b1","","null","","<p style=""color:green;""><b>Correct!</b></p>","","null","","","","","","","","","","","","","","","","","","","","","","","","","","","","","","","","","","","","","","","","","",""
"audio-keyboard-response","27","147186","0.0-4.0-1.0-0.2","3","1","680or5kyaf1d7b1","","null","","sounds/induction/right/ti_SWS.wav","","null","","","","","","","","","","","","","","","","","","","","","","","","","","","","","","","","","","","","","","","","","",""
"html-button-response","28","152673","0.0-4.0-1.0-1.2","3","1","680or5kyaf1d7b1","","5485.000000000029","","What sound did you hear?","1","","","1","INDUCTION-JUDGMENT","right","1","","","","","","","","","","","","","","","","","","","","","","","","","","","","","","","","","","","","",""
"html-keyboard-response","29","153676","0.0-4.0-1.0-2.2","3","1","680or5kyaf1d7b1","","null","","<p style=""color:green;""><b>Correct!</b></p>","","null","","","","","","","","","","","","","","","","","","","","","","","","","","","","","","","","","","","","","","","","","",""
"audio-keyboard-response","30","154482","0.0-4.0-1.0-0.3","3","1","680or5kyaf1d7b1","","null","","sounds/induction/left/me_SWS.wav","","null","","","","","","","","","","","","","","","","","","","","","","","","","","","","","","","","","","","","","","","","","",""
"html-button-response","31","156231","0.0-4.0-1.0-1.3","3","1","680or5kyaf1d7b1","","1747","","What sound did you hear?","1","","","1","INDUCTION-JUDGMENT","left","1","","","","","","","","","","","","","","","","","","","","","","","","","","","","","","","","","","","","",""
"html-keyboard-response","32","157233","0.0-4.0-1.0-2.3","3","1","680or5kyaf1d7b1","","null","","<p style=""color:green;""><b>Correct!</b></p>","","null","","","","","","","","","","","","","","","","","","","","","","","","","","","","","","","","","","","","","","","","","",""
"audio-keyboard-response","33","158034","0.0-4.0-1.0-0.4","3","1","680or5kyaf1d7b1","","null","","sounds/induction/right/me_SWS.wav","","null","","","","","","","","","","","","","","","","","","","","","","","","","","","","","","","","","","","","","","","","","",""
"html-button-response","34","159564","0.0-4.0-1.0-1.4","3","1","680or5kyaf1d7b1","","1527.999999999971","","What sound did you hear?","0","","","1","INDUCTION-JUDGMENT","right","0","","","","","","","","","","","","","","","","","","","","","","","","","","","","","","","","","","","","",""
"html-keyboard-response","35","160566","0.0-4.0-1.0-2.4","3","1","680or5kyaf1d7b1","","null","","<p style=""color:green;""><b>Correct!</b></p>","","null","","","","","","","","","","","","","","","","","","","","","","","","","","","","","","","","","","","","","","","","","",""
"audio-keyboard-response","36","161373","0.0-4.0-1.0-0.5","3","1","680or5kyaf1d7b1","","null","","sounds/induction/left/fe_SWS.wav","","null","","","","","","","","","","","","","","","","","","","","","","","","","","","","","","","","","","","","","","","","","",""
"html-button-response","37","163001","0.0-4.0-1.0-1.5","3","1","680or5kyaf1d7b1","","1627","","What sound did you hear?","1","","","1","INDUCTION-JUDGMENT","left","1","","","","","","","","","","","","","","","","","","","","","","","","","","","","","","","","","","","","",""
"html-keyboard-response","38","164004","0.0-4.0-1.0-2.5","3","1","680or5kyaf1d7b1","","null","","<p style=""color:green;""><b>Correct!</b></p>","","null","","","","","","","","","","","","","","","","","","","","","","","","","","","","","","","","","","","","","","","","","",""
"audio-keyboard-response","39","164808","0.0-4.0-1.0-0.6","3","1","680or5kyaf1d7b1","","null","","sounds/induction/left/ta_SWS.wav","","null","","","","","","","","","","","","","","","","","","","","","","","","","","","","","","","","","","","","","","","","","",""
"html-button-response","40","166546","0.0-4.0-1.0-1.6","3","1","680or5kyaf1d7b1","","1738","","What sound did you hear?","0","","","1","INDUCTION-JUDGMENT","left","0","","","","","","","","","","","","","","","","","","","","","","","","","","","","","","","","","","","","",""
"html-keyboard-response","41","167549","0.0-4.0-1.0-2.6","3","1","680or5kyaf1d7b1","","null","","<p style=""color:green;""><b>Correct!</b></p>","","null","","","","","","","","","","","","","","","","","","","","","","","","","","","","","","","","","","","","","","","","","",""
"audio-keyboard-response","42","168360","0.0-4.0-1.0-0.7","3","1","680or5kyaf1d7b1","","null","","sounds/induction/left/re_SWS.wav","","null","","","","","","","","","","","","","","","","","","","","","","","","","","","","","","","","","","","","","","","","","",""
"html-button-response","43","169606","0.0-4.0-1.0-1.7","3","1","680or5kyaf1d7b1","","1244","","What sound did you hear?","0","","","1","INDUCTION-JUDGMENT","left","0","","","","","","","","","","","","","","","","","","","","","","","","","","","","","","","","","","","","",""
"html-keyboard-response","44","170608","0.0-4.0-1.0-2.7","3","1","680or5kyaf1d7b1","","null","","<p style=""color:green;""><b>Correct!</b></p>","","null","","","","","","","","","","","","","","","","","","","","","","","","","","","","","","","","","","","","","","","","","",""
"audio-keyboard-response","45","171410","0.0-4.0-1.0-0.8","3","1","680or5kyaf1d7b1","","null","","sounds/induction/left/pu_SWS.wav","","null","","","","","","","","","","","","","","","","","","","","","","","","","","","","","","","","","","","","","","","","","",""
"html-button-response","46","173127","0.0-4.0-1.0-1.8","3","1","680or5kyaf1d7b1","","1715","","What sound did you hear?","1","","","0","INDUCTION-JUDGMENT","left","0","","","","","","","","","","","","","","","","","","","","","","","","","","","","","","","","","","","","",""
"html-keyboard-response","47","174129","0.0-4.0-1.0-2.8","3","1","680or5kyaf1d7b1","","null","","<p style=""color:red;""><b>Incorrect!</b></p>","","null","","","","","","","","","","","","","","","","","","","","","","","","","","","","","","","","","","","","","","","","","",""
"audio-keyboard-response","48","174941","0.0-4.0-1.0-0.9","3","1","680or5kyaf1d7b1","","null","","sounds/induction/right/fe_SWS.wav","","null","","","","","","","","","","","","","","","","","","","","","","","","","","","","","","","","","","","","","","","","","",""
"html-button-response","49","176487","0.0-4.0-1.0-1.9","3","1","680or5kyaf1d7b1","","1544","","What sound did you hear?","0","","","1","INDUCTION-JUDGMENT","right","0","","","","","","","","","","","","","","","","","","","","","","","","","","","","","","","","","","","","",""
"html-keyboard-response","50","177490","0.0-4.0-1.0-2.9","3","1","680or5kyaf1d7b1","","null","","<p style=""color:green;""><b>Correct!</b></p>","","null","","","","","","","","","","","","","","","","","","","","","","","","","","","","","","","","","","","","","","","","","",""
"audio-keyboard-response","51","178301","0.0-4.0-1.0-0.10","3","1","680or5kyaf1d7b1","","null","","sounds/induction/right/su_SWS.wav","","null","","","","","","","","","","","","","","","","","","","","","","","","","","","","","","","","","","","","","","","","","",""
"html-button-response","52","179862","0.0-4.0-1.0-1.10","3","1","680or5kyaf1d7b1","","1559","","What sound did you hear?","1","","","1","INDUCTION-JUDGMENT","right","1","","","","","","","","","","","","","","","","","","","","","","","","","","","","","","","","","","","","",""
"html-keyboard-response","53","180864","0.0-4.0-1.0-2.10","3","1","680or5kyaf1d7b1","","null","","<p style=""color:green;""><b>Correct!</b></p>","","null","","","","","","","","","","","","","","","","","","","","","","","","","","","","","","","","","","","","","","","","","",""
"audio-keyboard-response","54","181672","0.0-4.0-1.0-0.11","3","1","680or5kyaf1d7b1","","null","","sounds/induction/right/pu_SWS.wav","","null","","","","","","","","","","","","","","","","","","","","","","","","","","","","","","","","","","","","","","","","","",""
"html-button-response","55","182727","0.0-4.0-1.0-1.11","3","1","680or5kyaf1d7b1","","1054","","What sound did you hear?","1","","","1","INDUCTION-JUDGMENT","right","1","","","","","","","","","","","","","","","","","","","","","","","","","","","","","","","","","","","","",""
"html-keyboard-response","56","183729","0.0-4.0-1.0-2.11","3","1","680or5kyaf1d7b1","","null","","<p style=""color:green;""><b>Correct!</b></p>","","null","","","","","","","","","","","","","","","","","","","","","","","","","","","","","","","","","","","","","","","","","",""
"audio-keyboard-response","57","184530","0.0-4.0-1.0-0.12","3","1","680or5kyaf1d7b1","","null","","sounds/induction/right/ta_SWS.wav","","null","","","","","","","","","","","","","","","","","","","","","","","","","","","","","","","","","","","","","","","","","",""
"html-button-response","58","186153","0.0-4.0-1.0-1.12","3","1","680or5kyaf1d7b1","","1621","","What sound did you hear?","1","","","1","INDUCTION-JUDGMENT","right","1","","","","","","","","","","","","","","","","","","","","","","","","","","","","","","","","","","","","",""
"html-keyboard-response","59","187155","0.0-4.0-1.0-2.12","3","1","680or5kyaf1d7b1","","null","","<p style=""color:green;""><b>Correct!</b></p>","","null","","","","","","","","","","","","","","","","","","","","","","","","","","","","","","","","","","","","","","","","","",""
"audio-keyboard-response","60","187965","0.0-4.0-1.0-0.13","3","1","680or5kyaf1d7b1","","null","","sounds/induction/left/fu_SWS.wav","","null","","","","","","","","","","","","","","","","","","","","","","","","","","","","","","","","","","","","","","","","","",""
"html-button-response","61","189108","0.0-4.0-1.0-1.13","3","1","680or5kyaf1d7b1","","1141.000000000029","","What sound did you hear?","1","","","1","INDUCTION-JUDGMENT","left","1","","","","","","","","","","","","","","","","","","","","","","","","","","","","","","","","","","","","",""
"html-keyboard-response","62","190111","0.0-4.0-1.0-2.13","3","1","680or5kyaf1d7b1","","null","","<p style=""color:green;""><b>Correct!</b></p>","","null","","","","","","","","","","","","","","","","","","","","","","","","","","","","","","","","","","","","","","","","","",""
"audio-keyboard-response","63","190920","0.0-4.0-1.0-0.14","3","1","680or5kyaf1d7b1","","null","","sounds/induction/left/ge_SWS.wav","","null","","","","","","","","","","","","","","","","","","","","","","","","","","","","","","","","","","","","","","","","","",""
"html-button-response","64","193113","0.0-4.0-1.0-1.14","3","1","680or5kyaf1d7b1","","2193.000000000029","","What sound did you hear?","1","","","1","INDUCTION-JUDGMENT","left","1","","","","","","","","","","","","","","","","","","","","","","","","","","","","","","","","","","","","",""
"html-keyboard-response","65","194115","0.0-4.0-1.0-2.14","3","1","680or5kyaf1d7b1","","null","","<p style=""color:green;""><b>Correct!</b></p>","","null","","","","","","","","","","","","","","","","","","","","","","","","","","","","","","","","","","","","","","","","","",""
"audio-keyboard-response","66","194920","0.0-4.0-1.0-0.15","3","1","680or5kyaf1d7b1","","null","","sounds/induction/left/fu_SWS.wav","","null","","","","","","","","","","","","","","","","","","","","","","","","","","","","","","","","","","","","","","","","","",""
"html-button-response","67","196006","0.0-4.0-1.0-1.15","3","1","680or5kyaf1d7b1","","1084","","What sound did you hear?","0","","","0","INDUCTION-JUDGMENT","left","1","","","","","","","","","","","","","","","","","","","","","","","","","","","","","","","","","","","","",""
"html-keyboard-response","68","197008","0.0-4.0-1.0-2.15","3","1","680or5kyaf1d7b1","","null","","<p style=""color:red;""><b>Incorrect!</b></p>","","null","","","","","","","","","","","","","","","","","","","","","","","","","","","","","","","","","","","","","","","","","",""
"audio-keyboard-response","69","197810","0.0-4.0-1.0-0.16","3","1","680or5kyaf1d7b1","","null","","sounds/induction/left/ti_SWS.wav","","null","","","","","","","","","","","","","","","","","","","","","","","","","","","","","","","","","","","","","","","","","",""
"html-button-response","70","199234","0.0-4.0-1.0-1.16","3","1","680or5kyaf1d7b1","","1422","","What sound did you hear?","0","","","1","INDUCTION-JUDGMENT","left","0","","","","","","","","","","","","","","","","","","","","","","","","","","","","","","","","","","","","",""
"html-keyboard-response","71","200235","0.0-4.0-1.0-2.16","3","1","680or5kyaf1d7b1","","null","","<p style=""color:green;""><b>Correct!</b></p>","","null","","","","","","","","","","","","","","","","","","","","","","","","","","","","","","","","","","","","","","","","","",""
"audio-keyboard-response","72","201042","0.0-4.0-1.0-0.17","3","1","680or5kyaf1d7b1","","null","","sounds/induction/right/ta_SWS.wav","","null","","","","","","","","","","","","","","","","","","","","","","","","","","","","","","","","","","","","","","","","","",""
"html-button-response","73","202319","0.0-4.0-1.0-1.17","3","1","680or5kyaf1d7b1","","1275","","What sound did you hear?","1","","","1","INDUCTION-JUDGMENT","right","1","","","","","","","","","","","","","","","","","","","","","","","","","","","","","","","","","","","","",""
"html-keyboard-response","74","203322","0.0-4.0-1.0-2.17","3","1","680or5kyaf1d7b1","","null","","<p style=""color:green;""><b>Correct!</b></p>","","null","","","","","","","","","","","","","","","","","","","","","","","","","","","","","","","","","","","","","","","","","",""
"audio-keyboard-response","75","204125","0.0-4.0-1.0-0.18","3","1","680or5kyaf1d7b1","","null","","sounds/induction/right/fu_SWS.wav","","null","","","","","","","","","","","","","","","","","","","","","","","","","","","","","","","","","","","","","","","","","",""
"html-button-response","76","205196","0.0-4.0-1.0-1.18","3","1","680or5kyaf1d7b1","","1069","","What sound did you hear?","0","","","1","INDUCTION-JUDGMENT","right","0","","","","","","","","","","","","","","","","","","","","","","","","","","","","","","","","","","","","",""
"html-keyboard-response","77","206198","0.0-4.0-1.0-2.18","3","1","680or5kyaf1d7b1","","null","","<p style=""color:green;""><b>Correct!</b></p>","","null","","","","","","","","","","","","","","","","","","","","","","","","","","","","","","","","","","","","","","","","","",""
"audio-keyboard-response","78","207005","0.0-4.0-1.0-0.19","3","1","680or5kyaf1d7b1","","null","","sounds/induction/right/ge_SWS.wav","","null","","","","","","","","","","","","","","","","","","","","","","","","","","","","","","","","","","","","","","","","","",""
"html-button-response","79","208215","0.0-4.0-1.0-1.19","3","1","680or5kyaf1d7b1","","1208","","What sound did you hear?","0","","","1","INDUCTION-JUDGMENT","right","0","","","","","","","","","","","","","","","","","","","","","","","","","","","","","","","","","","","","",""
"html-keyboard-response","80","209217","0.0-4.0-1.0-2.19","3","1","680or5kyaf1d7b1","","null","","<p style=""color:green;""><b>Correct!</b></p>","","null","","","","","","","","","","","","","","","","","","","","","","","","","","","","","","","","","","","","","","","","","",""
"audio-keyboard-response","81","210024","0.0-4.0-1.0-0.20","3","1","680or5kyaf1d7b1","","null","","sounds/induction/left/su_SWS.wav","","null","","","","","","","","","","","","","","","","","","","","","","","","","","","","","","","","","","","","","","","","","",""
"html-button-response","82","211396","0.0-4.0-1.0-1.20","3","1","680or5kyaf1d7b1","","1371","","What sound did you hear?","1","","","0","INDUCTION-JUDGMENT","left","0","","","","","","","","","","","","","","","","","","","","","","","","","","","","","","","","","","","","",""
"html-keyboard-response","83","212399","0.0-4.0-1.0-2.20","3","1","680or5kyaf1d7b1","","null","","<p style=""color:red;""><b>Incorrect!</b></p>","","null","","","","","","","","","","","","","","","","","","","","","","","","","","","","","","","","","","","","","","","","","",""
"audio-keyboard-response","84","213202","0.0-4.0-1.0-0.21","3","1","680or5kyaf1d7b1","","null","","sounds/induction/right/ni_SWS.wav","","null","","","","","","","","","","","","","","","","","","","","","","","","","","","","","","","","","","","","","","","","","",""
"html-button-response","85","214714","0.0-4.0-1.0-1.21","3","1","680or5kyaf1d7b1","","1511.000000000029","","What sound did you hear?","0","","","1","INDUCTION-JUDGMENT","right","0","","","","","","","","","","","","","","","","","","","","","","","","","","","","","","","","","","","","",""
"html-keyboard-response","86","215716","0.0-4.0-1.0-2.21","3","1","680or5kyaf1d7b1","","null","","<p style=""color:green;""><b>Correct!</b></p>","","null","","","","","","","","","","","","","","","","","","","","","","","","","","","","","","","","","","","","","","","","","",""
"audio-keyboard-response","87","216520","0.0-4.0-1.0-0.22","3","1","680or5kyaf1d7b1","","null","","sounds/induction/right/re_SWS.wav","","null","","","","","","","","","","","","","","","","","","","","","","","","","","","","","","","","","","","","","","","","","",""
"html-button-response","88","218002","0.0-4.0-1.0-1.22","3","1","680or5kyaf1d7b1","","1482","","What sound did you hear?","1","","","1","INDUCTION-JUDGMENT","right","1","","","","","","","","","","","","","","","","","","","","","","","","","","","","","","","","","","","","",""
"html-keyboard-response","89","219005","0.0-4.0-1.0-2.22","3","1","680or5kyaf1d7b1","","null","","<p style=""color:green;""><b>Correct!</b></p>","","null","","","","","","","","","","","","","","","","","","","","","","","","","","","","","","","","","","","","","","","","","",""
"audio-keyboard-response","90","219816","0.0-4.0-1.0-0.23","3","1","680or5kyaf1d7b1","","null","","sounds/induction/left/ti_SWS.wav","","null","","","","","","","","","","","","","","","","","","","","","","","","","","","","","","","","","","","","","","","","","",""
"html-button-response","91","221595","0.0-4.0-1.0-1.23","3","1","680or5kyaf1d7b1","","1777","","What sound did you hear?","0","","","1","INDUCTION-JUDGMENT","left","0","","","","","","","","","","","","","","","","","","","","","","","","","","","","","","","","","","","","",""
"html-keyboard-response","92","222597","0.0-4.0-1.0-2.23","3","1","680or5kyaf1d7b1","","null","","<p style=""color:green;""><b>Correct!</b></p>","","null","","","","","","","","","","","","","","","","","","","","","","","","","","","","","","","","","","","","","","","","","",""
"audio-keyboard-response","93","223400","0.0-4.0-1.0-0.24","3","1","680or5kyaf1d7b1","","null","","sounds/induction/left/ni_SWS.wav","","null","","","","","","","","","","","","","","","","","","","","","","","","","","","","","","","","","","","","","","","","","",""
"html-button-response","94","224785","0.0-4.0-1.0-1.24","3","1","680or5kyaf1d7b1","","1383","","What sound did you hear?","1","","","1","INDUCTION-JUDGMENT","left","1","","","","","","","","","","","","","","","","","","","","","","","","","","","","","","","","","","","","",""
"html-keyboard-response","95","225788","0.0-4.0-1.0-2.24","3","1","680or5kyaf1d7b1","","null","","<p style=""color:green;""><b>Correct!</b></p>","","null","","","","","","","","","","","","","","","","","","","","","","","","","","","","","","","","","","","","","","","","","",""
"audio-keyboard-response","96","226600","0.0-4.0-1.0-0.25","3","1","680or5kyaf1d7b1","","null","","sounds/induction/left/ko_SWS.wav","","null","","","","","","","","","","","","","","","","","","","","","","","","","","","","","","","","","","","","","","","","","",""
"html-button-response","97","227716","0.0-4.0-1.0-1.25","3","1","680or5kyaf1d7b1","","1115","","What sound did you hear?","0","","","0","INDUCTION-JUDGMENT","left","1","","","","","","","","","","","","","","","","","","","","","","","","","","","","","","","","","","","","",""
"html-keyboard-response","98","228719","0.0-4.0-1.0-2.25","3","1","680or5kyaf1d7b1","","null","","<p style=""color:red;""><b>Incorrect!</b></p>","","null","","","","","","","","","","","","","","","","","","","","","","","","","","","","","","","","","","","","","","","","","",""
"audio-keyboard-response","99","229522","0.0-4.0-1.0-0.26","3","1","680or5kyaf1d7b1","","null","","sounds/induction/right/ti_SWS.wav","","null","","","","","","","","","","","","","","","","","","","","","","","","","","","","","","","","","","","","","","","","","",""
"html-button-response","100","231073","0.0-4.0-1.0-1.26","3","1","680or5kyaf1d7b1","","1548.999999999971","","What sound did you hear?","1","","","1","INDUCTION-JUDGMENT","right","1","","","","","","","","","","","","","","","","","","","","","","","","","","","","","","","","","","","","",""
"html-keyboard-response","101","232075","0.0-4.0-1.0-2.26","3","1","680or5kyaf1d7b1","","null","","<p style=""color:green;""><b>Correct!</b></p>","","null","","","","","","","","","","","","","","","","","","","","","","","","","","","","","","","","","","","","","","","","","",""
"audio-keyboard-response","102","232882","0.0-4.0-1.0-0.27","3","1","680or5kyaf1d7b1","","null","","sounds/induction/right/me_SWS.wav","","null","","","","","","","","","","","","","","","","","","","","","","","","","","","","","","","","","","","","","","","","","",""
"html-button-response","103","234488","0.0-4.0-1.0-1.27","3","1","680or5kyaf1d7b1","","1605.000000000029","","What sound did you hear?","0","","","1","INDUCTION-JUDGMENT","right","0","","","","","","","","","","","","","","","","","","","","","","","","","","","","","","","","","","","","",""
"html-keyboard-response","104","235491","0.0-4.0-1.0-2.27","3","1","680or5kyaf1d7b1","","null","","<p style=""color:green;""><b>Correct!</b></p>","","null","","","","","","","","","","","","","","","","","","","","","","","","","","","","","","","","","","","","","","","","","",""
"audio-keyboard-response","105","236296","0.0-4.0-1.0-0.28","3","1","680or5kyaf1d7b1","","null","","sounds/induction/left/pu_SWS.wav","","null","","","","","","","","","","","","","","","","","","","","","","","","","","","","","","","","","","","","","","","","","",""
"html-button-response","106","237260","0.0-4.0-1.0-1.28","3","1","680or5kyaf1d7b1","","962.0000000000291","","What sound did you hear?","1","","","0","INDUCTION-JUDGMENT","left","0","","","","","","","","","","","","","","","","","","","","","","","","","","","","","","","","","","","","",""
"html-keyboard-response","107","238261","0.0-4.0-1.0-2.28","3","1","680or5kyaf1d7b1","","null","","<p style=""color:red;""><b>Incorrect!</b></p>","","null","","","","","","","","","","","","","","","","","","","","","","","","","","","","","","","","","","","","","","","","","",""
"audio-keyboard-response","108","239069","0.0-4.0-1.0-0.29","3","1","680or5kyaf1d7b1","","null","","sounds/induction/left/su_SWS.wav","","null","","","","","","","","","","","","","","","","","","","","","","","","","","","","","","","","","","","","","","","","","",""
"html-button-response","109","240585","0.0-4.0-1.0-1.29","3","1","680or5kyaf1d7b1","","1514.000000000029","","What sound did you hear?","0","","","1","INDUCTION-JUDGMENT","left","0","","","","","","","","","","","","","","","","","","","","","","","","","","","","","","","","","","","","",""
"html-keyboard-response","110","241587","0.0-4.0-1.0-2.29","3","1","680or5kyaf1d7b1","","null","","<p style=""color:green;""><b>Correct!</b></p>","","null","","","","","","","","","","","","","","","","","","","","","","","","","","","","","","","","","","","","","","","","","",""
"audio-keyboard-response","111","242397","0.0-4.0-1.0-0.30","3","1","680or5kyaf1d7b1","","null","","sounds/induction/left/ko_SWS.wav","","null","","","","","","","","","","","","","","","","","","","","","","","","","","","","","","","","","","","","","","","","","",""
"html-button-response","112","243428","0.0-4.0-1.0-1.30","3","1","680or5kyaf1d7b1","","1029","","What sound did you hear?","0","","","0","INDUCTION-JUDGMENT","left","1","","","","","","","","","","","","","","","","","","","","","","","","","","","","","","","","","","","","",""
"html-keyboard-response","113","244430","0.0-4.0-1.0-2.30","3","1","680or5kyaf1d7b1","","null","","<p style=""color:red;""><b>Incorrect!</b></p>","","null","","","","","","","","","","","","","","","","","","","","","","","","","","","","","","","","","","","","","","","","","",""
"audio-keyboard-response","114","245234","0.0-4.0-1.0-0.31","3","1","680or5kyaf1d7b1","","null","","sounds/induction/right/pu_SWS.wav","","null","","","","","","","","","","","","","","","","","","","","","","","","","","","","","","","","","","","","","","","","","",""
"html-button-response","115","246416","0.0-4.0-1.0-1.31","3","1","680or5kyaf1d7b1","","1179.9999999999418","","What sound did you hear?","1","","","1","INDUCTION-JUDGMENT","right","1","","","","","","","","","","","","","","","","","","","","","","","","","","","","","","","","","","","","",""
"html-keyboard-response","116","247418","0.0-4.0-1.0-2.31","3","1","680or5kyaf1d7b1","","null","","<p style=""color:green;""><b>Correct!</b></p>","","null","","","","","","","","","","","","","","","","","","","","","","","","","","","","","","","","","","","","","","","","","",""
"audio-keyboard-response","117","248221","0.0-4.0-1.0-0.32","3","1","680or5kyaf1d7b1","","null","","sounds/induction/right/ko_SWS.wav","","null","","","","","","","","","","","","","","","","","","","","","","","","","","","","","","","","","","","","","","","","","",""
"html-button-response","118","249509","0.0-4.0-1.0-1.32","3","1","680or5kyaf1d7b1","","1286","","What sound did you hear?","0","","","1","INDUCTION-JUDGMENT","right","0","","","","","","","","","","","","","","","","","","","","","","","","","","","","","","","","","","","","",""
"html-keyboard-response","119","250511","0.0-4.0-1.0-2.32","3","1","680or5kyaf1d7b1","","null","","<p style=""color:green;""><b>Correct!</b></p>","","null","","","","","","","","","","","","","","","","","","","","","","","","","","","","","","","","","","","","","","","","","",""
"audio-keyboard-response","120","251314","0.0-4.0-1.0-0.33","3","1","680or5kyaf1d7b1","","null","","sounds/induction/right/su_SWS.wav","","null","","","","","","","","","","","","","","","","","","","","","","","","","","","","","","","","","","","","","","","","","",""
"html-button-response","121","252956","0.0-4.0-1.0-1.33","3","1","680or5kyaf1d7b1","","1640","","What sound did you hear?","1","","","1","INDUCTION-JUDGMENT","right","1","","","","","","","","","","","","","","","","","","","","","","","","","","","","","","","","","","","","",""
"html-keyboard-response","122","253958","0.0-4.0-1.0-2.33","3","1","680or5kyaf1d7b1","","null","","<p style=""color:green;""><b>Correct!</b></p>","","null","","","","","","","","","","","","","","","","","","","","","","","","","","","","","","","","","","","","","","","","","",""
"audio-keyboard-response","123","254760","0.0-4.0-1.0-0.34","3","1","680or5kyaf1d7b1","","null","","sounds/induction/left/ni_SWS.wav","","null","","","","","","","","","","","","","","","","","","","","","","","","","","","","","","","","","","","","","","","","","",""
"html-button-response","124","256121","0.0-4.0-1.0-1.34","3","1","680or5kyaf1d7b1","","1360","","What sound did you hear?","1","","","1","INDUCTION-JUDGMENT","left","1","","","","","","","","","","","","","","","","","","","","","","","","","","","","","","","","","","","","",""
"html-keyboard-response","125","257124","0.0-4.0-1.0-2.34","3","1","680or5kyaf1d7b1","","null","","<p style=""color:green;""><b>Correct!</b></p>","","null","","","","","","","","","","","","","","","","","","","","","","","","","","","","","","","","","","","","","","","","","",""
"audio-keyboard-response","126","257928","0.0-4.0-1.0-0.35","3","1","680or5kyaf1d7b1","","null","","sounds/induction/left/re_SWS.wav","","null","","","","","","","","","","","","","","","","","","","","","","","","","","","","","","","","","","","","","","","","","",""
"html-button-response","127","259683","0.0-4.0-1.0-1.35","3","1","680or5kyaf1d7b1","","1753","","What sound did you hear?","1","","","0","INDUCTION-JUDGMENT","left","0","","","","","","","","","","","","","","","","","","","","","","","","","","","","","","","","","","","","",""
"html-keyboard-response","128","260685","0.0-4.0-1.0-2.35","3","1","680or5kyaf1d7b1","","null","","<p style=""color:red;""><b>Incorrect!</b></p>","","null","","","","","","","","","","","","","","","","","","","","","","","","","","","","","","","","","","","","","","","","","",""
"audio-keyboard-response","129","261490","0.0-4.0-1.0-0.36","3","1","680or5kyaf1d7b1","","null","","sounds/induction/left/me_SWS.wav","","null","","","","","","","","","","","","","","","","","","","","","","","","","","","","","","","","","","","","","","","","","",""
"html-button-response","130","262662","0.0-4.0-1.0-1.36","3","1","680or5kyaf1d7b1","","1170","","What sound did you hear?","1","","","1","INDUCTION-JUDGMENT","left","1","","","","","","","","","","","","","","","","","","","","","","","","","","","","","","","","","","","","",""
"html-keyboard-response","131","263664","0.0-4.0-1.0-2.36","3","1","680or5kyaf1d7b1","","null","","<p style=""color:green;""><b>Correct!</b></p>","","null","","","","","","","","","","","","","","","","","","","","","","","","","","","","","","","","","","","","","","","","","",""
"audio-keyboard-response","132","264466","0.0-4.0-1.0-0.37","3","1","680or5kyaf1d7b1","","null","","sounds/induction/right/ru_SWS.wav","","null","","","","","","","","","","","","","","","","","","","","","","","","","","","","","","","","","","","","","","","","","",""
"html-button-response","133","265458","0.0-4.0-1.0-1.37","3","1","680or5kyaf1d7b1","","990","","What sound did you hear?","1","","","1","INDUCTION-JUDGMENT","right","1","","","","","","","","","","","","","","","","","","","","","","","","","","","","","","","","","","","","",""
"html-keyboard-response","134","266460","0.0-4.0-1.0-2.37","3","1","680or5kyaf1d7b1","","null","","<p style=""color:green;""><b>Correct!</b></p>","","null","","","","","","","","","","","","","","","","","","","","","","","","","","","","","","","","","","","","","","","","","",""
"audio-keyboard-response","135","267261","0.0-4.0-1.0-0.38","3","1","680or5kyaf1d7b1","","null","","sounds/induction/right/ge_SWS.wav","","null","","","","","","","","","","","","","","","","","","","","","","","","","","","","","","","","","","","","","","","","","",""
"html-button-response","136","268560","0.0-4.0-1.0-1.38","3","1","680or5kyaf1d7b1","","1297","","What sound did you hear?","0","","","1","INDUCTION-JUDGMENT","right","0","","","","","","","","","","","","","","","","","","","","","","","","","","","","","","","","","","","","",""
"html-keyboard-response","137","269563","0.0-4.0-1.0-2.38","3","1","680or5kyaf1d7b1","","null","","<p style=""color:green;""><b>Correct!</b></p>","","null","","","","","","","","","","","","","","","","","","","","","","","","","","","","","","","","","","","","","","","","","",""
"audio-keyboard-response","138","270365","0.0-4.0-1.0-0.39","3","1","680or5kyaf1d7b1","","null","","sounds/induction/right/fe_SWS.wav","","null","","","","","","","","","","","","","","","","","","","","","","","","","","","","","","","","","","","","","","","","","",""
"html-button-response","139","271402","0.0-4.0-1.0-1.39","3","1","680or5kyaf1d7b1","","1035","","What sound did you hear?","0","","","1","INDUCTION-JUDGMENT","right","0","","","","","","","","","","","","","","","","","","","","","","","","","","","","","","","","","","","","",""
"html-keyboard-response","140","272404","0.0-4.0-1.0-2.39","3","1","680or5kyaf1d7b1","","null","","<p style=""color:green;""><b>Correct!</b></p>","","null","","","","","","","","","","","","","","","","","","","","","","","","","","","","","","","","","","","","","","","","","",""
"audio-keyboard-response","141","273213","0.0-4.0-1.0-0.40","3","1","680or5kyaf1d7b1","","null","","sounds/induction/left/ge_SWS.wav","","null","","","","","","","","","","","","","","","","","","","","","","","","","","","","","","","","","","","","","","","","","",""
"html-button-response","142","274312","0.0-4.0-1.0-1.40","3","1","680or5kyaf1d7b1","","1097","","What sound did you hear?","1","","","1","INDUCTION-JUDGMENT","left","1","","","","","","","","","","","","","","","","","","","","","","","","","","","","","","","","","","","","",""
"html-keyboard-response","143","275314","0.0-4.0-1.0-2.40","3","1","680or5kyaf1d7b1","","null","","<p style=""color:green;""><b>Correct!</b></p>","","null","","","","","","","","","","","","","","","","","","","","","","","","","","","","","","","","","","","","","","","","","",""
"audio-keyboard-response","144","276125","0.0-4.0-1.0-0.41","3","1","680or5kyaf1d7b1","","null","","sounds/induction/left/ta_SWS.wav","","null","","","","","","","","","","","","","","","","","","","","","","","","","","","","","","","","","","","","","","","","","",""
"html-button-response","145","277453","0.0-4.0-1.0-1.41","3","1","680or5kyaf1d7b1","","1326","","What sound did you hear?","0","","","1","INDUCTION-JUDGMENT","left","0","","","","","","","","","","","","","","","","","","","","","","","","","","","","","","","","","","","","",""
"html-keyboard-response","146","278456","0.0-4.0-1.0-2.41","3","1","680or5kyaf1d7b1","","null","","<p style=""color:green;""><b>Correct!</b></p>","","null","","","","","","","","","","","","","","","","","","","","","","","","","","","","","","","","","","","","","","","","","",""
"audio-keyboard-response","147","279261","0.0-4.0-1.0-0.42","3","1","680or5kyaf1d7b1","","null","","sounds/induction/right/ru_SWS.wav","","null","","","","","","","","","","","","","","","","","","","","","","","","","","","","","","","","","","","","","","","","","",""
"html-button-response","148","280706","0.0-4.0-1.0-1.42","3","1","680or5kyaf1d7b1","","1444","","What sound did you hear?","1","","","1","INDUCTION-JUDGMENT","right","1","","","","","","","","","","","","","","","","","","","","","","","","","","","","","","","","","","","","",""
"html-keyboard-response","149","281709","0.0-4.0-1.0-2.42","3","1","680or5kyaf1d7b1","","null","","<p style=""color:green;""><b>Correct!</b></p>","","null","","","","","","","","","","","","","","","","","","","","","","","","","","","","","","","","","","","","","","","","","",""
"audio-keyboard-response","150","282514","0.0-4.0-1.0-0.43","3","1","680or5kyaf1d7b1","","null","","sounds/induction/left/ru_SWS.wav","","null","","","","","","","","","","","","","","","","","","","","","","","","","","","","","","","","","","","","","","","","","",""
"html-button-response","151","283720","0.0-4.0-1.0-1.43","3","1","680or5kyaf1d7b1","","1204","","What sound did you hear?","0","","","1","INDUCTION-JUDGMENT","left","0","","","","","","","","","","","","","","","","","","","","","","","","","","","","","","","","","","","","",""
"html-keyboard-response","152","284722","0.0-4.0-1.0-2.43","3","1","680or5kyaf1d7b1","","null","","<p style=""color:green;""><b>Correct!</b></p>","","null","","","","","","","","","","","","","","","","","","","","","","","","","","","","","","","","","","","","","","","","","",""
"audio-keyboard-response","153","285533","0.0-4.0-1.0-0.44","3","1","680or5kyaf1d7b1","","null","","sounds/induction/right/ko_SWS.wav","","null","","","","","","","","","","","","","","","","","","","","","","","","","","","","","","","","","","","","","","","","","",""
"html-button-response","154","286805","0.0-4.0-1.0-1.44","3","1","680or5kyaf1d7b1","","1270.9999999999418","","What sound did you hear?","0","","","1","INDUCTION-JUDGMENT","right","0","","","","","","","","","","","","","","","","","","","","","","","","","","","","","","","","","","","","",""
"html-keyboard-response","155","287808","0.0-4.0-1.0-2.44","3","1","680or5kyaf1d7b1","","null","","<p style=""color:green;""><b>Correct!</b></p>","","null","","","","","","","","","","","","","","","","","","","","","","","","","","","","","","","","","","","","","","","","","",""
"audio-keyboard-response","156","288616","0.0-4.0-1.0-0.45","3","1","680or5kyaf1d7b1","","null","","sounds/induction/left/fe_SWS.wav","","null","","","","","","","","","","","","","","","","","","","","","","","","","","","","","","","","","","","","","","","","","",""
"html-button-response","157","290221","0.0-4.0-1.0-1.45","3","1","680or5kyaf1d7b1","","1604","","What sound did you hear?","1","","","1","INDUCTION-JUDGMENT","left","1","","","","","","","","","","","","","","","","","","","","","","","","","","","","","","","","","","","","",""
"html-keyboard-response","158","291223","0.0-4.0-1.0-2.45","3","1","680or5kyaf1d7b1","","null","","<p style=""color:green;""><b>Correct!</b></p>","","null","","","","","","","","","","","","","","","","","","","","","","","","","","","","","","","","","","","","","","","","","",""
"audio-keyboard-response","159","292029","0.0-4.0-1.0-0.46","3","1","680or5kyaf1d7b1","","null","","sounds/induction/right/fu_SWS.wav","","null","","","","","","","","","","","","","","","","","","","","","","","","","","","","","","","","","","","","","","","","","",""
"html-button-response","160","293111","0.0-4.0-1.0-1.46","3","1","680or5kyaf1d7b1","","1082","","What sound did you hear?","0","","","1","INDUCTION-JUDGMENT","right","0","","","","","","","","","","","","","","","","","","","","","","","","","","","","","","","","","","","","",""
"html-keyboard-response","161","294113","0.0-4.0-1.0-2.46","3","1","680or5kyaf1d7b1","","null","","<p style=""color:green;""><b>Correct!</b></p>","","null","","","","","","","","","","","","","","","","","","","","","","","","","","","","","","","","","","","","","","","","","",""
"audio-keyboard-response","162","294920","0.0-4.0-1.0-0.47","3","1","680or5kyaf1d7b1","","null","","sounds/induction/right/re_SWS.wav","","null","","","","","","","","","","","","","","","","","","","","","","","","","","","","","","","","","","","","","","","","","",""
"html-button-response","163","296670","0.0-4.0-1.0-1.47","3","1","680or5kyaf1d7b1","","1748.9999999999418","","What sound did you hear?","1","","","1","INDUCTION-JUDGMENT","right","1","","","","","","","","","","","","","","","","","","","","","","","","","","","","","","","","","","","","",""
"html-keyboard-response","164","297671","0.0-4.0-1.0-2.47","3","1","680or5kyaf1d7b1","","null","","<p style=""color:green;""><b>Correct!</b></p>","","null","","","","","","","","","","","","","","","","","","","","","","","","","","","","","","","","","","","","","","","","","",""
"html-button-response","165","310793","0.0-5.0-0.0","3","1","680or5kyaf1d7b1","","12620","","<p>Thank you for your answers.</p><p>You will now listen to similar sounds. The main difference is that the sounds will be longer and will make up complete sentences.</p><p>Please listen carefully to each sentence. After each sentence, you will be asked to type back what you heard to the best of your ability. After you provide your response, you will be given feedback about the correct answer.</p><p>There are 10 sentences in total.","0","","","","","","","","","","","","","","","","","","","","","","","","","","","","","","","","","","","","","","","","","","",""
"audio-keyboard-response","166","313544","0.0-5.0-1.0-0.0","3","1","680or5kyaf1d7b1","","null","","sounds/sentences/right/14_06_cfSWS.wav","","null","","","","","","","","","","","","","","","","","","","","","","","","","","","","","","","","","","","","","","","","","",""
"sentence-resp","167","329269","0.0-5.0-1.0-1.0","3","1","680or5kyaf1d7b1","","15722","","","","","","","SWS-SENT-RESPONSE","","","{""Q0"":""please me why foo""}","Bring your problems to the wise chief.","bring,your,problems,wise,chief","PLEASE ME WHY FOO","0","0","0","0","0","0","0","","","","","","","","","","","","","","","","","","","","","","","","","",""
"html-keyboard-response","168","330523","0.0-5.0-1.0-2.0","3","1","680or5kyaf1d7b1","","null","","","","null","","","","","","","","","","","","","","","","","","","","","","","","","","","","","","","","","","","","","","","","","",""
"audio-keyboard-response","169","332765","0.0-5.0-1.0-3.0","3","1","680or5kyaf1d7b1","","null","","sounds/sentences/right/14_06_cfSWS.wav","","null","","","","","","","","","","","","","","","","","","","","","","","","","","","","","","","","","","","","","","","","","",""
"html-keyboard-response","170","333768","0.0-5.0-1.0-4.0","3","1","680or5kyaf1d7b1","","null","","","","null","","","","","","","","","","","","","","","","","","","","","","","","","","","","","","","","","","","","","","","","","",""
"html-button-response","171","336199","0.0-5.0-1.0-5.0","3","1","680or5kyaf1d7b1","","1929","","<p>Press the button below when you are ready to continue.</p>","0","","","","","","","","","","","","","","","","","","","","","","","","","","","","","","","","","","","","","","","","","","",""
"audio-keyboard-response","172","339186","0.0-5.0-1.0-0.1","3","1","680or5kyaf1d7b1","","null","","sounds/sentences/left/14_05_cfSWS.wav","","null","","","","","","","","","","","","","","","","","","","","","","","","","","","","","","","","","","","","","","","","","",""
"sentence-resp","173","349392","0.0-5.0-1.0-1.1","3","1","680or5kyaf1d7b1","","10204","","","","","","","SWS-SENT-RESPONSE","","","{""Q0"":""we have have problems me moo""}","The glow deepened in the eyes of the sweet girl.","glow,deepened,eyes,sweet,girl","WE HAVE HAVE PROBLEMS ME MOO","0","0","0","0","0","0","0","","","","","","","","","","","","","","","","","","","","","","","","","",""
"html-keyboard-response","174","350645","0.0-5.0-1.0-2.1","3","1","680or5kyaf1d7b1","","null","","","","null","","","","","","","","","","","","","","","","","","","","","","","","","","","","","","","","","","","","","","","","","",""
"audio-keyboard-response","175","353139","0.0-5.0-1.0-3.1","3","1","680or5kyaf1d7b1","","null","","sounds/sentences/left/14_05_cfSWS.wav","","null","","","","","","","","","","","","","","","","","","","","","","","","","","","","","","","","","","","","","","","","","",""
"html-keyboard-response","176","354142","0.0-5.0-1.0-4.1","3","1","680or5kyaf1d7b1","","null","","","","null","","","","","","","","","","","","","","","","","","","","","","","","","","","","","","","","","","","","","","","","","",""
"html-button-response","177","355578","0.0-5.0-1.0-5.1","3","1","680or5kyaf1d7b1","","934","","<p>Press the button below when you are ready to continue.</p>","0","","","","","","","","","","","","","","","","","","","","","","","","","","","","","","","","","","","","","","","","","","",""
"audio-keyboard-response","178","358397","0.0-5.0-1.0-0.2","3","1","680or5kyaf1d7b1","","null","","sounds/sentences/left/14_02_cfSWS.wav","","null","","","","","","","","","","","","","","","","","","","","","","","","","","","","","","","","","","","","","","","","","",""
"sentence-resp","179","369859","0.0-5.0-1.0-1.2","3","1","680or5kyaf1d7b1","","11460","","","","","","","SWS-SENT-RESPONSE","","","{""Q0"":""the glow depends on the eyes of the sweet girl""}","He said the same phrase thirty times.","said,same,phrase,thirty,times","THE GLOW DEPENDS ON THE EYES OF THE SWEET GIRL","0","0","0","0","0","0","0","","","","","","","","","","","","","","","","","","","","","","","","","",""
"html-keyboard-response","180","371113","0.0-5.0-1.0-2.2","3","1","680or5kyaf1d7b1","","null","","","","null","","","","","","","","","","","","","","","","","","","","","","","","","","","","","","","","","","","","","","","","","",""
"audio-keyboard-response","181","373437","0.0-5.0-1.0-3.2","3","1","680or5kyaf1d7b1","","null","","sounds/sentences/left/14_02_cfSWS.wav","","null","","","","","","","","","","","","","","","","","","","","","","","","","","","","","","","","","","","","","","","","","",""
"html-keyboard-response","182","374440","0.0-5.0-1.0-4.2","3","1","680or5kyaf1d7b1","","null","","","","null","","","","","","","","","","","","","","","","","","","","","","","","","","","","","","","","","","","","","","","","","",""
"html-button-response","183","376721","0.0-5.0-1.0-5.2","3","1","680or5kyaf1d7b1","","1779","","<p>Press the button below when you are ready to continue.</p>","0","","","","","","","","","","","","","","","","","","","","","","","","","","","","","","","","","","","","","","","","","","",""
"audio-keyboard-response","184","379730","0.0-5.0-1.0-0.3","3","1","680or5kyaf1d7b1","","null","","sounds/sentences/right/14_10_cfSWS.wav","","null","","","","","","","","","","","","","","","","","","","","","","","","","","","","","","","","","","","","","","","","","",""
"sentence-resp","185","389420","0.0-5.0-1.0-1.3","3","1","680or5kyaf1d7b1","","9689","","","","","","","SWS-SENT-RESPONSE","","","{""Q0"":""strong line with a smokey taste""}","Port is a strong wine with a smoky taste.","port,strong,wine,smoky,taste","STRONG LINE WITH A SMOKEY TASTE","0","1","0","0","1","2","0.4","","","","","","","","","","","","","","","","","","","","","","","","","",""
"html-keyboard-response","186","390673","0.0-5.0-1.0-2.3","3","1","680or5kyaf1d7b1","","null","","","","null","","","","","","","","","","","","","","","","","","","","","","","","","","","","","","","","","","","","","","","","","",""
"audio-keyboard-response","187","393192","0.0-5.0-1.0-3.3","3","1","680or5kyaf1d7b1","","null","","sounds/sentences/right/14_10_cfSWS.wav","","null","","","","","","","","","","","","","","","","","","","","","","","","","","","","","","","","","","","","","","","","","",""
"html-keyboard-response","188","394194","0.0-5.0-1.0-4.3","3","1","680or5kyaf1d7b1","","null","","","","null","","","","","","","","","","","","","","","","","","","","","","","","","","","","","","","","","","","","","","","","","",""
"html-button-response","189","396170","0.0-5.0-1.0-5.3","3","1","680or5kyaf1d7b1","","1474.0000000000582","","<p>Press the button below when you are ready to continue.</p>","0","","","","","","","","","","","","","","","","","","","","","","","","","","","","","","","","","","","","","","","","","","",""
"audio-keyboard-response","190","398898","0.0-5.0-1.0-0.4","3","1","680or5kyaf1d7b1","","null","","sounds/sentences/right/14_09_cfSWS.wav","","null","","","","","","","","","","","","","","","","","","","","","","","","","","","","","","","","","","","","","","","","","",""
"sentence-resp","191","407723","0.0-5.0-1.0-1.4","3","1","680or5kyaf1d7b1","","8823","","","","","","","SWS-SENT-RESPONSE","","","{""Q0"":""we love thrill and to take adventures""}","We frown when events take a bad turn.","frown,events,take,bad,turn","WE LOVE THRILL AND TO TAKE ADVENTURES","0","0","1","0","0","1","0.2","","","","","","","","","","","","","","","","","","","","","","","","","",""
"html-keyboard-response","192","408976","0.0-5.0-1.0-2.4","3","1","680or5kyaf1d7b1","","null","","","","null","","","","","","","","","","","","","","","","","","","","","","","","","","","","","","","","","","","","","","","","","",""
"audio-keyboard-response","193","411197","0.0-5.0-1.0-3.4","3","1","680or5kyaf1d7b1","","null","","sounds/sentences/right/14_09_cfSWS.wav","","null","","","","","","","","","","","","","","","","","","","","","","","","","","","","","","","","","","","","","","","","","",""
"html-keyboard-response","194","412200","0.0-5.0-1.0-4.4","3","1","680or5kyaf1d7b1","","null","","","","null","","","","","","","","","","","","","","","","","","","","","","","","","","","","","","","","","","","","","","","","","",""
"html-button-response","195","413980","0.0-5.0-1.0-5.4","3","1","680or5kyaf1d7b1","","1278","","<p>Press the button below when you are ready to continue.</p>","0","","","","","","","","","","","","","","","","","","","","","","","","","","","","","","","","","","","","","","","","","","",""
"audio-keyboard-response","196","416861","0.0-5.0-1.0-0.5","3","1","680or5kyaf1d7b1","","null","","sounds/sentences/right/14_07_cfSWS.wav","","null","","","","","","","","","","","","","","","","","","","","","","","","","","","","","","","","","","","","","","","","","",""
"sentence-resp","197","430491","0.0-5.0-1.0-1.5","3","1","680or5kyaf1d7b1","","13629","","","","","","","SWS-SENT-RESPONSE","","","{""Q0"":""the father is a friend you cherish""}","Write a fond note to the friend you cherish.","write,fond,note,friend,cherish","THE FATHER IS A FRIEND YOU CHERISH","0","0","0","1","1","2","0.4","","","","","","","","","","","","","","","","","","","","","","","","","",""
"html-keyboard-response","198","431744","0.0-5.0-1.0-2.5","3","1","680or5kyaf1d7b1","","null","","","","null","","","","","","","","","","","","","","","","","","","","","","","","","","","","","","","","","","","","","","","","","",""
"audio-keyboard-response","199","434131","0.0-5.0-1.0-3.5","3","1","680or5kyaf1d7b1","","null","","sounds/sentences/right/14_07_cfSWS.wav","","null","","","","","","","","","","","","","","","","","","","","","","","","","","","","","","","","","","","","","","","","","",""
"html-keyboard-response","200","435133","0.0-5.0-1.0-4.5","3","1","680or5kyaf1d7b1","","null","","","","null","","","","","","","","","","","","","","","","","","","","","","","","","","","","","","","","","","","","","","","","","",""
"html-button-response","201","437148","0.0-5.0-1.0-5.5","3","1","680or5kyaf1d7b1","","1512","","<p>Press the button below when you are ready to continue.</p>","0","","","","","","","","","","","","","","","","","","","","","","","","","","","","","","","","","","","","","","","","","","",""
"audio-keyboard-response","202","439709","0.0-5.0-1.0-0.6","3","1","680or5kyaf1d7b1","","null","","sounds/sentences/left/14_04_cfSWS.wav","","null","","","","","","","","","","","","","","","","","","","","","","","","","","","","","","","","","","","","","","","","","",""
"sentence-resp","203","449551","0.0-5.0-1.0-1.6","3","1","680or5kyaf1d7b1","","9840","","","","","","","SWS-SENT-RESPONSE","","","{""Q0"":""two plus seven is less than ten""}","Two plus seven is less than ten.","two,plus,seven,less,ten","TWO PLUS SEVEN IS LESS THAN TEN","1","1","1","1","1","5","1","","","","","","","","","","","","","","","","","","","","","","","","","",""
"html-keyboard-response","204","450803","0.0-5.0-1.0-2.6","3","1","680or5kyaf1d7b1","","null","","","","null","","","","","","","","","","","","","","","","","","","","","","","","","","","","","","","","","","","","","","","","","",""
"audio-keyboard-response","205","452861","0.0-5.0-1.0-3.6","3","1","680or5kyaf1d7b1","","null","","sounds/sentences/left/14_04_cfSWS.wav","","null","","","","","","","","","","","","","","","","","","","","","","","","","","","","","","","","","","","","","","","","","",""
"html-keyboard-response","206","453864","0.0-5.0-1.0-4.6","3","1","680or5kyaf1d7b1","","null","","","","null","","","","","","","","","","","","","","","","","","","","","","","","","","","","","","","","","","","","","","","","","",""
"html-button-response","207","455629","0.0-5.0-1.0-5.6","3","1","680or5kyaf1d7b1","","1262","","<p>Press the button below when you are ready to continue.</p>","0","","","","","","","","","","","","","","","","","","","","","","","","","","","","","","","","","","","","","","","","","","",""
"audio-keyboard-response","208","458216","0.0-5.0-1.0-0.7","3","1","680or5kyaf1d7b1","","null","","sounds/sentences/left/14_03_cfSWS.wav","","null","","","","","","","","","","","","","","","","","","","","","","","","","","","","","","","","","","","","","","","","","",""
"sentence-resp","209","466870","0.0-5.0-1.0-1.7","3","1","680or5kyaf1d7b1","","8653","","","","","","","SWS-SENT-RESPONSE","","","{""Q0"":""we like to harvest leaves""}","Pluck the bright rose without leaves.","pluck,bright,rose,without,leaves","WE LIKE TO HARVEST LEAVES","0","0","0","0","1","1","0.2","","","","","","","","","","","","","","","","","","","","","","","","","",""
"html-keyboard-response","210","468124","0.0-5.0-1.0-2.7","3","1","680or5kyaf1d7b1","","null","","","","null","","","","","","","","","","","","","","","","","","","","","","","","","","","","","","","","","","","","","","","","","",""
"audio-keyboard-response","211","470205","0.0-5.0-1.0-3.7","3","1","680or5kyaf1d7b1","","null","","sounds/sentences/left/14_03_cfSWS.wav","","null","","","","","","","","","","","","","","","","","","","","","","","","","","","","","","","","","","","","","","","","","",""
"html-keyboard-response","212","471208","0.0-5.0-1.0-4.7","3","1","680or5kyaf1d7b1","","null","","","","null","","","","","","","","","","","","","","","","","","","","","","","","","","","","","","","","","","","","","","","","","",""
"html-button-response","213","473902","0.0-5.0-1.0-5.7","3","1","680or5kyaf1d7b1","","2193","","<p>Press the button below when you are ready to continue.</p>","0","","","","","","","","","","","","","","","","","","","","","","","","","","","","","","","","","","","","","","","","","","",""
"audio-keyboard-response","214","477021","0.0-5.0-1.0-0.8","3","1","680or5kyaf1d7b1","","null","","sounds/sentences/left/14_01_cfSWS.wav","","null","","","","","","","","","","","","","","","","","","","","","","","","","","","","","","","","","","","","","","","","","",""
"sentence-resp","215","487833","0.0-5.0-1.0-1.8","3","1","680or5kyaf1d7b1","","10810","","","","","","","SWS-SENT-RESPONSE","","","{""Q0"":""the crabs nose it too small to know how to swim""}","A cramp is no small danger on a swim.","cramp,no,small,danger,swim","THE CRABS NOSE IT TOO SMALL TO KNOW HOW TO SWIM","0","0","1","0","1","2","0.4","","","","","","","","","","","","","","","","","","","","","","","","","",""
"html-keyboard-response","216","489087","0.0-5.0-1.0-2.8","3","1","680or5kyaf1d7b1","","null","","","","null","","","","","","","","","","","","","","","","","","","","","","","","","","","","","","","","","","","","","","","","","",""
"audio-keyboard-response","217","491709","0.0-5.0-1.0-3.8","3","1","680or5kyaf1d7b1","","null","","sounds/sentences/left/14_01_cfSWS.wav","","null","","","","","","","","","","","","","","","","","","","","","","","","","","","","","","","","","","","","","","","","","",""
"html-keyboard-response","218","492711","0.0-5.0-1.0-4.8","3","1","680or5kyaf1d7b1","","null","","","","null","","","","","","","","","","","","","","","","","","","","","","","","","","","","","","","","","","","","","","","","","",""
"html-button-response","219","494336","0.0-5.0-1.0-5.8","3","1","680or5kyaf1d7b1","","1121.9999999999418","","<p>Press the button below when you are ready to continue.</p>","0","","","","","","","","","","","","","","","","","","","","","","","","","","","","","","","","","","","","","","","","","","",""
"audio-keyboard-response","220","497096","0.0-5.0-1.0-0.9","3","1","680or5kyaf1d7b1","","null","","sounds/sentences/right/14_08_cfSWS.wav","","null","","","","","","","","","","","","","","","","","","","","","","","","","","","","","","","","","","","","","","","","","",""
"sentence-resp","221","510655","0.0-5.0-1.0-1.9","3","1","680or5kyaf1d7b1","","13558","","","","","","","SWS-SENT-RESPONSE","","","{""Q0"":""majong is new event""}","Clothes and lodging are free to new men.","clothes,lodging,free,new,men","MAJONG IS NEW EVENT","0","0","0","1","0","1","0.2","","","","","","","","","","","","","","","","","","","","","","","","","",""
"html-keyboard-response","222","511909","0.0-5.0-1.0-2.9","3","1","680or5kyaf1d7b1","","null","","","","null","","","","","","","","","","","","","","","","","","","","","","","","","","","","","","","","","","","","","","","","","",""
"audio-keyboard-response","223","514163","0.0-5.0-1.0-3.9","3","1","680or5kyaf1d7b1","","null","","sounds/sentences/right/14_08_cfSWS.wav","","null","","","","","","","","","","","","","","","","","","","","","","","","","","","","","","","","","","","","","","","","","",""
"html-keyboard-response","224","515166","0.0-5.0-1.0-4.9","3","1","680or5kyaf1d7b1","","null","","","","null","","","","","","","","","","","","","","","","","","","","","","","","","","","","","","","","","","","","","","","","","",""
"html-button-response","225","516973","0.0-5.0-1.0-5.9","3","1","680or5kyaf1d7b1","","1305","","<p>Press the button below when you are ready to continue.</p>","0","","","","","","","","","","","","","","","","","","","","","","","","","","","","","","","","","","","","","","","","","","",""
"html-keyboard-response","226","532325","0.0-6.0-0.0","3","1","680or5kyaf1d7b1","","14850","","<p>In this part of the study, you will hear sounds similar to those you just heard.</p><p>Please focus on these sounds, as you may be asked questions about them later.</p><p>Occasionally, the sounds will pause for up to two seconds. When this happens, please press SPACEBAR as quickly as you can.</br>This helps ensure that you are paying attention to the sounds.</p><p>This part of the study will take about 12 minutes to complete, and you will be given the opportunity to take a couple of short breaks every few minutes.</p><p><strong>Press SPACEBAR to begin</strong></p>","","32","","","","","","","","","","","","","","","","","","","","","","","","","","","","","","","","","","","","","","","","","",""
"html-keyboard-response","227","533328","0.0-6.0-1.0-0.0","3","1","680or5kyaf1d7b1","","null","","<p style=""font-size: 40px;"">+</p>","","null","","","","","","","","","","","","","","","","","","","","","","","","","","","","","","","","","","","","","","","","","",""
"html-keyboard-response","228","718333","0.0-6.0-1.0-1.0","3","1","680or5kyaf1d7b1","","null","","","","null","","","SL-TRAIN","","","","","","","","","","","","","","2","null","null","sounds/C/TRAIN/SEQ__11.mp3","305","","","","","","","","","","","","","","","","","","","","",""
"html-button-response","229","722251","0.0-6.0-1.0-2.0","3","1","680or5kyaf1d7b1","","3915","","<p>You may take a short break if you wish.</p>","0","","","","","","","","","","","","","","","","","","","","","","","","","","","","","","","","","","","","","","","","","","",""
"html-keyboard-response","230","723253","0.0-6.0-1.0-3.0","3","1","680or5kyaf1d7b1","","null","","<p style=""font-size: 40px;"">+</p>","","null","","","","","","","","","","","","","","","","","","","","","","","","","","","","","","","","","","","","","","","","","",""
"html-keyboard-response","231","908256","0.0-6.0-1.0-4.0","3","1","680or5kyaf1d7b1","","null","","","","null","","","SL-TRAIN","","","","","","","","","","","","","","1","846","null","sounds/C/TRAIN/SEQ__03.mp3","495","","","","","","","","","","","","","","","","","","","","",""
"html-button-response","232","910516","0.0-6.0-1.0-5.0","3","1","680or5kyaf1d7b1","","2257.0000000001164","","<p>You may take a short break if you wish.</p>","0","","","","","","","","","","","","","","","","","","","","","","","","","","","","","","","","","","","","","","","","","","",""
"html-keyboard-response","233","911519","0.0-6.0-1.0-6.0","3","1","680or5kyaf1d7b1","","null","","<p style=""font-size: 40px;"">+</p>","","null","","","","","","","","","","","","","","","","","","","","","","","","","","","","","","","","","","","","","","","","","",""
"html-keyboard-response","234","1096521","0.0-6.0-1.0-7.0","3","1","680or5kyaf1d7b1","","null","","","","null","","","SL-TRAIN","","","","","","","","","","","","","","2","null","null","sounds/C/TRAIN/SEQ__04.mp3","330","","","","","","","","","","","","","","","","","","","","",""
"html-button-response","235","1098908","0.0-6.0-1.0-8.0","3","1","680or5kyaf1d7b1","","2384.999999999767","","<p>You may take a short break if you wish.</p>","0","","","","","","","","","","","","","","","","","","","","","","","","","","","","","","","","","","","","","","","","","","",""
"html-keyboard-response","236","1099911","0.0-6.0-1.0-9.0","3","1","680or5kyaf1d7b1","","null","","<p style=""font-size: 40px;"">+</p>","","null","","","","","","","","","","","","","","","","","","","","","","","","","","","","","","","","","","","","","","","","","",""
"html-keyboard-response","237","1284916","0.0-6.0-1.0-10.0","3","1","680or5kyaf1d7b1","","null","","","","null","","","SL-TRAIN","","","","","","","","","","","","","","2","null","null","sounds/C/TRAIN/SEQ__07.mp3","655","","","","","","","","","","","","","","","","","","","","",""
"html-button-response","238","1286808","0.0-6.0-1.0-11.0","3","1","680or5kyaf1d7b1","","1887","","<p>You may take a short break if you wish.</p>","0","","","","","","","","","","","","","","","","","","","","","","","","","","","","","","","","","","","","","","","","","","",""
"html-button-response","239","1292949","0.0-7.0-0.0","3","1","680or5kyaf1d7b1","","6139","","<p>Welcome to the second part of the study. This is a <u>familiarity task</u>.</p><p>You will now hear short sounds and will be asked to rate how familiar they sound to you <b>based on what you heard in the previous part of the study</b>.</p><p>You will rate 12 sounds in total.</p>","0","","","","","","","","","","","","","","","","","","","","","","","","","","","","","","","","","","","","","","","","","","",""
"html-keyboard-response","240","1293951","0.0-7.0-1.0-0.0","3","1","680or5kyaf1d7b1","","null","","","","null","","","","","","","","","","","","","","","","","","","","","","","","","","","","","","","","","","","","","","","","","",""
"audio-keyboard-response","241","1294899","0.0-7.0-1.0-1.0","3","1","680or5kyaf1d7b1","","null","","sounds/C/FAM/N004.mp3","","null","","","","","","","","","","","","","","","","","","","","","","","","","","","","","","","","","","","","","","","","","",""
"html-keyboard-response","242","1301264","0.0-7.0-1.0-2.0","3","1","680or5kyaf1d7b1","","5863.000000000233","","<p>How familiar did this sound to you?</p><p>1&nbsp;&nbsp;&nbsp;&nbsp;&nbsp;&nbsp;&nbsp;&nbsp;&nbsp;&nbsp;&nbsp;&nbsp;&nbsp;&nbsp;&nbsp;&nbsp;&nbsp;&nbsp;&nbsp;2&nbsp;&nbsp;&nbsp;&nbsp;&nbsp;&nbsp;&nbsp;&nbsp;&nbsp;&nbsp;&nbsp;&nbsp;&nbsp;&nbsp;&nbsp;&nbsp;&nbsp;&nbsp;&nbsp;3&nbsp;&nbsp;&nbsp;&nbsp;&nbsp;&nbsp;&nbsp;&nbsp;&nbsp;&nbsp;&nbsp;&nbsp;&nbsp;&nbsp;&nbsp;&nbsp;&nbsp;&nbsp;&nbsp;4</p><p style=""font-size:14px"">Not at all familiar&nbsp;&nbsp;&nbsp;&nbsp;A little familiar&nbsp;&nbsp;&nbsp;Moderately familiar&nbsp;&nbsp;&nbsp;Extremely familiar</p><p>(press the corresponding number on your keyboard)</p>","","51","","","FAM-RESPONSE","","","","","","","","","","","","","","","","","","","sounds/C/FAM/N004.mp3","nonword","","","","","","","","","","","","","","","","","","",""
"html-keyboard-response","243","1303267","0.0-7.0-1.0-0.1","3","1","680or5kyaf1d7b1","","null","","","","null","","","","","","","","","","","","","","","","","","","","","","","","","","","","","","","","","","","","","","","","","",""
"audio-keyboard-response","244","1304210","0.0-7.0-1.0-1.1","3","1","680or5kyaf1d7b1","","null","","sounds/C/FAM/N001.mp3","","null","","","","","","","","","","","","","","","","","","","","","","","","","","","","","","","","","","","","","","","","","",""
"html-keyboard-response","245","1305884","0.0-7.0-1.0-2.1","3","1","680or5kyaf1d7b1","","1171","","<p>How familiar did this sound to you?</p><p>1&nbsp;&nbsp;&nbsp;&nbsp;&nbsp;&nbsp;&nbsp;&nbsp;&nbsp;&nbsp;&nbsp;&nbsp;&nbsp;&nbsp;&nbsp;&nbsp;&nbsp;&nbsp;&nbsp;2&nbsp;&nbsp;&nbsp;&nbsp;&nbsp;&nbsp;&nbsp;&nbsp;&nbsp;&nbsp;&nbsp;&nbsp;&nbsp;&nbsp;&nbsp;&nbsp;&nbsp;&nbsp;&nbsp;3&nbsp;&nbsp;&nbsp;&nbsp;&nbsp;&nbsp;&nbsp;&nbsp;&nbsp;&nbsp;&nbsp;&nbsp;&nbsp;&nbsp;&nbsp;&nbsp;&nbsp;&nbsp;&nbsp;4</p><p style=""font-size:14px"">Not at all familiar&nbsp;&nbsp;&nbsp;&nbsp;A little familiar&nbsp;&nbsp;&nbsp;Moderately familiar&nbsp;&nbsp;&nbsp;Extremely familiar</p><p>(press the corresponding number on your keyboard)</p>","","49","","","FAM-RESPONSE","","","","","","","","","","","","","","","","","","","sounds/C/FAM/N001.mp3","nonword","","","","","","","","","","","","","","","","","","",""
"html-keyboard-response","246","1307888","0.0-7.0-1.0-0.2","3","1","680or5kyaf1d7b1","","null","","","","null","","","","","","","","","","","","","","","","","","","","","","","","","","","","","","","","","","","","","","","","","",""
"audio-keyboard-response","247","1308829","0.0-7.0-1.0-1.2","3","1","680or5kyaf1d7b1","","null","","sounds/C/FAM/P002.mp3","","null","","","","","","","","","","","","","","","","","","","","","","","","","","","","","","","","","","","","","","","","","",""
"html-keyboard-response","248","1312362","0.0-7.0-1.0-2.2","3","1","680or5kyaf1d7b1","","3030.999999999767","","<p>How familiar did this sound to you?</p><p>1&nbsp;&nbsp;&nbsp;&nbsp;&nbsp;&nbsp;&nbsp;&nbsp;&nbsp;&nbsp;&nbsp;&nbsp;&nbsp;&nbsp;&nbsp;&nbsp;&nbsp;&nbsp;&nbsp;2&nbsp;&nbsp;&nbsp;&nbsp;&nbsp;&nbsp;&nbsp;&nbsp;&nbsp;&nbsp;&nbsp;&nbsp;&nbsp;&nbsp;&nbsp;&nbsp;&nbsp;&nbsp;&nbsp;3&nbsp;&nbsp;&nbsp;&nbsp;&nbsp;&nbsp;&nbsp;&nbsp;&nbsp;&nbsp;&nbsp;&nbsp;&nbsp;&nbsp;&nbsp;&nbsp;&nbsp;&nbsp;&nbsp;4</p><p style=""font-size:14px"">Not at all familiar&nbsp;&nbsp;&nbsp;&nbsp;A little familiar&nbsp;&nbsp;&nbsp;Moderately familiar&nbsp;&nbsp;&nbsp;Extremely familiar</p><p>(press the corresponding number on your keyboard)</p>","","49","","","FAM-RESPONSE","","","","","","","","","","","","","","","","","","","sounds/C/FAM/P002.mp3","partword","","","","","","","","","","","","","","","","","","",""
"html-keyboard-response","249","1314364","0.0-7.0-1.0-0.3","3","1","680or5kyaf1d7b1","","null","","","","null","","","","","","","","","","","","","","","","","","","","","","","","","","","","","","","","","","","","","","","","","",""
"audio-keyboard-response","250","1315314","0.0-7.0-1.0-1.3","3","1","680or5kyaf1d7b1","","null","","sounds/C/FAM/P004.mp3","","null","","","","","","","","","","","","","","","","","","","","","","","","","","","","","","","","","","","","","","","","","",""
"html-keyboard-response","251","1317545","0.0-7.0-1.0-2.3","3","1","680or5kyaf1d7b1","","1728","","<p>How familiar did this sound to you?</p><p>1&nbsp;&nbsp;&nbsp;&nbsp;&nbsp;&nbsp;&nbsp;&nbsp;&nbsp;&nbsp;&nbsp;&nbsp;&nbsp;&nbsp;&nbsp;&nbsp;&nbsp;&nbsp;&nbsp;2&nbsp;&nbsp;&nbsp;&nbsp;&nbsp;&nbsp;&nbsp;&nbsp;&nbsp;&nbsp;&nbsp;&nbsp;&nbsp;&nbsp;&nbsp;&nbsp;&nbsp;&nbsp;&nbsp;3&nbsp;&nbsp;&nbsp;&nbsp;&nbsp;&nbsp;&nbsp;&nbsp;&nbsp;&nbsp;&nbsp;&nbsp;&nbsp;&nbsp;&nbsp;&nbsp;&nbsp;&nbsp;&nbsp;4</p><p style=""font-size:14px"">Not at all familiar&nbsp;&nbsp;&nbsp;&nbsp;A little familiar&nbsp;&nbsp;&nbsp;Moderately familiar&nbsp;&nbsp;&nbsp;Extremely familiar</p><p>(press the corresponding number on your keyboard)</p>","","52","","","FAM-RESPONSE","","","","","","","","","","","","","","","","","","","sounds/C/FAM/P004.mp3","partword","","","","","","","","","","","","","","","","","","",""
"html-keyboard-response","252","1319548","0.0-7.0-1.0-0.4","3","1","680or5kyaf1d7b1","","null","","","","null","","","","","","","","","","","","","","","","","","","","","","","","","","","","","","","","","","","","","","","","","",""
"audio-keyboard-response","253","1320498","0.0-7.0-1.0-1.4","3","1","680or5kyaf1d7b1","","null","","sounds/C/FAM/W001.mp3","","null","","","","","","","","","","","","","","","","","","","","","","","","","","","","","","","","","","","","","","","","","",""
"html-keyboard-response","254","1322783","0.0-7.0-1.0-2.4","3","1","680or5kyaf1d7b1","","1782.0000000002328","","<p>How familiar did this sound to you?</p><p>1&nbsp;&nbsp;&nbsp;&nbsp;&nbsp;&nbsp;&nbsp;&nbsp;&nbsp;&nbsp;&nbsp;&nbsp;&nbsp;&nbsp;&nbsp;&nbsp;&nbsp;&nbsp;&nbsp;2&nbsp;&nbsp;&nbsp;&nbsp;&nbsp;&nbsp;&nbsp;&nbsp;&nbsp;&nbsp;&nbsp;&nbsp;&nbsp;&nbsp;&nbsp;&nbsp;&nbsp;&nbsp;&nbsp;3&nbsp;&nbsp;&nbsp;&nbsp;&nbsp;&nbsp;&nbsp;&nbsp;&nbsp;&nbsp;&nbsp;&nbsp;&nbsp;&nbsp;&nbsp;&nbsp;&nbsp;&nbsp;&nbsp;4</p><p style=""font-size:14px"">Not at all familiar&nbsp;&nbsp;&nbsp;&nbsp;A little familiar&nbsp;&nbsp;&nbsp;Moderately familiar&nbsp;&nbsp;&nbsp;Extremely familiar</p><p>(press the corresponding number on your keyboard)</p>","","50","","","FAM-RESPONSE","","","","","","","","","","","","","","","","","","","sounds/C/FAM/W001.mp3","word","","","","","","","","","","","","","","","","","","",""
"html-keyboard-response","255","1324786","0.0-7.0-1.0-0.5","3","1","680or5kyaf1d7b1","","null","","","","null","","","","","","","","","","","","","","","","","","","","","","","","","","","","","","","","","","","","","","","","","",""
"audio-keyboard-response","256","1325736","0.0-7.0-1.0-1.5","3","1","680or5kyaf1d7b1","","null","","sounds/C/FAM/P003.mp3","","null","","","","","","","","","","","","","","","","","","","","","","","","","","","","","","","","","","","","","","","","","",""
"html-keyboard-response","257","1328795","0.0-7.0-1.0-2.5","3","1","680or5kyaf1d7b1","","2557","","<p>How familiar did this sound to you?</p><p>1&nbsp;&nbsp;&nbsp;&nbsp;&nbsp;&nbsp;&nbsp;&nbsp;&nbsp;&nbsp;&nbsp;&nbsp;&nbsp;&nbsp;&nbsp;&nbsp;&nbsp;&nbsp;&nbsp;2&nbsp;&nbsp;&nbsp;&nbsp;&nbsp;&nbsp;&nbsp;&nbsp;&nbsp;&nbsp;&nbsp;&nbsp;&nbsp;&nbsp;&nbsp;&nbsp;&nbsp;&nbsp;&nbsp;3&nbsp;&nbsp;&nbsp;&nbsp;&nbsp;&nbsp;&nbsp;&nbsp;&nbsp;&nbsp;&nbsp;&nbsp;&nbsp;&nbsp;&nbsp;&nbsp;&nbsp;&nbsp;&nbsp;4</p><p style=""font-size:14px"">Not at all familiar&nbsp;&nbsp;&nbsp;&nbsp;A little familiar&nbsp;&nbsp;&nbsp;Moderately familiar&nbsp;&nbsp;&nbsp;Extremely familiar</p><p>(press the corresponding number on your keyboard)</p>","","50","","","FAM-RESPONSE","","","","","","","","","","","","","","","","","","","sounds/C/FAM/P003.mp3","partword","","","","","","","","","","","","","","","","","","",""
"html-keyboard-response","258","1330797","0.0-7.0-1.0-0.6","3","1","680or5kyaf1d7b1","","null","","","","null","","","","","","","","","","","","","","","","","","","","","","","","","","","","","","","","","","","","","","","","","",""
"audio-keyboard-response","259","1331741","0.0-7.0-1.0-1.6","3","1","680or5kyaf1d7b1","","null","","sounds/C/FAM/N003.mp3","","null","","","","","","","","","","","","","","","","","","","","","","","","","","","","","","","","","","","","","","","","","",""
"html-keyboard-response","260","1333238","0.0-7.0-1.0-2.6","3","1","680or5kyaf1d7b1","","994","","<p>How familiar did this sound to you?</p><p>1&nbsp;&nbsp;&nbsp;&nbsp;&nbsp;&nbsp;&nbsp;&nbsp;&nbsp;&nbsp;&nbsp;&nbsp;&nbsp;&nbsp;&nbsp;&nbsp;&nbsp;&nbsp;&nbsp;2&nbsp;&nbsp;&nbsp;&nbsp;&nbsp;&nbsp;&nbsp;&nbsp;&nbsp;&nbsp;&nbsp;&nbsp;&nbsp;&nbsp;&nbsp;&nbsp;&nbsp;&nbsp;&nbsp;3&nbsp;&nbsp;&nbsp;&nbsp;&nbsp;&nbsp;&nbsp;&nbsp;&nbsp;&nbsp;&nbsp;&nbsp;&nbsp;&nbsp;&nbsp;&nbsp;&nbsp;&nbsp;&nbsp;4</p><p style=""font-size:14px"">Not at all familiar&nbsp;&nbsp;&nbsp;&nbsp;A little familiar&nbsp;&nbsp;&nbsp;Moderately familiar&nbsp;&nbsp;&nbsp;Extremely familiar</p><p>(press the corresponding number on your keyboard)</p>","","52","","","FAM-RESPONSE","","","","","","","","","","","","","","","","","","","sounds/C/FAM/N003.mp3","nonword","","","","","","","","","","","","","","","","","","",""
"html-keyboard-response","261","1335241","0.0-7.0-1.0-0.7","3","1","680or5kyaf1d7b1","","null","","","","null","","","","","","","","","","","","","","","","","","","","","","","","","","","","","","","","","","","","","","","","","",""
"audio-keyboard-response","262","1336189","0.0-7.0-1.0-1.7","3","1","680or5kyaf1d7b1","","null","","sounds/C/FAM/N002.mp3","","null","","","","","","","","","","","","","","","","","","","","","","","","","","","","","","","","","","","","","","","","","",""
"html-keyboard-response","263","1338222","0.0-7.0-1.0-2.7","3","1","680or5kyaf1d7b1","","1531","","<p>How familiar did this sound to you?</p><p>1&nbsp;&nbsp;&nbsp;&nbsp;&nbsp;&nbsp;&nbsp;&nbsp;&nbsp;&nbsp;&nbsp;&nbsp;&nbsp;&nbsp;&nbsp;&nbsp;&nbsp;&nbsp;&nbsp;2&nbsp;&nbsp;&nbsp;&nbsp;&nbsp;&nbsp;&nbsp;&nbsp;&nbsp;&nbsp;&nbsp;&nbsp;&nbsp;&nbsp;&nbsp;&nbsp;&nbsp;&nbsp;&nbsp;3&nbsp;&nbsp;&nbsp;&nbsp;&nbsp;&nbsp;&nbsp;&nbsp;&nbsp;&nbsp;&nbsp;&nbsp;&nbsp;&nbsp;&nbsp;&nbsp;&nbsp;&nbsp;&nbsp;4</p><p style=""font-size:14px"">Not at all familiar&nbsp;&nbsp;&nbsp;&nbsp;A little familiar&nbsp;&nbsp;&nbsp;Moderately familiar&nbsp;&nbsp;&nbsp;Extremely familiar</p><p>(press the corresponding number on your keyboard)</p>","","51","","","FAM-RESPONSE","","","","","","","","","","","","","","","","","","","sounds/C/FAM/N002.mp3","nonword","","","","","","","","","","","","","","","","","","",""
"html-keyboard-response","264","1340226","0.0-7.0-1.0-0.8","3","1","680or5kyaf1d7b1","","null","","","","null","","","","","","","","","","","","","","","","","","","","","","","","","","","","","","","","","","","","","","","","","",""
"audio-keyboard-response","265","1341170","0.0-7.0-1.0-1.8","3","1","680or5kyaf1d7b1","","null","","sounds/C/FAM/W002.mp3","","null","","","","","","","","","","","","","","","","","","","","","","","","","","","","","","","","","","","","","","","","","",""
"html-keyboard-response","266","1342508","0.0-7.0-1.0-2.8","3","1","680or5kyaf1d7b1","","835","","<p>How familiar did this sound to you?</p><p>1&nbsp;&nbsp;&nbsp;&nbsp;&nbsp;&nbsp;&nbsp;&nbsp;&nbsp;&nbsp;&nbsp;&nbsp;&nbsp;&nbsp;&nbsp;&nbsp;&nbsp;&nbsp;&nbsp;2&nbsp;&nbsp;&nbsp;&nbsp;&nbsp;&nbsp;&nbsp;&nbsp;&nbsp;&nbsp;&nbsp;&nbsp;&nbsp;&nbsp;&nbsp;&nbsp;&nbsp;&nbsp;&nbsp;3&nbsp;&nbsp;&nbsp;&nbsp;&nbsp;&nbsp;&nbsp;&nbsp;&nbsp;&nbsp;&nbsp;&nbsp;&nbsp;&nbsp;&nbsp;&nbsp;&nbsp;&nbsp;&nbsp;4</p><p style=""font-size:14px"">Not at all familiar&nbsp;&nbsp;&nbsp;&nbsp;A little familiar&nbsp;&nbsp;&nbsp;Moderately familiar&nbsp;&nbsp;&nbsp;Extremely familiar</p><p>(press the corresponding number on your keyboard)</p>","","49","","","FAM-RESPONSE","","","","","","","","","","","","","","","","","","","sounds/C/FAM/W002.mp3","word","","","","","","","","","","","","","","","","","","",""
"html-keyboard-response","267","1344511","0.0-7.0-1.0-0.9","3","1","680or5kyaf1d7b1","","null","","","","null","","","","","","","","","","","","","","","","","","","","","","","","","","","","","","","","","","","","","","","","","",""
"audio-keyboard-response","268","1345458","0.0-7.0-1.0-1.9","3","1","680or5kyaf1d7b1","","null","","sounds/C/FAM/W003.mp3","","null","","","","","","","","","","","","","","","","","","","","","","","","","","","","","","","","","","","","","","","","","",""
"html-keyboard-response","269","1346963","0.0-7.0-1.0-2.9","3","1","680or5kyaf1d7b1","","1002","","<p>How familiar did this sound to you?</p><p>1&nbsp;&nbsp;&nbsp;&nbsp;&nbsp;&nbsp;&nbsp;&nbsp;&nbsp;&nbsp;&nbsp;&nbsp;&nbsp;&nbsp;&nbsp;&nbsp;&nbsp;&nbsp;&nbsp;2&nbsp;&nbsp;&nbsp;&nbsp;&nbsp;&nbsp;&nbsp;&nbsp;&nbsp;&nbsp;&nbsp;&nbsp;&nbsp;&nbsp;&nbsp;&nbsp;&nbsp;&nbsp;&nbsp;3&nbsp;&nbsp;&nbsp;&nbsp;&nbsp;&nbsp;&nbsp;&nbsp;&nbsp;&nbsp;&nbsp;&nbsp;&nbsp;&nbsp;&nbsp;&nbsp;&nbsp;&nbsp;&nbsp;4</p><p style=""font-size:14px"">Not at all familiar&nbsp;&nbsp;&nbsp;&nbsp;A little familiar&nbsp;&nbsp;&nbsp;Moderately familiar&nbsp;&nbsp;&nbsp;Extremely familiar</p><p>(press the corresponding number on your keyboard)</p>","","49","","","FAM-RESPONSE","","","","","","","","","","","","","","","","","","","sounds/C/FAM/W003.mp3","word","","","","","","","","","","","","","","","","","","",""
"html-keyboard-response","270","1348967","0.0-7.0-1.0-0.10","3","1","680or5kyaf1d7b1","","null","","","","null","","","","","","","","","","","","","","","","","","","","","","","","","","","","","","","","","","","","","","","","","",""
"audio-keyboard-response","271","1349917","0.0-7.0-1.0-1.10","3","1","680or5kyaf1d7b1","","null","","sounds/C/FAM/W004.mp3","","null","","","","","","","","","","","","","","","","","","","","","","","","","","","","","","","","","","","","","","","","","",""
"html-keyboard-response","272","1351396","0.0-7.0-1.0-2.10","3","1","680or5kyaf1d7b1","","976","","<p>How familiar did this sound to you?</p><p>1&nbsp;&nbsp;&nbsp;&nbsp;&nbsp;&nbsp;&nbsp;&nbsp;&nbsp;&nbsp;&nbsp;&nbsp;&nbsp;&nbsp;&nbsp;&nbsp;&nbsp;&nbsp;&nbsp;2&nbsp;&nbsp;&nbsp;&nbsp;&nbsp;&nbsp;&nbsp;&nbsp;&nbsp;&nbsp;&nbsp;&nbsp;&nbsp;&nbsp;&nbsp;&nbsp;&nbsp;&nbsp;&nbsp;3&nbsp;&nbsp;&nbsp;&nbsp;&nbsp;&nbsp;&nbsp;&nbsp;&nbsp;&nbsp;&nbsp;&nbsp;&nbsp;&nbsp;&nbsp;&nbsp;&nbsp;&nbsp;&nbsp;4</p><p style=""font-size:14px"">Not at all familiar&nbsp;&nbsp;&nbsp;&nbsp;A little familiar&nbsp;&nbsp;&nbsp;Moderately familiar&nbsp;&nbsp;&nbsp;Extremely familiar</p><p>(press the corresponding number on your keyboard)</p>","","52","","","FAM-RESPONSE","","","","","","","","","","","","","","","","","","","sounds/C/FAM/W004.mp3","word","","","","","","","","","","","","","","","","","","",""
"html-keyboard-response","273","1353400","0.0-7.0-1.0-0.11","3","1","680or5kyaf1d7b1","","null","","","","null","","","","","","","","","","","","","","","","","","","","","","","","","","","","","","","","","","","","","","","","","",""
"audio-keyboard-response","274","1354344","0.0-7.0-1.0-1.11","3","1","680or5kyaf1d7b1","","null","","sounds/C/FAM/P001.mp3","","null","","","","","","","","","","","","","","","","","","","","","","","","","","","","","","","","","","","","","","","","","",""
"html-keyboard-response","275","1356321","0.0-7.0-1.0-2.11","3","1","680or5kyaf1d7b1","","1476.0000000002328","","<p>How familiar did this sound to you?</p><p>1&nbsp;&nbsp;&nbsp;&nbsp;&nbsp;&nbsp;&nbsp;&nbsp;&nbsp;&nbsp;&nbsp;&nbsp;&nbsp;&nbsp;&nbsp;&nbsp;&nbsp;&nbsp;&nbsp;2&nbsp;&nbsp;&nbsp;&nbsp;&nbsp;&nbsp;&nbsp;&nbsp;&nbsp;&nbsp;&nbsp;&nbsp;&nbsp;&nbsp;&nbsp;&nbsp;&nbsp;&nbsp;&nbsp;3&nbsp;&nbsp;&nbsp;&nbsp;&nbsp;&nbsp;&nbsp;&nbsp;&nbsp;&nbsp;&nbsp;&nbsp;&nbsp;&nbsp;&nbsp;&nbsp;&nbsp;&nbsp;&nbsp;4</p><p style=""font-size:14px"">Not at all familiar&nbsp;&nbsp;&nbsp;&nbsp;A little familiar&nbsp;&nbsp;&nbsp;Moderately familiar&nbsp;&nbsp;&nbsp;Extremely familiar</p><p>(press the corresponding number on your keyboard)</p>","","50","","","FAM-RESPONSE","","","","","","","","","","","","","","","","","","","sounds/C/FAM/P001.mp3","partword","","","","","","","","","","","","","","","","","","",""
"html-button-response","276","1368587","0.0-8.0-0.0","3","1","680or5kyaf1d7b1","","11263","","<p>You will now listen to longer sound sequences.</p><p>Each sound sequence will last about 16 seconds.</p><p>On each trial, you will be given a <u>TARGET SOUND</u>. Your task is to listen very carefully for this sound.</p><p>Every time you hear the <u>TARGET SOUND</u>, you will press the <b>SPACEBAR</b> as quickly and accurately as you can.</p>","0","","","","","","","","","","","","","","","","","","","","","","","","","","","","","","","","","","","","","","","","","","",""
"html-button-response","277","1379428","0.0-8.0-1.0","3","1","680or5kyaf1d7b1","","10590","","<p>It is very important that you make your responses as quickly and accurately as possible.</p><p>To help you make your responses, you will be able to listen to the <u>TARGET SOUND</u> at the beginning of each trial.</p><p>There will be 36 total trials.</p><p><b>Note: This is meant to be a difficult task. We simply want you to try your best.</p>","0","","","","","","","","","","","","","","","","","","","","","","","","","","","","","","","","","","","","","","","","","","",""
"html-button-response","278","1382774","0.0-8.0-2.0-0.0","3","1","680or5kyaf1d7b1","","3092.000000000233","","<p>Trial 1 of 36</p>","0","","","","","","","","","","","","","","","","","","","","","","","","","PU","sounds/syllables/pu_SWS.wav","3300,6900,8700,10500","3","","","","","","","","","","","","","","",""
"html-keyboard-response","279","1387791","0.0-8.0-2.0-1.0","3","1","680or5kyaf1d7b1","","5014","","","","80","","","","","","","","","","","","","","","","","","","","","","","","PU","","3300,6900,8700,10500","3","","","","","","","","","","","","","","",""
"audio-keyboard-response","280","1388093","0.0-8.0-2.0-2.0-0.0","3","1","680or5kyaf1d7b1","","null","","sounds/syllables/pu_SWS.wav","","null","","","","","","","","","","","","","","","","","","","","","","","","","","","","","","","","","","","","","","","","","",""
"html-keyboard-response","281","1389678","0.0-8.0-2.0-2.0-1.0","3","1","680or5kyaf1d7b1","","1585","","<p>To replay the <u>TARGET SOUND</u>, press P.</p> When you are ready to begin, press SPACEBAR.","","32","","","","","","","","","","","","","","","","","","","","","","","","","","","","","","","","","","","","","","","","","",""
"audio-keyboard-response","282","1404638","0.0-8.0-2.0-3.0","3","1","680or5kyaf1d7b1","","725","","sounds/C/TD/PU_08_TD.mp3","","32","","","TD_SUMMARY","","","","","","","","","","","","","","","","","","","","","PU","","3300,6900,8700,10500","3","3300","6900","8700","10500","881","283","null","863","731_2381_4181_5412_7183_8234.000000000233_11363_12536_14189","1","","","","",""
"html-button-response","283","1407289","0.0-8.0-2.0-0.1","3","1","680or5kyaf1d7b1","","2647","","<p>Trial 2 of 36</p>","0","","","","","","","","","","","","","","","","","","","","","","","","","SU","sounds/syllables/su_SWS.wav","2700,7200,9000,10800","1","","","","","","","","","","","","","","",""
"html-keyboard-response","284","1409123","0.0-8.0-2.0-1.1","3","1","680or5kyaf1d7b1","","1832","","","","80","","","","","","","","","","","","","","","","","","","","","","","","SU","","2700,7200,9000,10800","1","","","","","","","","","","","","","","",""
"audio-keyboard-response","285","1409426","0.0-8.0-2.0-2.1-0.1","3","1","680or5kyaf1d7b1","","null","","sounds/syllables/su_SWS.wav","","null","","","","","","","","","","","","","","","","","","","","","","","","","","","","","","","","","","","","","","","","","",""
"html-keyboard-response","286","1409811","0.0-8.0-2.0-2.1-1.1","3","1","680or5kyaf1d7b1","","382.99999999976717","","<p>To replay the <u>TARGET SOUND</u>, press P.</p> When you are ready to begin, press SPACEBAR.","","32","","","","","","","","","","","","","","","","","","","","","","","","","","","","","","","","","","","","","","","","","",""
"audio-keyboard-response","287","1424765","0.0-8.0-2.0-3.1","3","1","680or5kyaf1d7b1","","2325","","sounds/C/TD/SU_07_TD.mp3","","32","","","TD_SUMMARY","","","","","","","","","","","","","","","","","","","","","SU","","2700,7200,9000,10800","1","2700","7200","9000","10800","null","null","1067","null","_________2331_2705_4054_4788_5944_8636_9318_10067_10705","1","","","","",""
"html-button-response","288","1426585","0.0-8.0-2.0-0.2","3","1","680or5kyaf1d7b1","","1816","","<p>Trial 3 of 36</p>","0","","","","","","","","","","","","","","","","","","","","","","","","","KO","sounds/syllables/ko_SWS.wav","1800,3600,8100,10800","1","","","","","","","","","","","","","","",""
"html-keyboard-response","289","1428815","0.0-8.0-2.0-1.2","3","1","680or5kyaf1d7b1","","2228","","","","80","","","","","","","","","","","","","","","","","","","","","","","","KO","","1800,3600,8100,10800","1","","","","","","","","","","","","","","",""
"audio-keyboard-response","290","1429117","0.0-8.0-2.0-2.2-0.2","3","1","680or5kyaf1d7b1","","null","","sounds/syllables/ko_SWS.wav","","null","","","","","","","","","","","","","","","","","","","","","","","","","","","","","","","","","","","","","","","","","",""
"html-keyboard-response","291","1429443","0.0-8.0-2.0-2.2-1.2","3","1","680or5kyaf1d7b1","","325","","<p>To replay the <u>TARGET SOUND</u>, press P.</p> When you are ready to begin, press SPACEBAR.","","32","","","","","","","","","","","","","","","","","","","","","","","","","","","","","","","","","","","","","","","","","",""
"audio-keyboard-response","292","1444392","0.0-8.0-2.0-3.2","3","1","680or5kyaf1d7b1","","1451","","sounds/C/TD/KO_02_TD.mp3","","32","","","TD_SUMMARY","","","","","","","","","","","","","","","","","","","","","KO","","1800,3600,8100,10800","1","1800","3600","8100","10800","null","957","989","998","__________________1449_4557_4907_5350_6171_6384_6896_7224_7593_7888_8141_8474_8762_9089_9374_9728_10023_10584_10929_11220_11524_11798_12044_12354_12886_13420_13745_14167","1","","","","",""
"html-button-response","293","1446740","0.0-8.0-2.0-0.3","3","1","680or5kyaf1d7b1","","2346","","<p>Trial 4 of 36</p>","0","","","","","","","","","","","","","","","","","","","","","","","","","GE","sounds/syllables/ge_SWS.wav","3300,5100,6900,10500","3","","","","","","","","","","","","","","",""
"html-keyboard-response","294","1448268","0.0-8.0-2.0-1.3","3","1","680or5kyaf1d7b1","","1526","","","","80","","","","","","","","","","","","","","","","","","","","","","","","GE","","3300,5100,6900,10500","3","","","","","","","","","","","","","","",""
"audio-keyboard-response","295","1448573","0.0-8.0-2.0-2.3-0.3","3","1","680or5kyaf1d7b1","","null","","sounds/syllables/ge_SWS.wav","","null","","","","","","","","","","","","","","","","","","","","","","","","","","","","","","","","","","","","","","","","","",""
"html-keyboard-response","296","1453897","0.0-8.0-2.0-2.3-1.3","3","1","680or5kyaf1d7b1","","5323","","<p>To replay the <u>TARGET SOUND</u>, press P.</p> When you are ready to begin, press SPACEBAR.","","32","","","","","","","","","","","","","","","","","","","","","","","","","","","","","","","","","","","","","","","","","",""
"audio-keyboard-response","297","1468850","0.0-8.0-2.0-3.3","3","1","680or5kyaf1d7b1","","576","","sounds/C/TD/GE_08_TD.mp3","","32","","","TD_SUMMARY","","","","","","","","","","","","","","","","","","","","","GE","","3300,5100,6900,10500","3","3300","5100","6900","10500","null","858","202","345","______________________________________________577_1926_3447_4732_5958_7102_8186_9605_10845_12178_13556","1","","","","",""
"html-button-response","298","1470550","0.0-8.0-2.0-0.4","3","1","680or5kyaf1d7b1","","1697","","<p>Trial 5 of 36</p>","0","","","","","","","","","","","","","","","","","","","","","","","","","FU","sounds/syllables/fu_SWS.wav","4200,6900,10500,13200","3","","","","","","","","","","","","","","",""
"html-keyboard-response","299","1472220","0.0-8.0-2.0-1.4","3","1","680or5kyaf1d7b1","","1669","","","","80","","","","","","","","","","","","","","","","","","","","","","","","FU","","4200,6900,10500,13200","3","","","","","","","","","","","","","","",""
"audio-keyboard-response","300","1472530","0.0-8.0-2.0-2.4-0.4","3","1","680or5kyaf1d7b1","","null","","sounds/syllables/fu_SWS.wav","","null","","","","","","","","","","","","","","","","","","","","","","","","","","","","","","","","","","","","","","","","","",""
"html-keyboard-response","301","1473370","0.0-8.0-2.0-2.4-1.4","3","1","680or5kyaf1d7b1","","838.0000000002328","","<p>To replay the <u>TARGET SOUND</u>, press P.</p> When you are ready to begin, press SPACEBAR.","","32","","","","","","","","","","","","","","","","","","","","","","","","","","","","","","","","","","","","","","","","","",""
"audio-keyboard-response","302","1488317","0.0-8.0-2.0-3.4","3","1","680or5kyaf1d7b1","","939","","sounds/C/TD/FU_09_TD.mp3","","32","","","TD_SUMMARY","","","","","","","","","","","","","","","","","","","","","FU","","4200,6900,10500,13200","3","4200","6900","10500","13200","null","null","1088","null","_________________________________________________________932_2874_5897_8318_9525.000000000233_10763_11588","1","","","","",""
"html-button-response","303","1489663","0.0-8.0-2.0-0.5","3","1","680or5kyaf1d7b1","","1344","","<p>Trial 6 of 36</p>","0","","","","","","","","","","","","","","","","","","","","","","","","","FU","sounds/syllables/fu_SWS.wav","3300,6000,8700,10500","3","","","","","","","","","","","","","","",""
"html-keyboard-response","304","1491469","0.0-8.0-2.0-1.5","3","1","680or5kyaf1d7b1","","1805","","","","80","","","","","","","","","","","","","","","","","","","","","","","","FU","","3300,6000,8700,10500","3","","","","","","","","","","","","","","",""
"audio-keyboard-response","305","1491773","0.0-8.0-2.0-2.5-0.5","3","1","680or5kyaf1d7b1","","null","","sounds/syllables/fu_SWS.wav","","null","","","","","","","","","","","","","","","","","","","","","","","","","","","","","","","","","","","","","","","","","",""
"html-keyboard-response","306","1493047","0.0-8.0-2.0-2.5-1.5","3","1","680or5kyaf1d7b1","","1272.9999999997672","","<p>To replay the <u>TARGET SOUND</u>, press P.</p> When you are ready to begin, press SPACEBAR.","","32","","","","","","","","","","","","","","","","","","","","","","","","","","","","","","","","","","","","","","","","","",""
"audio-keyboard-response","307","1508000","0.0-8.0-2.0-3.5","3","1","680or5kyaf1d7b1","","3189","","sounds/C/TD/FU_04_TD.mp3","","32","","","TD_SUMMARY","","","","","","","","","","","","","","","","","","","","","FU","","3300,6000,8700,10500","3","3300","6000","8700","10500","1060","null","null","null","________________________________________________________________3191_4360_6066_7969_12871","1","","","","",""
"html-button-response","308","1509478","0.0-8.0-2.0-0.6","3","1","680or5kyaf1d7b1","","1475","","<p>Trial 7 of 36</p>","0","","","","","","","","","","","","","","","","","","","","","","","","","GE","sounds/syllables/ge_SWS.wav","1500,5100,6900,10500","3","","","","","","","","","","","","","","",""
"html-keyboard-response","309","1510653","0.0-8.0-2.0-1.6","3","1","680or5kyaf1d7b1","","1173","","","","80","","","","","","","","","","","","","","","","","","","","","","","","GE","","1500,5100,6900,10500","3","","","","","","","","","","","","","","",""
"audio-keyboard-response","310","1510962","0.0-8.0-2.0-2.6-0.6","3","1","680or5kyaf1d7b1","","null","","sounds/syllables/ge_SWS.wav","","null","","","","","","","","","","","","","","","","","","","","","","","","","","","","","","","","","","","","","","","","","",""
"html-keyboard-response","311","1513140","0.0-8.0-2.0-2.6-1.6","3","1","680or5kyaf1d7b1","","2176","","<p>To replay the <u>TARGET SOUND</u>, press P.</p> When you are ready to begin, press SPACEBAR.","","32","","","","","","","","","","","","","","","","","","","","","","","","","","","","","","","","","","","","","","","","","",""
"audio-keyboard-response","312","1528095","0.0-8.0-2.0-3.6","3","1","680or5kyaf1d7b1","","1525","","sounds/C/TD/GE_04_TD.mp3","","32","","","TD_SUMMARY","","","","","","","","","","","","","","","","","","","","","GE","","1500,5100,6900,10500","3","1500","5100","6900","10500","null","1051","1062","938","_____________________________________________________________________1531_4758_6151_6641_7962_9411_11438_12831.000000000233","1","","","","",""
"html-button-response","313","1529462","0.0-8.0-2.0-0.7","3","1","680or5kyaf1d7b1","","1366","","<p>Trial 8 of 36</p>","0","","","","","","","","","","","","","","","","","","","","","","","","","FE","sounds/syllables/fe_SWS.wav","2100,5700,9300,12000","2","","","","","","","","","","","","","","",""
"html-keyboard-response","314","1531272","0.0-8.0-2.0-1.7","3","1","680or5kyaf1d7b1","","1809","","","","80","","","","","","","","","","","","","","","","","","","","","","","","FE","","2100,5700,9300,12000","2","","","","","","","","","","","","","","",""
"audio-keyboard-response","315","1531581","0.0-8.0-2.0-2.7-0.7","3","1","680or5kyaf1d7b1","","null","","sounds/syllables/fe_SWS.wav","","null","","","","","","","","","","","","","","","","","","","","","","","","","","","","","","","","","","","","","","","","","",""
"html-keyboard-response","316","1532079","0.0-8.0-2.0-2.7-1.7","3","1","680or5kyaf1d7b1","","497","","<p>To replay the <u>TARGET SOUND</u>, press P.</p> When you are ready to begin, press SPACEBAR.","","32","","","","","","","","","","","","","","","","","","","","","","","","","","","","","","","","","","","","","","","","","",""
