"trial_type","trial_index","time_elapsed","internal_node_id","counterbalance","lang_instruct","ParticipantID","view_history","rt","url","stimulus","button_pressed","key_press","correctRESP","correct","designation","location","correctanswer","responses","sentence","keywords","typed_resp","keyword1_acc","keyword2_acc","keyword3_acc","keyword4_acc","keyword5_acc","total_acc","prop_acc","timeouts","pause_rt01","pause_rt02","train_file","numKeyPress","sound","fam_type","SYLLABLE","EXEMPLAR","TD_LOCS","TD_TYPE","TDLOC_01","TDLOC_02","TDLOC_03","TDLOC_04","TD_RT_01","TD_RT_02","TD_RT_03","TD_RT_04","TD_SUBJ_RTs","number_of_plays","slider_start","response","question_order","syllable","syllable_type"
"pavlovia","0","5","0.0-0.0","1","1","yyp4kwa3lr7xtef","","","","","","","","","","","","","","","","","","","","","","","","","","","","","","","","","","","","","","","","","","","","","","","",""
"instructions","1","96848","0.0-1.0","1","1","yyp4kwa3lr7xtef","[{""page_index"":0,""viewing_time"":4319.299999952316},{""page_index"":1,""viewing_time"":92515.5}]","96842.59999990463","","","","","","","","","","","","","","","","","","","","","","","","","","","","","","","","","","","","","","","","","","","","","",""
"external-html","2","112819","0.0-2.0","1","1","yyp4kwa3lr7xtef","","15357.800000190735","consent/consent.html","","","","","","","","","","","","","","","","","","","","","","","","","","","","","","","","","","","","","","","","","","","","",""
"html-button-response","3","116338","0.0-3.0-0.0-0.0","1","1","yyp4kwa3lr7xtef","","3514.9000000953674","","<p>Welcome to the study. You will first complete a short volume calibration and headphone check.</p><p>Please make sure you are in a quiet listening environment, that you are wearing headphones, and that your computer's volume is turned on.<p></p>","0","","","","","","","","","","","","","","","","","","","","","","","","","","","","","","","","","","","","","","","","","","",""
"html-button-response","4","118247","0.0-3.0-0.0-1.0","1","1","yyp4kwa3lr7xtef","","1644.8999998569489","","<p>The volume calibration will be first.</p><p>You will hear a thirty-second noise. Please adjust your computer's volume so that this noise is being presented at a comfortable level.<p></p>","0","","","","","","","","","","","","","","","","","","","","","","","","","","","","","","","","","","","","","","","","","","",""
"audio-button-response","5","120845","0.0-3.0-0.0-2.0","1","1","yyp4kwa3lr7xtef","","2240","","audCalib/volumetest.mp3","0","","","","","","","","","","","","","","","","","","","","","","","","","","","","","","","","","","","","","","","","","","",""
"html-button-response","6","125273","0.0-3.0-1.0-0.0","1","1","yyp4kwa3lr7xtef","","4425.400000095367","","<p>You will now complete a short headphone check.</p><p>On each trial, you will hear three tones. One of these tones will be quieter than the others. Your task is to identify whether the quiet tone occured first, second, or third.</p><p>There are six trials in total.<p></p>","0","","","","","","","","","","","","","","","","","","","","","","","","","","","","","","","","","","","","","","","","","","",""
"html-keyboard-response","7","126038","0.0-3.0-1.0-1.0-0.0","1","1","yyp4kwa3lr7xtef","","null","","<div style=""font-size:60px;"">+</div>","","null","","","","","","","","","","","","","","","","","","","","","","","","","","","","","","","","","","","","","","","","","",""
"audio-button-response","8","130301","0.0-3.0-1.0-1.0-1.0","1","1","yyp4kwa3lr7xtef","","4261","","audCalib/t1_1.mp3","0","","0","1","headphone-test","","","","","","","","","","","","","","","","","","","","","","","","","","","","","","","","","","","","","","",""
"html-keyboard-response","9","131068","0.0-3.0-1.0-1.0-0.1","1","1","yyp4kwa3lr7xtef","","null","","<div style=""font-size:60px;"">+</div>","","null","","","","","","","","","","","","","","","","","","","","","","","","","","","","","","","","","","","","","","","","","",""
"audio-button-response","10","135448","0.0-3.0-1.0-1.0-1.1","1","1","yyp4kwa3lr7xtef","","4379","","audCalib/t2_1.mp3","1","","1","1","headphone-test","","","","","","","","","","","","","","","","","","","","","","","","","","","","","","","","","","","","","","",""
"html-keyboard-response","11","136208","0.0-3.0-1.0-1.0-0.2","1","1","yyp4kwa3lr7xtef","","null","","<div style=""font-size:60px;"">+</div>","","null","","","","","","","","","","","","","","","","","","","","","","","","","","","","","","","","","","","","","","","","","",""
"audio-button-response","12","140630","0.0-3.0-1.0-1.0-1.2","1","1","yyp4kwa3lr7xtef","","4411","","audCalib/t3_1.mp3","2","","2","1","headphone-test","","","","","","","","","","","","","","","","","","","","","","","","","","","","","","","","","","","","","","",""
"html-keyboard-response","13","141390","0.0-3.0-1.0-1.0-0.3","1","1","yyp4kwa3lr7xtef","","null","","<div style=""font-size:60px;"">+</div>","","null","","","","","","","","","","","","","","","","","","","","","","","","","","","","","","","","","","","","","","","","","",""
"audio-button-response","14","145855","0.0-3.0-1.0-1.0-1.3","1","1","yyp4kwa3lr7xtef","","4461","","audCalib/t1_2.mp3","2","","0","0","headphone-test","","","","","","","","","","","","","","","","","","","","","","","","","","","","","","","","","","","","","","",""
"html-keyboard-response","15","146618","0.0-3.0-1.0-1.0-0.4","1","1","yyp4kwa3lr7xtef","","null","","<div style=""font-size:60px;"">+</div>","","null","","","","","","","","","","","","","","","","","","","","","","","","","","","","","","","","","","","","","","","","","",""
"audio-button-response","16","151074","0.0-3.0-1.0-1.0-1.4","1","1","yyp4kwa3lr7xtef","","4448","","audCalib/t3_2.mp3","2","","2","1","headphone-test","","","","","","","","","","","","","","","","","","","","","","","","","","","","","","","","","","","","","","",""
"html-keyboard-response","17","151834","0.0-3.0-1.0-1.0-0.5","1","1","yyp4kwa3lr7xtef","","null","","<div style=""font-size:60px;"">+</div>","","null","","","","","","","","","","","","","","","","","","","","","","","","","","","","","","","","","","","","","","","","","",""
"audio-button-response","18","156089","0.0-3.0-1.0-1.0-1.5","1","1","yyp4kwa3lr7xtef","","4251","","audCalib/t2_2.mp3","1","","1","1","headphone-test","","","","","","","","","","","","","","","","","","","","","","","","","","","","","","","","","","","","","","",""
"html-button-response","19","158159","0.0-3.0-2.0","1","1","yyp4kwa3lr7xtef","","1808.6000001430511","","<p>The volume calibration and headphone check are now complete.</p>","0","","","","","","","","","","","","","","","","","","","","","","","","","","","","","","","","","","","","","","","","","","",""
"instructions","20","181111","0.0-4.0-0.0","1","1","yyp4kwa3lr7xtef","[{""page_index"":0,""viewing_time"":1323},{""page_index"":1,""viewing_time"":18850.700000047684},{""page_index"":2,""viewing_time"":2775.2999999523163}]","22950.10000014305","","","","","","","","","","","","","","","","","","","","","","","","","","","","","","","","","","","","","","","","","","","","","",""
"audio-keyboard-response","21","181411","0.0-4.0-1.0-0.0","1","1","yyp4kwa3lr7xtef","","null","","sounds/induction/left/ge_SWS.wav","","null","","","","","","","","","","","","","","","","","","","","","","","","","","","","","","","","","","","","","","","","","",""
"html-button-response","22","183044","0.0-4.0-1.0-1.0","1","1","yyp4kwa3lr7xtef","","1630.5","","What sound did you hear?","1","","","1","INDUCTION-JUDGMENT","left","1","","","","","","","","","","","","","","","","","","","","","","","","","","","","","","","","","","","","",""
"html-keyboard-response","23","184049","0.0-4.0-1.0-2.0","1","1","yyp4kwa3lr7xtef","","null","","<p style=""color:green;""><b>Correct!</b></p>","","null","","","","","","","","","","","","","","","","","","","","","","","","","","","","","","","","","","","","","","","","","",""
"audio-keyboard-response","24","184850","0.0-4.0-1.0-0.1","1","1","yyp4kwa3lr7xtef","","null","","sounds/induction/right/re_SWS.wav","","null","","","","","","","","","","","","","","","","","","","","","","","","","","","","","","","","","","","","","","","","","",""
"html-button-response","25","185813","0.0-4.0-1.0-1.1","1","1","yyp4kwa3lr7xtef","","961.0999999046326","","What sound did you hear?","1","","","1","INDUCTION-JUDGMENT","right","1","","","","","","","","","","","","","","","","","","","","","","","","","","","","","","","","","","","","",""
"html-keyboard-response","26","186818","0.0-4.0-1.0-2.1","1","1","yyp4kwa3lr7xtef","","null","","<p style=""color:green;""><b>Correct!</b></p>","","null","","","","","","","","","","","","","","","","","","","","","","","","","","","","","","","","","","","","","","","","","",""
"audio-keyboard-response","27","187621","0.0-4.0-1.0-0.2","1","1","yyp4kwa3lr7xtef","","null","","sounds/induction/left/ni_SWS.wav","","null","","","","","","","","","","","","","","","","","","","","","","","","","","","","","","","","","","","","","","","","","",""
"html-button-response","28","188559","0.0-4.0-1.0-1.2","1","1","yyp4kwa3lr7xtef","","936.5999999046326","","What sound did you hear?","1","","","1","INDUCTION-JUDGMENT","left","1","","","","","","","","","","","","","","","","","","","","","","","","","","","","","","","","","","","","",""
"html-keyboard-response","29","189567","0.0-4.0-1.0-2.2","1","1","yyp4kwa3lr7xtef","","null","","<p style=""color:green;""><b>Correct!</b></p>","","null","","","","","","","","","","","","","","","","","","","","","","","","","","","","","","","","","","","","","","","","","",""
"audio-keyboard-response","30","190384","0.0-4.0-1.0-0.3","1","1","yyp4kwa3lr7xtef","","null","","sounds/induction/right/me_SWS.wav","","null","","","","","","","","","","","","","","","","","","","","","","","","","","","","","","","","","","","","","","","","","",""
"html-button-response","31","191227","0.0-4.0-1.0-1.3","1","1","yyp4kwa3lr7xtef","","841.7999999523163","","What sound did you hear?","0","","","1","INDUCTION-JUDGMENT","right","0","","","","","","","","","","","","","","","","","","","","","","","","","","","","","","","","","","","","",""
"html-keyboard-response","32","192232","0.0-4.0-1.0-2.3","1","1","yyp4kwa3lr7xtef","","null","","<p style=""color:green;""><b>Correct!</b></p>","","null","","","","","","","","","","","","","","","","","","","","","","","","","","","","","","","","","","","","","","","","","",""
"audio-keyboard-response","33","193040","0.0-4.0-1.0-0.4","1","1","yyp4kwa3lr7xtef","","null","","sounds/induction/left/re_SWS.wav","","null","","","","","","","","","","","","","","","","","","","","","","","","","","","","","","","","","","","","","","","","","",""
"html-button-response","34","193840","0.0-4.0-1.0-1.4","1","1","yyp4kwa3lr7xtef","","796.9000000953674","","What sound did you hear?","0","","","1","INDUCTION-JUDGMENT","left","0","","","","","","","","","","","","","","","","","","","","","","","","","","","","","","","","","","","","",""
"html-keyboard-response","35","194848","0.0-4.0-1.0-2.4","1","1","yyp4kwa3lr7xtef","","null","","<p style=""color:green;""><b>Correct!</b></p>","","null","","","","","","","","","","","","","","","","","","","","","","","","","","","","","","","","","","","","","","","","","",""
"audio-keyboard-response","36","195650","0.0-4.0-1.0-0.5","1","1","yyp4kwa3lr7xtef","","null","","sounds/induction/right/fu_SWS.wav","","null","","","","","","","","","","","","","","","","","","","","","","","","","","","","","","","","","","","","","","","","","",""
"html-button-response","37","196406","0.0-4.0-1.0-1.5","1","1","yyp4kwa3lr7xtef","","753.0999999046326","","What sound did you hear?","0","","","1","INDUCTION-JUDGMENT","right","0","","","","","","","","","","","","","","","","","","","","","","","","","","","","","","","","","","","","",""
"html-keyboard-response","38","197418","0.0-4.0-1.0-2.5","1","1","yyp4kwa3lr7xtef","","null","","<p style=""color:green;""><b>Correct!</b></p>","","null","","","","","","","","","","","","","","","","","","","","","","","","","","","","","","","","","","","","","","","","","",""
"audio-keyboard-response","39","198221","0.0-4.0-1.0-0.6","1","1","yyp4kwa3lr7xtef","","null","","sounds/induction/left/ni_SWS.wav","","null","","","","","","","","","","","","","","","","","","","","","","","","","","","","","","","","","","","","","","","","","",""
"html-button-response","40","198917","0.0-4.0-1.0-1.6","1","1","yyp4kwa3lr7xtef","","694","","What sound did you hear?","1","","","1","INDUCTION-JUDGMENT","left","1","","","","","","","","","","","","","","","","","","","","","","","","","","","","","","","","","","","","",""
"html-keyboard-response","41","199928","0.0-4.0-1.0-2.6","1","1","yyp4kwa3lr7xtef","","null","","<p style=""color:green;""><b>Correct!</b></p>","","null","","","","","","","","","","","","","","","","","","","","","","","","","","","","","","","","","","","","","","","","","",""
"audio-keyboard-response","42","200731","0.0-4.0-1.0-0.7","1","1","yyp4kwa3lr7xtef","","null","","sounds/induction/right/fu_SWS.wav","","null","","","","","","","","","","","","","","","","","","","","","","","","","","","","","","","","","","","","","","","","","",""
"html-button-response","43","201642","0.0-4.0-1.0-1.7","1","1","yyp4kwa3lr7xtef","","909.0999999046326","","What sound did you hear?","0","","","1","INDUCTION-JUDGMENT","right","0","","","","","","","","","","","","","","","","","","","","","","","","","","","","","","","","","","","","",""
"html-keyboard-response","44","202658","0.0-4.0-1.0-2.7","1","1","yyp4kwa3lr7xtef","","null","","<p style=""color:green;""><b>Correct!</b></p>","","null","","","","","","","","","","","","","","","","","","","","","","","","","","","","","","","","","","","","","","","","","",""
"audio-keyboard-response","45","203461","0.0-4.0-1.0-0.8","1","1","yyp4kwa3lr7xtef","","null","","sounds/induction/right/fe_SWS.wav","","null","","","","","","","","","","","","","","","","","","","","","","","","","","","","","","","","","","","","","","","","","",""
"html-button-response","46","204292","0.0-4.0-1.0-1.8","1","1","yyp4kwa3lr7xtef","","828.7999999523163","","What sound did you hear?","0","","","1","INDUCTION-JUDGMENT","right","0","","","","","","","","","","","","","","","","","","","","","","","","","","","","","","","","","","","","",""
"html-keyboard-response","47","205298","0.0-4.0-1.0-2.8","1","1","yyp4kwa3lr7xtef","","null","","<p style=""color:green;""><b>Correct!</b></p>","","null","","","","","","","","","","","","","","","","","","","","","","","","","","","","","","","","","","","","","","","","","",""
"audio-keyboard-response","48","206100","0.0-4.0-1.0-0.9","1","1","yyp4kwa3lr7xtef","","null","","sounds/induction/left/me_SWS.wav","","null","","","","","","","","","","","","","","","","","","","","","","","","","","","","","","","","","","","","","","","","","",""
"html-button-response","49","206899","0.0-4.0-1.0-1.9","1","1","yyp4kwa3lr7xtef","","795.8999998569489","","What sound did you hear?","1","","","1","INDUCTION-JUDGMENT","left","1","","","","","","","","","","","","","","","","","","","","","","","","","","","","","","","","","","","","",""
"html-keyboard-response","50","207908","0.0-4.0-1.0-2.9","1","1","yyp4kwa3lr7xtef","","null","","<p style=""color:green;""><b>Correct!</b></p>","","null","","","","","","","","","","","","","","","","","","","","","","","","","","","","","","","","","","","","","","","","","",""
"audio-keyboard-response","51","208721","0.0-4.0-1.0-0.10","1","1","yyp4kwa3lr7xtef","","null","","sounds/induction/left/su_SWS.wav","","null","","","","","","","","","","","","","","","","","","","","","","","","","","","","","","","","","","","","","","","","","",""
"html-button-response","52","209559","0.0-4.0-1.0-1.10","1","1","yyp4kwa3lr7xtef","","836.3000001907349","","What sound did you hear?","0","","","1","INDUCTION-JUDGMENT","left","0","","","","","","","","","","","","","","","","","","","","","","","","","","","","","","","","","","","","",""
"html-keyboard-response","53","210568","0.0-4.0-1.0-2.10","1","1","yyp4kwa3lr7xtef","","null","","<p style=""color:green;""><b>Correct!</b></p>","","null","","","","","","","","","","","","","","","","","","","","","","","","","","","","","","","","","","","","","","","","","",""
"audio-keyboard-response","54","211380","0.0-4.0-1.0-0.11","1","1","yyp4kwa3lr7xtef","","null","","sounds/induction/right/ti_SWS.wav","","null","","","","","","","","","","","","","","","","","","","","","","","","","","","","","","","","","","","","","","","","","",""
"html-button-response","55","212105","0.0-4.0-1.0-1.11","1","1","yyp4kwa3lr7xtef","","722.5","","What sound did you hear?","1","","","1","INDUCTION-JUDGMENT","right","1","","","","","","","","","","","","","","","","","","","","","","","","","","","","","","","","","","","","",""
"html-keyboard-response","56","213118","0.0-4.0-1.0-2.11","1","1","yyp4kwa3lr7xtef","","null","","<p style=""color:green;""><b>Correct!</b></p>","","null","","","","","","","","","","","","","","","","","","","","","","","","","","","","","","","","","","","","","","","","","",""
"audio-keyboard-response","57","213930","0.0-4.0-1.0-0.12","1","1","yyp4kwa3lr7xtef","","null","","sounds/induction/left/me_SWS.wav","","null","","","","","","","","","","","","","","","","","","","","","","","","","","","","","","","","","","","","","","","","","",""
"html-button-response","58","214825","0.0-4.0-1.0-1.12","1","1","yyp4kwa3lr7xtef","","892.3999998569489","","What sound did you hear?","1","","","1","INDUCTION-JUDGMENT","left","1","","","","","","","","","","","","","","","","","","","","","","","","","","","","","","","","","","","","",""
"html-keyboard-response","59","215828","0.0-4.0-1.0-2.12","1","1","yyp4kwa3lr7xtef","","null","","<p style=""color:green;""><b>Correct!</b></p>","","null","","","","","","","","","","","","","","","","","","","","","","","","","","","","","","","","","","","","","","","","","",""
"audio-keyboard-response","60","216641","0.0-4.0-1.0-0.13","1","1","yyp4kwa3lr7xtef","","null","","sounds/induction/left/pu_SWS.wav","","null","","","","","","","","","","","","","","","","","","","","","","","","","","","","","","","","","","","","","","","","","",""
"html-button-response","61","217947","0.0-4.0-1.0-1.13","1","1","yyp4kwa3lr7xtef","","1304.4000000953674","","What sound did you hear?","0","","","1","INDUCTION-JUDGMENT","left","0","","","","","","","","","","","","","","","","","","","","","","","","","","","","","","","","","","","","",""
"html-keyboard-response","62","218952","0.0-4.0-1.0-2.13","1","1","yyp4kwa3lr7xtef","","null","","<p style=""color:green;""><b>Correct!</b></p>","","null","","","","","","","","","","","","","","","","","","","","","","","","","","","","","","","","","","","","","","","","","",""
"audio-keyboard-response","63","219769","0.0-4.0-1.0-0.14","1","1","yyp4kwa3lr7xtef","","null","","sounds/induction/right/fe_SWS.wav","","null","","","","","","","","","","","","","","","","","","","","","","","","","","","","","","","","","","","","","","","","","",""
"html-button-response","64","220799","0.0-4.0-1.0-1.14","1","1","yyp4kwa3lr7xtef","","1027.7999999523163","","What sound did you hear?","0","","","1","INDUCTION-JUDGMENT","right","0","","","","","","","","","","","","","","","","","","","","","","","","","","","","","","","","","","","","",""
"html-keyboard-response","65","221805","0.0-4.0-1.0-2.14","1","1","yyp4kwa3lr7xtef","","null","","<p style=""color:green;""><b>Correct!</b></p>","","null","","","","","","","","","","","","","","","","","","","","","","","","","","","","","","","","","","","","","","","","","",""
"audio-keyboard-response","66","222610","0.0-4.0-1.0-0.15","1","1","yyp4kwa3lr7xtef","","null","","sounds/induction/right/ti_SWS.wav","","null","","","","","","","","","","","","","","","","","","","","","","","","","","","","","","","","","","","","","","","","","",""
"html-button-response","67","223385","0.0-4.0-1.0-1.15","1","1","yyp4kwa3lr7xtef","","773.5","","What sound did you hear?","1","","","1","INDUCTION-JUDGMENT","right","1","","","","","","","","","","","","","","","","","","","","","","","","","","","","","","","","","","","","",""
"html-keyboard-response","68","224388","0.0-4.0-1.0-2.15","1","1","yyp4kwa3lr7xtef","","null","","<p style=""color:green;""><b>Correct!</b></p>","","null","","","","","","","","","","","","","","","","","","","","","","","","","","","","","","","","","","","","","","","","","",""
"audio-keyboard-response","69","225200","0.0-4.0-1.0-0.16","1","1","yyp4kwa3lr7xtef","","null","","sounds/induction/right/ta_SWS.wav","","null","","","","","","","","","","","","","","","","","","","","","","","","","","","","","","","","","","","","","","","","","",""
"html-button-response","70","226055","0.0-4.0-1.0-1.16","1","1","yyp4kwa3lr7xtef","","848.2000000476837","","What sound did you hear?","1","","","1","INDUCTION-JUDGMENT","right","1","","","","","","","","","","","","","","","","","","","","","","","","","","","","","","","","","","","","",""
"html-keyboard-response","71","227060","0.0-4.0-1.0-2.16","1","1","yyp4kwa3lr7xtef","","null","","<p style=""color:green;""><b>Correct!</b></p>","","null","","","","","","","","","","","","","","","","","","","","","","","","","","","","","","","","","","","","","","","","","",""
"audio-keyboard-response","72","227859","0.0-4.0-1.0-0.17","1","1","yyp4kwa3lr7xtef","","null","","sounds/induction/left/su_SWS.wav","","null","","","","","","","","","","","","","","","","","","","","","","","","","","","","","","","","","","","","","","","","","",""
"html-button-response","73","228603","0.0-4.0-1.0-1.17","1","1","yyp4kwa3lr7xtef","","743","","What sound did you hear?","0","","","1","INDUCTION-JUDGMENT","left","0","","","","","","","","","","","","","","","","","","","","","","","","","","","","","","","","","","","","",""
"html-keyboard-response","74","229615","0.0-4.0-1.0-2.17","1","1","yyp4kwa3lr7xtef","","null","","<p style=""color:green;""><b>Correct!</b></p>","","null","","","","","","","","","","","","","","","","","","","","","","","","","","","","","","","","","","","","","","","","","",""
"audio-keyboard-response","75","230420","0.0-4.0-1.0-0.18","1","1","yyp4kwa3lr7xtef","","null","","sounds/induction/right/ru_SWS.wav","","null","","","","","","","","","","","","","","","","","","","","","","","","","","","","","","","","","","","","","","","","","",""
"html-button-response","76","231725","0.0-4.0-1.0-1.18","1","1","yyp4kwa3lr7xtef","","1303.0999999046326","","What sound did you hear?","1","","","1","INDUCTION-JUDGMENT","right","1","","","","","","","","","","","","","","","","","","","","","","","","","","","","","","","","","","","","",""
"html-keyboard-response","77","232728","0.0-4.0-1.0-2.18","1","1","yyp4kwa3lr7xtef","","null","","<p style=""color:green;""><b>Correct!</b></p>","","null","","","","","","","","","","","","","","","","","","","","","","","","","","","","","","","","","","","","","","","","","",""
"audio-keyboard-response","78","233529","0.0-4.0-1.0-0.19","1","1","yyp4kwa3lr7xtef","","null","","sounds/induction/left/ge_SWS.wav","","null","","","","","","","","","","","","","","","","","","","","","","","","","","","","","","","","","","","","","","","","","",""
"html-button-response","79","234489","0.0-4.0-1.0-1.19","1","1","yyp4kwa3lr7xtef","","957.7000000476837","","What sound did you hear?","1","","","1","INDUCTION-JUDGMENT","left","1","","","","","","","","","","","","","","","","","","","","","","","","","","","","","","","","","","","","",""
"html-keyboard-response","80","235496","0.0-4.0-1.0-2.19","1","1","yyp4kwa3lr7xtef","","null","","<p style=""color:green;""><b>Correct!</b></p>","","null","","","","","","","","","","","","","","","","","","","","","","","","","","","","","","","","","","","","","","","","","",""
"audio-keyboard-response","81","236299","0.0-4.0-1.0-0.20","1","1","yyp4kwa3lr7xtef","","null","","sounds/induction/left/ti_SWS.wav","","null","","","","","","","","","","","","","","","","","","","","","","","","","","","","","","","","","","","","","","","","","",""
"html-button-response","82","236945","0.0-4.0-1.0-1.20","1","1","yyp4kwa3lr7xtef","","644.5","","What sound did you hear?","0","","","1","INDUCTION-JUDGMENT","left","0","","","","","","","","","","","","","","","","","","","","","","","","","","","","","","","","","","","","",""
"html-keyboard-response","83","237958","0.0-4.0-1.0-2.20","1","1","yyp4kwa3lr7xtef","","null","","<p style=""color:green;""><b>Correct!</b></p>","","null","","","","","","","","","","","","","","","","","","","","","","","","","","","","","","","","","","","","","","","","","",""
"audio-keyboard-response","84","238769","0.0-4.0-1.0-0.21","1","1","yyp4kwa3lr7xtef","","null","","sounds/induction/right/ni_SWS.wav","","null","","","","","","","","","","","","","","","","","","","","","","","","","","","","","","","","","","","","","","","","","",""
"html-button-response","85","239501","0.0-4.0-1.0-1.21","1","1","yyp4kwa3lr7xtef","","730.7000000476837","","What sound did you hear?","1","","","0","INDUCTION-JUDGMENT","right","0","","","","","","","","","","","","","","","","","","","","","","","","","","","","","","","","","","","","",""
"html-keyboard-response","86","240507","0.0-4.0-1.0-2.21","1","1","yyp4kwa3lr7xtef","","null","","<p style=""color:red;""><b>Incorrect!</b></p>","","null","","","","","","","","","","","","","","","","","","","","","","","","","","","","","","","","","","","","","","","","","",""
"audio-keyboard-response","87","241319","0.0-4.0-1.0-0.22","1","1","yyp4kwa3lr7xtef","","null","","sounds/induction/right/ru_SWS.wav","","null","","","","","","","","","","","","","","","","","","","","","","","","","","","","","","","","","","","","","","","","","",""
"html-button-response","88","241953","0.0-4.0-1.0-1.22","1","1","yyp4kwa3lr7xtef","","632.1000001430511","","What sound did you hear?","1","","","1","INDUCTION-JUDGMENT","right","1","","","","","","","","","","","","","","","","","","","","","","","","","","","","","","","","","","","","",""
"html-keyboard-response","89","242970","0.0-4.0-1.0-2.22","1","1","yyp4kwa3lr7xtef","","null","","<p style=""color:green;""><b>Correct!</b></p>","","null","","","","","","","","","","","","","","","","","","","","","","","","","","","","","","","","","","","","","","","","","",""
"audio-keyboard-response","90","243770","0.0-4.0-1.0-0.23","1","1","yyp4kwa3lr7xtef","","null","","sounds/induction/left/ta_SWS.wav","","null","","","","","","","","","","","","","","","","","","","","","","","","","","","","","","","","","","","","","","","","","",""
"html-button-response","91","244491","0.0-4.0-1.0-1.23","1","1","yyp4kwa3lr7xtef","","719.5","","What sound did you hear?","0","","","1","INDUCTION-JUDGMENT","left","0","","","","","","","","","","","","","","","","","","","","","","","","","","","","","","","","","","","","",""
"html-keyboard-response","92","245498","0.0-4.0-1.0-2.23","1","1","yyp4kwa3lr7xtef","","null","","<p style=""color:green;""><b>Correct!</b></p>","","null","","","","","","","","","","","","","","","","","","","","","","","","","","","","","","","","","","","","","","","","","",""
"audio-keyboard-response","93","246302","0.0-4.0-1.0-0.24","1","1","yyp4kwa3lr7xtef","","null","","sounds/induction/left/ti_SWS.wav","","null","","","","","","","","","","","","","","","","","","","","","","","","","","","","","","","","","","","","","","","","","",""
"html-button-response","94","247066","0.0-4.0-1.0-1.24","1","1","yyp4kwa3lr7xtef","","761.7999999523163","","What sound did you hear?","0","","","1","INDUCTION-JUDGMENT","left","0","","","","","","","","","","","","","","","","","","","","","","","","","","","","","","","","","","","","",""
"html-keyboard-response","95","248078","0.0-4.0-1.0-2.24","1","1","yyp4kwa3lr7xtef","","null","","<p style=""color:green;""><b>Correct!</b></p>","","null","","","","","","","","","","","","","","","","","","","","","","","","","","","","","","","","","","","","","","","","","",""
"audio-keyboard-response","96","248890","0.0-4.0-1.0-0.25","1","1","yyp4kwa3lr7xtef","","null","","sounds/induction/left/ko_SWS.wav","","null","","","","","","","","","","","","","","","","","","","","","","","","","","","","","","","","","","","","","","","","","",""
"html-button-response","97","249842","0.0-4.0-1.0-1.25","1","1","yyp4kwa3lr7xtef","","949.9000000953674","","What sound did you hear?","1","","","1","INDUCTION-JUDGMENT","left","1","","","","","","","","","","","","","","","","","","","","","","","","","","","","","","","","","","","","",""
"html-keyboard-response","98","250848","0.0-4.0-1.0-2.25","1","1","yyp4kwa3lr7xtef","","null","","<p style=""color:green;""><b>Correct!</b></p>","","null","","","","","","","","","","","","","","","","","","","","","","","","","","","","","","","","","","","","","","","","","",""
"audio-keyboard-response","99","251659","0.0-4.0-1.0-0.26","1","1","yyp4kwa3lr7xtef","","null","","sounds/induction/left/ru_SWS.wav","","null","","","","","","","","","","","","","","","","","","","","","","","","","","","","","","","","","","","","","","","","","",""
"html-button-response","100","252427","0.0-4.0-1.0-1.26","1","1","yyp4kwa3lr7xtef","","767.2999999523163","","What sound did you hear?","0","","","1","INDUCTION-JUDGMENT","left","0","","","","","","","","","","","","","","","","","","","","","","","","","","","","","","","","","","","","",""
"html-keyboard-response","101","253438","0.0-4.0-1.0-2.26","1","1","yyp4kwa3lr7xtef","","null","","<p style=""color:green;""><b>Correct!</b></p>","","null","","","","","","","","","","","","","","","","","","","","","","","","","","","","","","","","","","","","","","","","","",""
"audio-keyboard-response","102","254252","0.0-4.0-1.0-0.27","1","1","yyp4kwa3lr7xtef","","null","","sounds/induction/right/ge_SWS.wav","","null","","","","","","","","","","","","","","","","","","","","","","","","","","","","","","","","","","","","","","","","","",""
"html-button-response","103","255071","0.0-4.0-1.0-1.27","1","1","yyp4kwa3lr7xtef","","816.2999999523163","","What sound did you hear?","1","","","0","INDUCTION-JUDGMENT","right","0","","","","","","","","","","","","","","","","","","","","","","","","","","","","","","","","","","","","",""
"html-keyboard-response","104","256075","0.0-4.0-1.0-2.27","1","1","yyp4kwa3lr7xtef","","null","","<p style=""color:red;""><b>Incorrect!</b></p>","","null","","","","","","","","","","","","","","","","","","","","","","","","","","","","","","","","","","","","","","","","","",""
"audio-keyboard-response","105","256879","0.0-4.0-1.0-0.28","1","1","yyp4kwa3lr7xtef","","null","","sounds/induction/right/su_SWS.wav","","null","","","","","","","","","","","","","","","","","","","","","","","","","","","","","","","","","","","","","","","","","",""
"html-button-response","106","257622","0.0-4.0-1.0-1.28","1","1","yyp4kwa3lr7xtef","","741.4000000953674","","What sound did you hear?","1","","","1","INDUCTION-JUDGMENT","right","1","","","","","","","","","","","","","","","","","","","","","","","","","","","","","","","","","","","","",""
"html-keyboard-response","107","258633","0.0-4.0-1.0-2.28","1","1","yyp4kwa3lr7xtef","","null","","<p style=""color:green;""><b>Correct!</b></p>","","null","","","","","","","","","","","","","","","","","","","","","","","","","","","","","","","","","","","","","","","","","",""
"audio-keyboard-response","108","259439","0.0-4.0-1.0-0.29","1","1","yyp4kwa3lr7xtef","","null","","sounds/induction/right/me_SWS.wav","","null","","","","","","","","","","","","","","","","","","","","","","","","","","","","","","","","","","","","","","","","","",""
"html-button-response","109","260331","0.0-4.0-1.0-1.29","1","1","yyp4kwa3lr7xtef","","890.3999998569489","","What sound did you hear?","0","","","1","INDUCTION-JUDGMENT","right","0","","","","","","","","","","","","","","","","","","","","","","","","","","","","","","","","","","","","",""
"html-keyboard-response","110","261344","0.0-4.0-1.0-2.29","1","1","yyp4kwa3lr7xtef","","null","","<p style=""color:green;""><b>Correct!</b></p>","","null","","","","","","","","","","","","","","","","","","","","","","","","","","","","","","","","","","","","","","","","","",""
"audio-keyboard-response","111","262158","0.0-4.0-1.0-0.30","1","1","yyp4kwa3lr7xtef","","null","","sounds/induction/left/fu_SWS.wav","","null","","","","","","","","","","","","","","","","","","","","","","","","","","","","","","","","","","","","","","","","","",""
"html-button-response","112","263045","0.0-4.0-1.0-1.30","1","1","yyp4kwa3lr7xtef","","885.3999998569489","","What sound did you hear?","1","","","1","INDUCTION-JUDGMENT","left","1","","","","","","","","","","","","","","","","","","","","","","","","","","","","","","","","","","","","",""
"html-keyboard-response","113","264058","0.0-4.0-1.0-2.30","1","1","yyp4kwa3lr7xtef","","null","","<p style=""color:green;""><b>Correct!</b></p>","","null","","","","","","","","","","","","","","","","","","","","","","","","","","","","","","","","","","","","","","","","","",""
"audio-keyboard-response","114","264862","0.0-4.0-1.0-0.31","1","1","yyp4kwa3lr7xtef","","null","","sounds/induction/right/pu_SWS.wav","","null","","","","","","","","","","","","","","","","","","","","","","","","","","","","","","","","","","","","","","","","","",""
"html-button-response","115","266106","0.0-4.0-1.0-1.31","1","1","yyp4kwa3lr7xtef","","1242.2000000476837","","What sound did you hear?","0","","","0","INDUCTION-JUDGMENT","right","1","","","","","","","","","","","","","","","","","","","","","","","","","","","","","","","","","","","","",""
"html-keyboard-response","116","267128","0.0-4.0-1.0-2.31","1","1","yyp4kwa3lr7xtef","","null","","<p style=""color:red;""><b>Incorrect!</b></p>","","null","","","","","","","","","","","","","","","","","","","","","","","","","","","","","","","","","","","","","","","","","",""
"audio-keyboard-response","117","267931","0.0-4.0-1.0-0.32","1","1","yyp4kwa3lr7xtef","","null","","sounds/induction/right/ko_SWS.wav","","null","","","","","","","","","","","","","","","","","","","","","","","","","","","","","","","","","","","","","","","","","",""
"html-button-response","118","268626","0.0-4.0-1.0-1.32","1","1","yyp4kwa3lr7xtef","","693.3999998569489","","What sound did you hear?","0","","","1","INDUCTION-JUDGMENT","right","0","","","","","","","","","","","","","","","","","","","","","","","","","","","","","","","","","","","","",""
"html-keyboard-response","119","269638","0.0-4.0-1.0-2.32","1","1","yyp4kwa3lr7xtef","","null","","<p style=""color:green;""><b>Correct!</b></p>","","null","","","","","","","","","","","","","","","","","","","","","","","","","","","","","","","","","","","","","","","","","",""
"audio-keyboard-response","120","270450","0.0-4.0-1.0-0.33","1","1","yyp4kwa3lr7xtef","","null","","sounds/induction/left/fu_SWS.wav","","null","","","","","","","","","","","","","","","","","","","","","","","","","","","","","","","","","","","","","","","","","",""
"html-button-response","121","271313","0.0-4.0-1.0-1.33","1","1","yyp4kwa3lr7xtef","","861.7999999523163","","What sound did you hear?","1","","","1","INDUCTION-JUDGMENT","left","1","","","","","","","","","","","","","","","","","","","","","","","","","","","","","","","","","","","","",""
"html-keyboard-response","122","272318","0.0-4.0-1.0-2.33","1","1","yyp4kwa3lr7xtef","","null","","<p style=""color:green;""><b>Correct!</b></p>","","null","","","","","","","","","","","","","","","","","","","","","","","","","","","","","","","","","","","","","","","","","",""
"audio-keyboard-response","123","273130","0.0-4.0-1.0-0.34","1","1","yyp4kwa3lr7xtef","","null","","sounds/induction/right/ko_SWS.wav","","null","","","","","","","","","","","","","","","","","","","","","","","","","","","","","","","","","","","","","","","","","",""
"html-button-response","124","273893","0.0-4.0-1.0-1.34","1","1","yyp4kwa3lr7xtef","","761.0999999046326","","What sound did you hear?","0","","","1","INDUCTION-JUDGMENT","right","0","","","","","","","","","","","","","","","","","","","","","","","","","","","","","","","","","","","","",""
"html-keyboard-response","125","274908","0.0-4.0-1.0-2.34","1","1","yyp4kwa3lr7xtef","","null","","<p style=""color:green;""><b>Correct!</b></p>","","null","","","","","","","","","","","","","","","","","","","","","","","","","","","","","","","","","","","","","","","","","",""
"audio-keyboard-response","126","275721","0.0-4.0-1.0-0.35","1","1","yyp4kwa3lr7xtef","","null","","sounds/induction/left/fe_SWS.wav","","null","","","","","","","","","","","","","","","","","","","","","","","","","","","","","","","","","","","","","","","","","",""
"html-button-response","127","276521","0.0-4.0-1.0-1.35","1","1","yyp4kwa3lr7xtef","","798.0999999046326","","What sound did you hear?","1","","","1","INDUCTION-JUDGMENT","left","1","","","","","","","","","","","","","","","","","","","","","","","","","","","","","","","","","","","","",""
"html-keyboard-response","128","277528","0.0-4.0-1.0-2.35","1","1","yyp4kwa3lr7xtef","","null","","<p style=""color:green;""><b>Correct!</b></p>","","null","","","","","","","","","","","","","","","","","","","","","","","","","","","","","","","","","","","","","","","","","",""
"audio-keyboard-response","129","278331","0.0-4.0-1.0-0.36","1","1","yyp4kwa3lr7xtef","","null","","sounds/induction/left/re_SWS.wav","","null","","","","","","","","","","","","","","","","","","","","","","","","","","","","","","","","","","","","","","","","","",""
"html-button-response","130","279206","0.0-4.0-1.0-1.36","1","1","yyp4kwa3lr7xtef","","873.5999999046326","","What sound did you hear?","0","","","1","INDUCTION-JUDGMENT","left","0","","","","","","","","","","","","","","","","","","","","","","","","","","","","","","","","","","","","",""
"html-keyboard-response","131","280210","0.0-4.0-1.0-2.36","1","1","yyp4kwa3lr7xtef","","null","","<p style=""color:green;""><b>Correct!</b></p>","","null","","","","","","","","","","","","","","","","","","","","","","","","","","","","","","","","","","","","","","","","","",""
"audio-keyboard-response","132","281010","0.0-4.0-1.0-0.37","1","1","yyp4kwa3lr7xtef","","null","","sounds/induction/left/ru_SWS.wav","","null","","","","","","","","","","","","","","","","","","","","","","","","","","","","","","","","","","","","","","","","","",""
"html-button-response","133","281719","0.0-4.0-1.0-1.37","1","1","yyp4kwa3lr7xtef","","707.1000001430511","","What sound did you hear?","0","","","1","INDUCTION-JUDGMENT","left","0","","","","","","","","","","","","","","","","","","","","","","","","","","","","","","","","","","","","",""
"html-keyboard-response","134","282726","0.0-4.0-1.0-2.37","1","1","yyp4kwa3lr7xtef","","null","","<p style=""color:green;""><b>Correct!</b></p>","","null","","","","","","","","","","","","","","","","","","","","","","","","","","","","","","","","","","","","","","","","","",""
"audio-keyboard-response","135","283532","0.0-4.0-1.0-0.38","1","1","yyp4kwa3lr7xtef","","null","","sounds/induction/right/re_SWS.wav","","null","","","","","","","","","","","","","","","","","","","","","","","","","","","","","","","","","","","","","","","","","",""
"html-button-response","136","284401","0.0-4.0-1.0-1.38","1","1","yyp4kwa3lr7xtef","","866.5","","What sound did you hear?","1","","","1","INDUCTION-JUDGMENT","right","1","","","","","","","","","","","","","","","","","","","","","","","","","","","","","","","","","","","","",""
"html-keyboard-response","137","285407","0.0-4.0-1.0-2.38","1","1","yyp4kwa3lr7xtef","","null","","<p style=""color:green;""><b>Correct!</b></p>","","null","","","","","","","","","","","","","","","","","","","","","","","","","","","","","","","","","","","","","","","","","",""
"audio-keyboard-response","138","286220","0.0-4.0-1.0-0.39","1","1","yyp4kwa3lr7xtef","","null","","sounds/induction/right/ge_SWS.wav","","null","","","","","","","","","","","","","","","","","","","","","","","","","","","","","","","","","","","","","","","","","",""
"html-button-response","139","286981","0.0-4.0-1.0-1.39","1","1","yyp4kwa3lr7xtef","","758.7999999523163","","What sound did you hear?","0","","","1","INDUCTION-JUDGMENT","right","0","","","","","","","","","","","","","","","","","","","","","","","","","","","","","","","","","","","","",""
"html-keyboard-response","140","287988","0.0-4.0-1.0-2.39","1","1","yyp4kwa3lr7xtef","","null","","<p style=""color:green;""><b>Correct!</b></p>","","null","","","","","","","","","","","","","","","","","","","","","","","","","","","","","","","","","","","","","","","","","",""
"audio-keyboard-response","141","288800","0.0-4.0-1.0-0.40","1","1","yyp4kwa3lr7xtef","","null","","sounds/induction/left/ko_SWS.wav","","null","","","","","","","","","","","","","","","","","","","","","","","","","","","","","","","","","","","","","","","","","",""
"html-button-response","142","289505","0.0-4.0-1.0-1.40","1","1","yyp4kwa3lr7xtef","","702.5","","What sound did you hear?","0","","","0","INDUCTION-JUDGMENT","left","1","","","","","","","","","","","","","","","","","","","","","","","","","","","","","","","","","","","","",""
"html-keyboard-response","143","290518","0.0-4.0-1.0-2.40","1","1","yyp4kwa3lr7xtef","","null","","<p style=""color:red;""><b>Incorrect!</b></p>","","null","","","","","","","","","","","","","","","","","","","","","","","","","","","","","","","","","","","","","","","","","",""
"audio-keyboard-response","144","291329","0.0-4.0-1.0-0.41","1","1","yyp4kwa3lr7xtef","","null","","sounds/induction/right/ta_SWS.wav","","null","","","","","","","","","","","","","","","","","","","","","","","","","","","","","","","","","","","","","","","","","",""
"html-button-response","145","292137","0.0-4.0-1.0-1.41","1","1","yyp4kwa3lr7xtef","","805.2999999523163","","What sound did you hear?","1","","","1","INDUCTION-JUDGMENT","right","1","","","","","","","","","","","","","","","","","","","","","","","","","","","","","","","","","","","","",""
"html-keyboard-response","146","293148","0.0-4.0-1.0-2.41","1","1","yyp4kwa3lr7xtef","","null","","<p style=""color:green;""><b>Correct!</b></p>","","null","","","","","","","","","","","","","","","","","","","","","","","","","","","","","","","","","","","","","","","","","",""
"audio-keyboard-response","147","293960","0.0-4.0-1.0-0.42","1","1","yyp4kwa3lr7xtef","","null","","sounds/induction/right/ni_SWS.wav","","null","","","","","","","","","","","","","","","","","","","","","","","","","","","","","","","","","","","","","","","","","",""
"html-button-response","148","294727","0.0-4.0-1.0-1.42","1","1","yyp4kwa3lr7xtef","","765","","What sound did you hear?","0","","","1","INDUCTION-JUDGMENT","right","0","","","","","","","","","","","","","","","","","","","","","","","","","","","","","","","","","","","","",""
"html-keyboard-response","149","295736","0.0-4.0-1.0-2.42","1","1","yyp4kwa3lr7xtef","","null","","<p style=""color:green;""><b>Correct!</b></p>","","null","","","","","","","","","","","","","","","","","","","","","","","","","","","","","","","","","","","","","","","","","",""
"audio-keyboard-response","150","296542","0.0-4.0-1.0-0.43","1","1","yyp4kwa3lr7xtef","","null","","sounds/induction/right/pu_SWS.wav","","null","","","","","","","","","","","","","","","","","","","","","","","","","","","","","","","","","","","","","","","","","",""
"html-button-response","151","297690","0.0-4.0-1.0-1.43","1","1","yyp4kwa3lr7xtef","","1145.9000000953674","","What sound did you hear?","0","","","0","INDUCTION-JUDGMENT","right","1","","","","","","","","","","","","","","","","","","","","","","","","","","","","","","","","","","","","",""
"html-keyboard-response","152","298694","0.0-4.0-1.0-2.43","1","1","yyp4kwa3lr7xtef","","null","","<p style=""color:red;""><b>Incorrect!</b></p>","","null","","","","","","","","","","","","","","","","","","","","","","","","","","","","","","","","","","","","","","","","","",""
"audio-keyboard-response","153","299489","0.0-4.0-1.0-0.44","1","1","yyp4kwa3lr7xtef","","null","","sounds/induction/right/su_SWS.wav","","null","","","","","","","","","","","","","","","","","","","","","","","","","","","","","","","","","","","","","","","","","",""
"html-button-response","154","300392","0.0-4.0-1.0-1.44","1","1","yyp4kwa3lr7xtef","","900.6999998092651","","What sound did you hear?","1","","","1","INDUCTION-JUDGMENT","right","1","","","","","","","","","","","","","","","","","","","","","","","","","","","","","","","","","","","","",""
"html-keyboard-response","155","301406","0.0-4.0-1.0-2.44","1","1","yyp4kwa3lr7xtef","","null","","<p style=""color:green;""><b>Correct!</b></p>","","null","","","","","","","","","","","","","","","","","","","","","","","","","","","","","","","","","","","","","","","","","",""
"audio-keyboard-response","156","302210","0.0-4.0-1.0-0.45","1","1","yyp4kwa3lr7xtef","","null","","sounds/induction/left/pu_SWS.wav","","null","","","","","","","","","","","","","","","","","","","","","","","","","","","","","","","","","","","","","","","","","",""
"html-button-response","157","303560","0.0-4.0-1.0-1.45","1","1","yyp4kwa3lr7xtef","","1348.6000001430511","","What sound did you hear?","0","","","1","INDUCTION-JUDGMENT","left","0","","","","","","","","","","","","","","","","","","","","","","","","","","","","","","","","","","","","",""
"html-keyboard-response","158","304573","0.0-4.0-1.0-2.45","1","1","yyp4kwa3lr7xtef","","null","","<p style=""color:green;""><b>Correct!</b></p>","","null","","","","","","","","","","","","","","","","","","","","","","","","","","","","","","","","","","","","","","","","","",""
"audio-keyboard-response","159","305382","0.0-4.0-1.0-0.46","1","1","yyp4kwa3lr7xtef","","null","","sounds/induction/left/ta_SWS.wav","","null","","","","","","","","","","","","","","","","","","","","","","","","","","","","","","","","","","","","","","","","","",""
"html-button-response","160","306287","0.0-4.0-1.0-1.46","1","1","yyp4kwa3lr7xtef","","903.7000000476837","","What sound did you hear?","0","","","1","INDUCTION-JUDGMENT","left","0","","","","","","","","","","","","","","","","","","","","","","","","","","","","","","","","","","","","",""
"html-keyboard-response","161","307290","0.0-4.0-1.0-2.46","1","1","yyp4kwa3lr7xtef","","null","","<p style=""color:green;""><b>Correct!</b></p>","","null","","","","","","","","","","","","","","","","","","","","","","","","","","","","","","","","","","","","","","","","","",""
"audio-keyboard-response","162","308090","0.0-4.0-1.0-0.47","1","1","yyp4kwa3lr7xtef","","null","","sounds/induction/left/fe_SWS.wav","","null","","","","","","","","","","","","","","","","","","","","","","","","","","","","","","","","","","","","","","","","","",""
"html-button-response","163","308961","0.0-4.0-1.0-1.47","1","1","yyp4kwa3lr7xtef","","869","","What sound did you hear?","1","","","1","INDUCTION-JUDGMENT","left","1","","","","","","","","","","","","","","","","","","","","","","","","","","","","","","","","","","","","",""
"html-keyboard-response","164","309974","0.0-4.0-1.0-2.47","1","1","yyp4kwa3lr7xtef","","null","","<p style=""color:green;""><b>Correct!</b></p>","","null","","","","","","","","","","","","","","","","","","","","","","","","","","","","","","","","","","","","","","","","","",""
"html-button-response","165","339642","0.0-5.0-0.0","1","1","yyp4kwa3lr7xtef","","29162.900000095367","","<p>Thank you for your answers.</p><p>You will now listen to similar sounds. The main difference is that the sounds will be longer and will make up complete sentences.</p><p>Please listen carefully to each sentence. After each sentence, you will be asked to type back what you heard to the best of your ability. After you provide your response, you will be given feedback about the correct answer.</p><p>There are 10 sentences in total.","0","","","","","","","","","","","","","","","","","","","","","","","","","","","","","","","","","","","","","","","","","","",""
"audio-keyboard-response","166","342520","0.0-5.0-1.0-0.0","1","1","yyp4kwa3lr7xtef","","null","","sounds/sentences/right/14_07_cfSWS.wav","","null","","","","","","","","","","","","","","","","","","","","","","","","","","","","","","","","","","","","","","","","","",""
"sentence-resp","167","358760","0.0-5.0-1.0-1.0","1","1","yyp4kwa3lr7xtef","","16238","","","","","","","SWS-SENT-RESPONSE","","","{""Q0"":""Write a __ to the friends you cherish""}","Write a fond note to the friend you cherish.","write,fond,note,friend,cherish","WRITE A __ TO THE FRIENDS YOU CHERISH","1","0","0","0","1","2","0.4","","","","","","","","","","","","","","","","","","","","","","","","","",""
"html-keyboard-response","168","360018","0.0-5.0-1.0-2.0","1","1","yyp4kwa3lr7xtef","","null","","","","null","","","","","","","","","","","","","","","","","","","","","","","","","","","","","","","","","","","","","","","","","",""
"audio-keyboard-response","169","362399","0.0-5.0-1.0-3.0","1","1","yyp4kwa3lr7xtef","","null","","sounds/sentences/right/14_07_cfSWS.wav","","null","","","","","","","","","","","","","","","","","","","","","","","","","","","","","","","","","","","","","","","","","",""
"html-keyboard-response","170","363410","0.0-5.0-1.0-4.0","1","1","yyp4kwa3lr7xtef","","null","","","","null","","","","","","","","","","","","","","","","","","","","","","","","","","","","","","","","","","","","","","","","","",""
"html-button-response","171","373711","0.0-5.0-1.0-5.0","1","1","yyp4kwa3lr7xtef","","9791.200000047684","","<p>Press the button below when you are ready to continue.</p>","0","","","","","","","","","","","","","","","","","","","","","","","","","","","","","","","","","","","","","","","","","","",""
"audio-keyboard-response","172","376539","0.0-5.0-1.0-0.1","1","1","yyp4kwa3lr7xtef","","null","","sounds/sentences/left/14_02_cfSWS.wav","","null","","","","","","","","","","","","","","","","","","","","","","","","","","","","","","","","","","","","","","","","","",""
"sentence-resp","173","381510","0.0-5.0-1.0-1.1","1","1","yyp4kwa3lr7xtef","","4969","","","","","","","SWS-SENT-RESPONSE","","","{""Q0"":""He said the same phrase 30 times""}","He said the same phrase thirty times.","said,same,phrase,thirty,times","HE SAID THE SAME PHRASE 30 TIMES","1","1","1","0","1","4","0.8","","","","","","","","","","","","","","","","","","","","","","","","","",""
"html-keyboard-response","174","382771","0.0-5.0-1.0-2.1","1","1","yyp4kwa3lr7xtef","","null","","","","null","","","","","","","","","","","","","","","","","","","","","","","","","","","","","","","","","","","","","","","","","",""
"audio-keyboard-response","175","385089","0.0-5.0-1.0-3.1","1","1","yyp4kwa3lr7xtef","","null","","sounds/sentences/left/14_02_cfSWS.wav","","null","","","","","","","","","","","","","","","","","","","","","","","","","","","","","","","","","","","","","","","","","",""
"html-keyboard-response","176","386095","0.0-5.0-1.0-4.1","1","1","yyp4kwa3lr7xtef","","null","","","","null","","","","","","","","","","","","","","","","","","","","","","","","","","","","","","","","","","","","","","","","","",""
"html-button-response","177","387361","0.0-5.0-1.0-5.1","1","1","yyp4kwa3lr7xtef","","757.5999999046326","","<p>Press the button below when you are ready to continue.</p>","0","","","","","","","","","","","","","","","","","","","","","","","","","","","","","","","","","","","","","","","","","","",""
"audio-keyboard-response","178","390379","0.0-5.0-1.0-0.2","1","1","yyp4kwa3lr7xtef","","null","","sounds/sentences/right/14_10_cfSWS.wav","","null","","","","","","","","","","","","","","","","","","","","","","","","","","","","","","","","","","","","","","","","","",""
"sentence-resp","179","406307","0.0-5.0-1.0-1.2","1","1","yyp4kwa3lr7xtef","","15925","","","","","","","SWS-SENT-RESPONSE","","","{""Q0"":""__ is a strong wine with a smoky taste""}","Port is a strong wine with a smoky taste.","port,strong,wine,smoky,taste","__ IS A STRONG WINE WITH A SMOKY TASTE","0","1","1","1","1","4","0.8","","","","","","","","","","","","","","","","","","","","","","","","","",""
"html-keyboard-response","180","407568","0.0-5.0-1.0-2.2","1","1","yyp4kwa3lr7xtef","","null","","","","null","","","","","","","","","","","","","","","","","","","","","","","","","","","","","","","","","","","","","","","","","",""
"audio-keyboard-response","181","410080","0.0-5.0-1.0-3.2","1","1","yyp4kwa3lr7xtef","","null","","sounds/sentences/right/14_10_cfSWS.wav","","null","","","","","","","","","","","","","","","","","","","","","","","","","","","","","","","","","","","","","","","","","",""
"html-keyboard-response","182","411087","0.0-5.0-1.0-4.2","1","1","yyp4kwa3lr7xtef","","null","","","","null","","","","","","","","","","","","","","","","","","","","","","","","","","","","","","","","","","","","","","","","","",""
"html-button-response","183","412237","0.0-5.0-1.0-5.2","1","1","yyp4kwa3lr7xtef","","639.5","","<p>Press the button below when you are ready to continue.</p>","0","","","","","","","","","","","","","","","","","","","","","","","","","","","","","","","","","","","","","","","","","","",""
"audio-keyboard-response","184","414801","0.0-5.0-1.0-0.3","1","1","yyp4kwa3lr7xtef","","null","","sounds/sentences/left/14_04_cfSWS.wav","","null","","","","","","","","","","","","","","","","","","","","","","","","","","","","","","","","","","","","","","","","","",""
"sentence-resp","185","420254","0.0-5.0-1.0-1.3","1","1","yyp4kwa3lr7xtef","","5449","","","","","","","SWS-SENT-RESPONSE","","","{""Q0"":""2 + 7 is less than 10""}","Two plus seven is less than ten.","two,plus,seven,less,ten","2 + 7 IS LESS THAN 10","0","0","0","1","0","1","0.2","","","","","","","","","","","","","","","","","","","","","","","","","",""
"html-keyboard-response","186","421511","0.0-5.0-1.0-2.3","1","1","yyp4kwa3lr7xtef","","null","","","","null","","","","","","","","","","","","","","","","","","","","","","","","","","","","","","","","","","","","","","","","","",""
"audio-keyboard-response","187","423571","0.0-5.0-1.0-3.3","1","1","yyp4kwa3lr7xtef","","null","","sounds/sentences/left/14_04_cfSWS.wav","","null","","","","","","","","","","","","","","","","","","","","","","","","","","","","","","","","","","","","","","","","","",""
"html-keyboard-response","188","424581","0.0-5.0-1.0-4.3","1","1","yyp4kwa3lr7xtef","","null","","","","null","","","","","","","","","","","","","","","","","","","","","","","","","","","","","","","","","","","","","","","","","",""
"html-button-response","189","425636","0.0-5.0-1.0-5.3","1","1","yyp4kwa3lr7xtef","","546.8999998569489","","<p>Press the button below when you are ready to continue.</p>","0","","","","","","","","","","","","","","","","","","","","","","","","","","","","","","","","","","","","","","","","","","",""
"audio-keyboard-response","190","428400","0.0-5.0-1.0-0.4","1","1","yyp4kwa3lr7xtef","","null","","sounds/sentences/right/14_08_cfSWS.wav","","null","","","","","","","","","","","","","","","","","","","","","","","","","","","","","","","","","","","","","","","","","",""
"sentence-resp","191","445896","0.0-5.0-1.0-1.4","1","1","yyp4kwa3lr7xtef","","17493","","","","","","","SWS-SENT-RESPONSE","","","{""Q0"":""___ free to live""}","Clothes and lodging are free to new men.","clothes,lodging,free,new,men","___ FREE TO LIVE","0","0","1","0","0","1","0.2","","","","","","","","","","","","","","","","","","","","","","","","","",""
"html-keyboard-response","192","447167","0.0-5.0-1.0-2.4","1","1","yyp4kwa3lr7xtef","","null","","","","null","","","","","","","","","","","","","","","","","","","","","","","","","","","","","","","","","","","","","","","","","",""
"audio-keyboard-response","193","449421","0.0-5.0-1.0-3.4","1","1","yyp4kwa3lr7xtef","","null","","sounds/sentences/right/14_08_cfSWS.wav","","null","","","","","","","","","","","","","","","","","","","","","","","","","","","","","","","","","","","","","","","","","",""
"html-keyboard-response","194","450428","0.0-5.0-1.0-4.4","1","1","yyp4kwa3lr7xtef","","null","","","","null","","","","","","","","","","","","","","","","","","","","","","","","","","","","","","","","","","","","","","","","","",""
"html-button-response","195","451758","0.0-5.0-1.0-5.4","1","1","yyp4kwa3lr7xtef","","825.2999999523163","","<p>Press the button below when you are ready to continue.</p>","0","","","","","","","","","","","","","","","","","","","","","","","","","","","","","","","","","","","","","","","","","","",""
"audio-keyboard-response","196","454500","0.0-5.0-1.0-0.5","1","1","yyp4kwa3lr7xtef","","null","","sounds/sentences/right/14_09_cfSWS.wav","","null","","","","","","","","","","","","","","","","","","","","","","","","","","","","","","","","","","","","","","","","","",""
"sentence-resp","197","460207","0.0-5.0-1.0-1.5","1","1","yyp4kwa3lr7xtef","","5704","","","","","","","SWS-SENT-RESPONSE","","","{""Q0"":""We frown when events take a bad turn""}","We frown when events take a bad turn.","frown,events,take,bad,turn","WE FROWN WHEN EVENTS TAKE A BAD TURN","1","1","1","1","1","5","1","","","","","","","","","","","","","","","","","","","","","","","","","",""
"html-keyboard-response","198","461477","0.0-5.0-1.0-2.5","1","1","yyp4kwa3lr7xtef","","null","","","","null","","","","","","","","","","","","","","","","","","","","","","","","","","","","","","","","","","","","","","","","","",""
"audio-keyboard-response","199","463700","0.0-5.0-1.0-3.5","1","1","yyp4kwa3lr7xtef","","null","","sounds/sentences/right/14_09_cfSWS.wav","","null","","","","","","","","","","","","","","","","","","","","","","","","","","","","","","","","","","","","","","","","","",""
"html-keyboard-response","200","464708","0.0-5.0-1.0-4.5","1","1","yyp4kwa3lr7xtef","","null","","","","null","","","","","","","","","","","","","","","","","","","","","","","","","","","","","","","","","","","","","","","","","",""
"html-button-response","201","466232","0.0-5.0-1.0-5.5","1","1","yyp4kwa3lr7xtef","","1012.9000000953674","","<p>Press the button below when you are ready to continue.</p>","0","","","","","","","","","","","","","","","","","","","","","","","","","","","","","","","","","","","","","","","","","","",""
"audio-keyboard-response","202","468820","0.0-5.0-1.0-0.6","1","1","yyp4kwa3lr7xtef","","null","","sounds/sentences/left/14_03_cfSWS.wav","","null","","","","","","","","","","","","","","","","","","","","","","","","","","","","","","","","","","","","","","","","","",""
"sentence-resp","203","478424","0.0-5.0-1.0-1.6","1","1","yyp4kwa3lr7xtef","","9602","","","","","","","SWS-SENT-RESPONSE","","","{""Q0"":""__ without __ please""}","Pluck the bright rose without leaves.","pluck,bright,rose,without,leaves","__ WITHOUT __ PLEASE","0","0","0","1","0","1","0.2","","","","","","","","","","","","","","","","","","","","","","","","","",""
"html-keyboard-response","204","479685","0.0-5.0-1.0-2.6","1","1","yyp4kwa3lr7xtef","","null","","","","null","","","","","","","","","","","","","","","","","","","","","","","","","","","","","","","","","","","","","","","","","",""
"audio-keyboard-response","205","481769","0.0-5.0-1.0-3.6","1","1","yyp4kwa3lr7xtef","","null","","sounds/sentences/left/14_03_cfSWS.wav","","null","","","","","","","","","","","","","","","","","","","","","","","","","","","","","","","","","","","","","","","","","",""
"html-keyboard-response","206","482777","0.0-5.0-1.0-4.6","1","1","yyp4kwa3lr7xtef","","null","","","","null","","","","","","","","","","","","","","","","","","","","","","","","","","","","","","","","","","","","","","","","","",""
"html-button-response","207","483943","0.0-5.0-1.0-5.6","1","1","yyp4kwa3lr7xtef","","658.5","","<p>Press the button below when you are ready to continue.</p>","0","","","","","","","","","","","","","","","","","","","","","","","","","","","","","","","","","","","","","","","","","","",""
"audio-keyboard-response","208","486941","0.0-5.0-1.0-0.7","1","1","yyp4kwa3lr7xtef","","null","","sounds/sentences/left/14_05_cfSWS.wav","","null","","","","","","","","","","","","","","","","","","","","","","","","","","","","","","","","","","","","","","","","","",""
"sentence-resp","209","496312","0.0-5.0-1.0-1.7","1","1","yyp4kwa3lr7xtef","","9367","","","","","","","SWS-SENT-RESPONSE","","","{""Q0"":""___ deepened in the eyes of the sweet girl""}","The glow deepened in the eyes of the sweet girl.","glow,deepened,eyes,sweet,girl","___ DEEPENED IN THE EYES OF THE SWEET GIRL","0","1","1","1","1","4","0.8","","","","","","","","","","","","","","","","","","","","","","","","","",""
"html-keyboard-response","210","497577","0.0-5.0-1.0-2.7","1","1","yyp4kwa3lr7xtef","","null","","","","null","","","","","","","","","","","","","","","","","","","","","","","","","","","","","","","","","","","","","","","","","",""
"audio-keyboard-response","211","500060","0.0-5.0-1.0-3.7","1","1","yyp4kwa3lr7xtef","","null","","sounds/sentences/left/14_05_cfSWS.wav","","null","","","","","","","","","","","","","","","","","","","","","","","","","","","","","","","","","","","","","","","","","",""
"html-keyboard-response","212","501068","0.0-5.0-1.0-4.7","1","1","yyp4kwa3lr7xtef","","null","","","","null","","","","","","","","","","","","","","","","","","","","","","","","","","","","","","","","","","","","","","","","","",""
"html-button-response","213","502203","0.0-5.0-1.0-5.7","1","1","yyp4kwa3lr7xtef","","625.7000000476837","","<p>Press the button below when you are ready to continue.</p>","0","","","","","","","","","","","","","","","","","","","","","","","","","","","","","","","","","","","","","","","","","","",""
"audio-keyboard-response","214","504950","0.0-5.0-1.0-0.8","1","1","yyp4kwa3lr7xtef","","null","","sounds/sentences/right/14_06_cfSWS.wav","","null","","","","","","","","","","","","","","","","","","","","","","","","","","","","","","","","","","","","","","","","","",""
"sentence-resp","215","510808","0.0-5.0-1.0-1.8","1","1","yyp4kwa3lr7xtef","","5855","","","","","","","SWS-SENT-RESPONSE","","","{""Q0"":""Bring your problems to the wise chief ""}","Bring your problems to the wise chief.","bring,your,problems,wise,chief","BRING YOUR PROBLEMS TO THE WISE CHIEF ","1","1","1","1","1","5","1","","","","","","","","","","","","","","","","","","","","","","","","","",""
"html-keyboard-response","216","512078","0.0-5.0-1.0-2.8","1","1","yyp4kwa3lr7xtef","","null","","","","null","","","","","","","","","","","","","","","","","","","","","","","","","","","","","","","","","","","","","","","","","",""
"audio-keyboard-response","217","514321","0.0-5.0-1.0-3.8","1","1","yyp4kwa3lr7xtef","","null","","sounds/sentences/right/14_06_cfSWS.wav","","null","","","","","","","","","","","","","","","","","","","","","","","","","","","","","","","","","","","","","","","","","",""
"html-keyboard-response","218","515328","0.0-5.0-1.0-4.8","1","1","yyp4kwa3lr7xtef","","null","","","","null","","","","","","","","","","","","","","","","","","","","","","","","","","","","","","","","","","","","","","","","","",""
"html-button-response","219","516579","0.0-5.0-1.0-5.8","1","1","yyp4kwa3lr7xtef","","741.7999999523163","","<p>Press the button below when you are ready to continue.</p>","0","","","","","","","","","","","","","","","","","","","","","","","","","","","","","","","","","","","","","","","","","","",""
"audio-keyboard-response","220","519701","0.0-5.0-1.0-0.9","1","1","yyp4kwa3lr7xtef","","null","","sounds/sentences/left/14_01_cfSWS.wav","","null","","","","","","","","","","","","","","","","","","","","","","","","","","","","","","","","","","","","","","","","","",""
"sentence-resp","221","527385","0.0-5.0-1.0-1.9","1","1","yyp4kwa3lr7xtef","","7681","","","","","","","SWS-SENT-RESPONSE","","","{""Q0"":""He crammed his nose through all danger and a swim""}","A cramp is no small danger on a swim.","cramp,no,small,danger,swim","HE CRAMMED HIS NOSE THROUGH ALL DANGER AND A SWIM","0","0","0","1","1","2","0.4","","","","","","","","","","","","","","","","","","","","","","","","","",""
"html-keyboard-response","222","528641","0.0-5.0-1.0-2.9","1","1","yyp4kwa3lr7xtef","","null","","","","null","","","","","","","","","","","","","","","","","","","","","","","","","","","","","","","","","","","","","","","","","",""
"audio-keyboard-response","223","531261","0.0-5.0-1.0-3.9","1","1","yyp4kwa3lr7xtef","","null","","sounds/sentences/left/14_01_cfSWS.wav","","null","","","","","","","","","","","","","","","","","","","","","","","","","","","","","","","","","","","","","","","","","",""
"html-keyboard-response","224","532265","0.0-5.0-1.0-4.9","1","1","yyp4kwa3lr7xtef","","null","","","","null","","","","","","","","","","","","","","","","","","","","","","","","","","","","","","","","","","","","","","","","","",""
"html-button-response","225","533698","0.0-5.0-1.0-5.9","1","1","yyp4kwa3lr7xtef","","928.2999999523163","","<p>Press the button below when you are ready to continue.</p>","0","","","","","","","","","","","","","","","","","","","","","","","","","","","","","","","","","","","","","","","","","","",""
"html-keyboard-response","226","541557","0.0-6.0-0.0","1","1","yyp4kwa3lr7xtef","","7353.200000047684","","<p>In this part of the study, you will hear sounds similar to those you just heard.</p><p>Please focus on these sounds, as you may be asked questions about them later.</p><p>Occasionally, the sounds will pause for up to two seconds. When this happens, please press SPACEBAR as quickly as you can.</br>This helps ensure that you are paying attention to the sounds.</p><p>This part of the study will take about 12 minutes to complete, and you will be given the opportunity to take a couple of short breaks every few minutes.</p><p><strong>Press SPACEBAR to begin</strong></p>","","32","","","","","","","","","","","","","","","","","","","","","","","","","","","","","","","","","","","","","","","","","",""
"html-keyboard-response","227","542568","0.0-6.0-1.0-0.0","1","1","yyp4kwa3lr7xtef","","null","","<p style=""font-size: 40px;"">+</p>","","null","","","","","","","","","","","","","","","","","","","","","","","","","","","","","","","","","","","","","","","","","",""
"html-keyboard-response","228","727588","0.0-6.0-1.0-1.0","1","1","yyp4kwa3lr7xtef","","null","","","","null","","","SL-TRAIN","","","","","","","","","","","","","","0","1772.0999999046326","1384.7999999523163","sounds/A/TRAIN/SEQ__10.mp3","2","","","","","","","","","","","","","","","","","","","","",""
"html-button-response","229","729051","0.0-6.0-1.0-2.0","1","1","yyp4kwa3lr7xtef","","1460.0999999046326","","<p>You may take a short break if you wish.</p>","0","","","","","","","","","","","","","","","","","","","","","","","","","","","","","","","","","","","","","","","","","","",""
"html-keyboard-response","230","730057","0.0-6.0-1.0-3.0","1","1","yyp4kwa3lr7xtef","","null","","<p style=""font-size: 40px;"">+</p>","","null","","","","","","","","","","","","","","","","","","","","","","","","","","","","","","","","","","","","","","","","","",""
"html-keyboard-response","231","915068","0.0-6.0-1.0-4.0","1","1","yyp4kwa3lr7xtef","","null","","","","null","","","SL-TRAIN","","","","","","","","","","","","","","0","1135.9000000953674","1308.9000000953674","sounds/A/TRAIN/SEQ__06.mp3","4","","","","","","","","","","","","","","","","","","","","",""
"html-button-response","232","916863","0.0-6.0-1.0-5.0","1","1","yyp4kwa3lr7xtef","","1792.6000001430511","","<p>You may take a short break if you wish.</p>","0","","","","","","","","","","","","","","","","","","","","","","","","","","","","","","","","","","","","","","","","","","",""
"html-keyboard-response","233","917870","0.0-6.0-1.0-6.0","1","1","yyp4kwa3lr7xtef","","null","","<p style=""font-size: 40px;"">+</p>","","null","","","","","","","","","","","","","","","","","","","","","","","","","","","","","","","","","","","","","","","","","",""
"html-keyboard-response","234","1102886","0.0-6.0-1.0-7.0","1","1","yyp4kwa3lr7xtef","","null","","","","null","","","SL-TRAIN","","","","","","","","","","","","","","1","null","1327.2999999523163","sounds/A/TRAIN/SEQ__12.mp3","3","","","","","","","","","","","","","","","","","","","","",""
"html-button-response","235","1119647","0.0-6.0-1.0-8.0","1","1","yyp4kwa3lr7xtef","","16759.700000047684","","<p>You may take a short break if you wish.</p>","0","","","","","","","","","","","","","","","","","","","","","","","","","","","","","","","","","","","","","","","","","","",""
"html-keyboard-response","236","1120654","0.0-6.0-1.0-9.0","1","1","yyp4kwa3lr7xtef","","null","","<p style=""font-size: 40px;"">+</p>","","null","","","","","","","","","","","","","","","","","","","","","","","","","","","","","","","","","","","","","","","","","",""
"html-keyboard-response","237","1305667","0.0-6.0-1.0-10.0","1","1","yyp4kwa3lr7xtef","","null","","","","null","","","SL-TRAIN","","","","","","","","","","","","","","0","1030.9000000953674","1047.5","sounds/A/TRAIN/SEQ__07.mp3","8","","","","","","","","","","","","","","","","","","","","",""
"html-button-response","238","1306797","0.0-6.0-1.0-11.0","1","1","yyp4kwa3lr7xtef","","1127","","<p>You may take a short break if you wish.</p>","0","","","","","","","","","","","","","","","","","","","","","","","","","","","","","","","","","","","","","","","","","","",""
"html-button-response","239","1312204","0.0-7.0-0.0","1","1","yyp4kwa3lr7xtef","","5404.900000095367","","<p>Welcome to the second part of the study. This is a <u>familiarity task</u>.</p><p>You will now hear short sounds and will be asked to rate how familiar they sound to you <b>based on what you heard in the previous part of the study</b>.</p><p>You will rate 12 sounds in total.</p>","0","","","","","","","","","","","","","","","","","","","","","","","","","","","","","","","","","","","","","","","","","","",""
"html-keyboard-response","240","1313217","0.0-7.0-1.0-0.0","1","1","yyp4kwa3lr7xtef","","null","","","","null","","","","","","","","","","","","","","","","","","","","","","","","","","","","","","","","","","","","","","","","","",""
"audio-keyboard-response","241","1314221","0.0-7.0-1.0-1.0","1","1","yyp4kwa3lr7xtef","","null","","sounds/A/FAM/W003.mp3","","null","","","","","","","","","","","","","","","","","","","","","","","","","","","","","","","","","","","","","","","","","",""
"html-keyboard-response","242","1316925","0.0-7.0-1.0-2.0","1","1","yyp4kwa3lr7xtef","","2199.0999999046326","","<p>How familiar did this sound to you?</p><p>1&nbsp;&nbsp;&nbsp;&nbsp;&nbsp;&nbsp;&nbsp;&nbsp;&nbsp;&nbsp;&nbsp;&nbsp;&nbsp;&nbsp;&nbsp;&nbsp;&nbsp;&nbsp;&nbsp;2&nbsp;&nbsp;&nbsp;&nbsp;&nbsp;&nbsp;&nbsp;&nbsp;&nbsp;&nbsp;&nbsp;&nbsp;&nbsp;&nbsp;&nbsp;&nbsp;&nbsp;&nbsp;&nbsp;3&nbsp;&nbsp;&nbsp;&nbsp;&nbsp;&nbsp;&nbsp;&nbsp;&nbsp;&nbsp;&nbsp;&nbsp;&nbsp;&nbsp;&nbsp;&nbsp;&nbsp;&nbsp;&nbsp;4</p><p style=""font-size:14px"">Not at all familiar&nbsp;&nbsp;&nbsp;&nbsp;A little familiar&nbsp;&nbsp;&nbsp;Moderately familiar&nbsp;&nbsp;&nbsp;Extremely familiar</p><p>(press the corresponding number on your keyboard)</p>","","51","","","FAM-RESPONSE","","","","","","","","","","","","","","","","","","","sounds/A/FAM/W003.mp3","word","","","","","","","","","","","","","","","","","","",""
"html-keyboard-response","243","1318947","0.0-7.0-1.0-0.1","1","1","yyp4kwa3lr7xtef","","null","","","","null","","","","","","","","","","","","","","","","","","","","","","","","","","","","","","","","","","","","","","","","","",""
"audio-keyboard-response","244","1319889","0.0-7.0-1.0-1.1","1","1","yyp4kwa3lr7xtef","","null","","sounds/A/FAM/P004.mp3","","null","","","","","","","","","","","","","","","","","","","","","","","","","","","","","","","","","","","","","","","","","",""
"html-keyboard-response","245","1325397","0.0-7.0-1.0-2.1","1","1","yyp4kwa3lr7xtef","","4999.099999904633","","<p>How familiar did this sound to you?</p><p>1&nbsp;&nbsp;&nbsp;&nbsp;&nbsp;&nbsp;&nbsp;&nbsp;&nbsp;&nbsp;&nbsp;&nbsp;&nbsp;&nbsp;&nbsp;&nbsp;&nbsp;&nbsp;&nbsp;2&nbsp;&nbsp;&nbsp;&nbsp;&nbsp;&nbsp;&nbsp;&nbsp;&nbsp;&nbsp;&nbsp;&nbsp;&nbsp;&nbsp;&nbsp;&nbsp;&nbsp;&nbsp;&nbsp;3&nbsp;&nbsp;&nbsp;&nbsp;&nbsp;&nbsp;&nbsp;&nbsp;&nbsp;&nbsp;&nbsp;&nbsp;&nbsp;&nbsp;&nbsp;&nbsp;&nbsp;&nbsp;&nbsp;4</p><p style=""font-size:14px"">Not at all familiar&nbsp;&nbsp;&nbsp;&nbsp;A little familiar&nbsp;&nbsp;&nbsp;Moderately familiar&nbsp;&nbsp;&nbsp;Extremely familiar</p><p>(press the corresponding number on your keyboard)</p>","","49","","","FAM-RESPONSE","","","","","","","","","","","","","","","","","","","sounds/A/FAM/P004.mp3","partword","","","","","","","","","","","","","","","","","","",""
"html-keyboard-response","246","1327418","0.0-7.0-1.0-0.2","1","1","yyp4kwa3lr7xtef","","null","","","","null","","","","","","","","","","","","","","","","","","","","","","","","","","","","","","","","","","","","","","","","","",""
"audio-keyboard-response","247","1328370","0.0-7.0-1.0-1.2","1","1","yyp4kwa3lr7xtef","","null","","sounds/A/FAM/W004.mp3","","null","","","","","","","","","","","","","","","","","","","","","","","","","","","","","","","","","","","","","","","","","",""
"html-keyboard-response","248","1329538","0.0-7.0-1.0-2.2","1","1","yyp4kwa3lr7xtef","","659.9000000953674","","<p>How familiar did this sound to you?</p><p>1&nbsp;&nbsp;&nbsp;&nbsp;&nbsp;&nbsp;&nbsp;&nbsp;&nbsp;&nbsp;&nbsp;&nbsp;&nbsp;&nbsp;&nbsp;&nbsp;&nbsp;&nbsp;&nbsp;2&nbsp;&nbsp;&nbsp;&nbsp;&nbsp;&nbsp;&nbsp;&nbsp;&nbsp;&nbsp;&nbsp;&nbsp;&nbsp;&nbsp;&nbsp;&nbsp;&nbsp;&nbsp;&nbsp;3&nbsp;&nbsp;&nbsp;&nbsp;&nbsp;&nbsp;&nbsp;&nbsp;&nbsp;&nbsp;&nbsp;&nbsp;&nbsp;&nbsp;&nbsp;&nbsp;&nbsp;&nbsp;&nbsp;4</p><p style=""font-size:14px"">Not at all familiar&nbsp;&nbsp;&nbsp;&nbsp;A little familiar&nbsp;&nbsp;&nbsp;Moderately familiar&nbsp;&nbsp;&nbsp;Extremely familiar</p><p>(press the corresponding number on your keyboard)</p>","","50","","","FAM-RESPONSE","","","","","","","","","","","","","","","","","","","sounds/A/FAM/W004.mp3","word","","","","","","","","","","","","","","","","","","",""
"html-keyboard-response","249","1331553","0.0-7.0-1.0-0.3","1","1","yyp4kwa3lr7xtef","","null","","","","null","","","","","","","","","","","","","","","","","","","","","","","","","","","","","","","","","","","","","","","","","",""
"audio-keyboard-response","250","1332499","0.0-7.0-1.0-1.3","1","1","yyp4kwa3lr7xtef","","null","","sounds/A/FAM/P002.mp3","","null","","","","","","","","","","","","","","","","","","","","","","","","","","","","","","","","","","","","","","","","","",""
"html-keyboard-response","251","1333612","0.0-7.0-1.0-2.3","1","1","yyp4kwa3lr7xtef","","603.5","","<p>How familiar did this sound to you?</p><p>1&nbsp;&nbsp;&nbsp;&nbsp;&nbsp;&nbsp;&nbsp;&nbsp;&nbsp;&nbsp;&nbsp;&nbsp;&nbsp;&nbsp;&nbsp;&nbsp;&nbsp;&nbsp;&nbsp;2&nbsp;&nbsp;&nbsp;&nbsp;&nbsp;&nbsp;&nbsp;&nbsp;&nbsp;&nbsp;&nbsp;&nbsp;&nbsp;&nbsp;&nbsp;&nbsp;&nbsp;&nbsp;&nbsp;3&nbsp;&nbsp;&nbsp;&nbsp;&nbsp;&nbsp;&nbsp;&nbsp;&nbsp;&nbsp;&nbsp;&nbsp;&nbsp;&nbsp;&nbsp;&nbsp;&nbsp;&nbsp;&nbsp;4</p><p style=""font-size:14px"">Not at all familiar&nbsp;&nbsp;&nbsp;&nbsp;A little familiar&nbsp;&nbsp;&nbsp;Moderately familiar&nbsp;&nbsp;&nbsp;Extremely familiar</p><p>(press the corresponding number on your keyboard)</p>","","49","","","FAM-RESPONSE","","","","","","","","","","","","","","","","","","","sounds/A/FAM/P002.mp3","partword","","","","","","","","","","","","","","","","","","",""
"html-keyboard-response","252","1335639","0.0-7.0-1.0-0.4","1","1","yyp4kwa3lr7xtef","","null","","","","null","","","","","","","","","","","","","","","","","","","","","","","","","","","","","","","","","","","","","","","","","",""
"audio-keyboard-response","253","1336580","0.0-7.0-1.0-1.4","1","1","yyp4kwa3lr7xtef","","null","","sounds/A/FAM/N004.mp3","","null","","","","","","","","","","","","","","","","","","","","","","","","","","","","","","","","","","","","","","","","","",""
"html-keyboard-response","254","1337387","0.0-7.0-1.0-2.4","1","1","yyp4kwa3lr7xtef","","299.2000000476837","","<p>How familiar did this sound to you?</p><p>1&nbsp;&nbsp;&nbsp;&nbsp;&nbsp;&nbsp;&nbsp;&nbsp;&nbsp;&nbsp;&nbsp;&nbsp;&nbsp;&nbsp;&nbsp;&nbsp;&nbsp;&nbsp;&nbsp;2&nbsp;&nbsp;&nbsp;&nbsp;&nbsp;&nbsp;&nbsp;&nbsp;&nbsp;&nbsp;&nbsp;&nbsp;&nbsp;&nbsp;&nbsp;&nbsp;&nbsp;&nbsp;&nbsp;3&nbsp;&nbsp;&nbsp;&nbsp;&nbsp;&nbsp;&nbsp;&nbsp;&nbsp;&nbsp;&nbsp;&nbsp;&nbsp;&nbsp;&nbsp;&nbsp;&nbsp;&nbsp;&nbsp;4</p><p style=""font-size:14px"">Not at all familiar&nbsp;&nbsp;&nbsp;&nbsp;A little familiar&nbsp;&nbsp;&nbsp;Moderately familiar&nbsp;&nbsp;&nbsp;Extremely familiar</p><p>(press the corresponding number on your keyboard)</p>","","50","","","FAM-RESPONSE","","","","","","","","","","","","","","","","","","","sounds/A/FAM/N004.mp3","nonword","","","","","","","","","","","","","","","","","","",""
"html-keyboard-response","255","1339414","0.0-7.0-1.0-0.5","1","1","yyp4kwa3lr7xtef","","null","","","","null","","","","","","","","","","","","","","","","","","","","","","","","","","","","","","","","","","","","","","","","","",""
"audio-keyboard-response","256","1340349","0.0-7.0-1.0-1.5","1","1","yyp4kwa3lr7xtef","","null","","sounds/A/FAM/P003.mp3","","null","","","","","","","","","","","","","","","","","","","","","","","","","","","","","","","","","","","","","","","","","",""
"html-keyboard-response","257","1341243","0.0-7.0-1.0-2.5","1","1","yyp4kwa3lr7xtef","","384.7999999523163","","<p>How familiar did this sound to you?</p><p>1&nbsp;&nbsp;&nbsp;&nbsp;&nbsp;&nbsp;&nbsp;&nbsp;&nbsp;&nbsp;&nbsp;&nbsp;&nbsp;&nbsp;&nbsp;&nbsp;&nbsp;&nbsp;&nbsp;2&nbsp;&nbsp;&nbsp;&nbsp;&nbsp;&nbsp;&nbsp;&nbsp;&nbsp;&nbsp;&nbsp;&nbsp;&nbsp;&nbsp;&nbsp;&nbsp;&nbsp;&nbsp;&nbsp;3&nbsp;&nbsp;&nbsp;&nbsp;&nbsp;&nbsp;&nbsp;&nbsp;&nbsp;&nbsp;&nbsp;&nbsp;&nbsp;&nbsp;&nbsp;&nbsp;&nbsp;&nbsp;&nbsp;4</p><p style=""font-size:14px"">Not at all familiar&nbsp;&nbsp;&nbsp;&nbsp;A little familiar&nbsp;&nbsp;&nbsp;Moderately familiar&nbsp;&nbsp;&nbsp;Extremely familiar</p><p>(press the corresponding number on your keyboard)</p>","","51","","","FAM-RESPONSE","","","","","","","","","","","","","","","","","","","sounds/A/FAM/P003.mp3","partword","","","","","","","","","","","","","","","","","","",""
"html-keyboard-response","258","1343261","0.0-7.0-1.0-0.6","1","1","yyp4kwa3lr7xtef","","null","","","","null","","","","","","","","","","","","","","","","","","","","","","","","","","","","","","","","","","","","","","","","","",""
"audio-keyboard-response","259","1344210","0.0-7.0-1.0-1.6","1","1","yyp4kwa3lr7xtef","","null","","sounds/A/FAM/N002.mp3","","null","","","","","","","","","","","","","","","","","","","","","","","","","","","","","","","","","","","","","","","","","",""
"html-keyboard-response","260","1345176","0.0-7.0-1.0-2.6","1","1","yyp4kwa3lr7xtef","","448.09999990463257","","<p>How familiar did this sound to you?</p><p>1&nbsp;&nbsp;&nbsp;&nbsp;&nbsp;&nbsp;&nbsp;&nbsp;&nbsp;&nbsp;&nbsp;&nbsp;&nbsp;&nbsp;&nbsp;&nbsp;&nbsp;&nbsp;&nbsp;2&nbsp;&nbsp;&nbsp;&nbsp;&nbsp;&nbsp;&nbsp;&nbsp;&nbsp;&nbsp;&nbsp;&nbsp;&nbsp;&nbsp;&nbsp;&nbsp;&nbsp;&nbsp;&nbsp;3&nbsp;&nbsp;&nbsp;&nbsp;&nbsp;&nbsp;&nbsp;&nbsp;&nbsp;&nbsp;&nbsp;&nbsp;&nbsp;&nbsp;&nbsp;&nbsp;&nbsp;&nbsp;&nbsp;4</p><p style=""font-size:14px"">Not at all familiar&nbsp;&nbsp;&nbsp;&nbsp;A little familiar&nbsp;&nbsp;&nbsp;Moderately familiar&nbsp;&nbsp;&nbsp;Extremely familiar</p><p>(press the corresponding number on your keyboard)</p>","","51","","","FAM-RESPONSE","","","","","","","","","","","","","","","","","","","sounds/A/FAM/N002.mp3","nonword","","","","","","","","","","","","","","","","","","",""
"html-keyboard-response","261","1347193","0.0-7.0-1.0-0.7","1","1","yyp4kwa3lr7xtef","","null","","","","null","","","","","","","","","","","","","","","","","","","","","","","","","","","","","","","","","","","","","","","","","",""
"audio-keyboard-response","262","1348141","0.0-7.0-1.0-1.7","1","1","yyp4kwa3lr7xtef","","null","","sounds/A/FAM/N003.mp3","","null","","","","","","","","","","","","","","","","","","","","","","","","","","","","","","","","","","","","","","","","","",""
"html-keyboard-response","263","1349002","0.0-7.0-1.0-2.7","1","1","yyp4kwa3lr7xtef","","353.59999990463257","","<p>How familiar did this sound to you?</p><p>1&nbsp;&nbsp;&nbsp;&nbsp;&nbsp;&nbsp;&nbsp;&nbsp;&nbsp;&nbsp;&nbsp;&nbsp;&nbsp;&nbsp;&nbsp;&nbsp;&nbsp;&nbsp;&nbsp;2&nbsp;&nbsp;&nbsp;&nbsp;&nbsp;&nbsp;&nbsp;&nbsp;&nbsp;&nbsp;&nbsp;&nbsp;&nbsp;&nbsp;&nbsp;&nbsp;&nbsp;&nbsp;&nbsp;3&nbsp;&nbsp;&nbsp;&nbsp;&nbsp;&nbsp;&nbsp;&nbsp;&nbsp;&nbsp;&nbsp;&nbsp;&nbsp;&nbsp;&nbsp;&nbsp;&nbsp;&nbsp;&nbsp;4</p><p style=""font-size:14px"">Not at all familiar&nbsp;&nbsp;&nbsp;&nbsp;A little familiar&nbsp;&nbsp;&nbsp;Moderately familiar&nbsp;&nbsp;&nbsp;Extremely familiar</p><p>(press the corresponding number on your keyboard)</p>","","50","","","FAM-RESPONSE","","","","","","","","","","","","","","","","","","","sounds/A/FAM/N003.mp3","nonword","","","","","","","","","","","","","","","","","","",""
"html-keyboard-response","264","1351018","0.0-7.0-1.0-0.8","1","1","yyp4kwa3lr7xtef","","null","","","","null","","","","","","","","","","","","","","","","","","","","","","","","","","","","","","","","","","","","","","","","","",""
"audio-keyboard-response","265","1351950","0.0-7.0-1.0-1.8","1","1","yyp4kwa3lr7xtef","","null","","sounds/A/FAM/P001.mp3","","null","","","","","","","","","","","","","","","","","","","","","","","","","","","","","","","","","","","","","","","","","",""
"html-keyboard-response","266","1352939","0.0-7.0-1.0-2.8","1","1","yyp4kwa3lr7xtef","","481.2999999523163","","<p>How familiar did this sound to you?</p><p>1&nbsp;&nbsp;&nbsp;&nbsp;&nbsp;&nbsp;&nbsp;&nbsp;&nbsp;&nbsp;&nbsp;&nbsp;&nbsp;&nbsp;&nbsp;&nbsp;&nbsp;&nbsp;&nbsp;2&nbsp;&nbsp;&nbsp;&nbsp;&nbsp;&nbsp;&nbsp;&nbsp;&nbsp;&nbsp;&nbsp;&nbsp;&nbsp;&nbsp;&nbsp;&nbsp;&nbsp;&nbsp;&nbsp;3&nbsp;&nbsp;&nbsp;&nbsp;&nbsp;&nbsp;&nbsp;&nbsp;&nbsp;&nbsp;&nbsp;&nbsp;&nbsp;&nbsp;&nbsp;&nbsp;&nbsp;&nbsp;&nbsp;4</p><p style=""font-size:14px"">Not at all familiar&nbsp;&nbsp;&nbsp;&nbsp;A little familiar&nbsp;&nbsp;&nbsp;Moderately familiar&nbsp;&nbsp;&nbsp;Extremely familiar</p><p>(press the corresponding number on your keyboard)</p>","","51","","","FAM-RESPONSE","","","","","","","","","","","","","","","","","","","sounds/A/FAM/P001.mp3","partword","","","","","","","","","","","","","","","","","","",""
"html-keyboard-response","267","1354956","0.0-7.0-1.0-0.9","1","1","yyp4kwa3lr7xtef","","null","","","","null","","","","","","","","","","","","","","","","","","","","","","","","","","","","","","","","","","","","","","","","","",""
"audio-keyboard-response","268","1355900","0.0-7.0-1.0-1.9","1","1","yyp4kwa3lr7xtef","","null","","sounds/A/FAM/W001.mp3","","null","","","","","","","","","","","","","","","","","","","","","","","","","","","","","","","","","","","","","","","","","",""
"html-keyboard-response","269","1356781","0.0-7.0-1.0-2.9","1","1","yyp4kwa3lr7xtef","","374.59999990463257","","<p>How familiar did this sound to you?</p><p>1&nbsp;&nbsp;&nbsp;&nbsp;&nbsp;&nbsp;&nbsp;&nbsp;&nbsp;&nbsp;&nbsp;&nbsp;&nbsp;&nbsp;&nbsp;&nbsp;&nbsp;&nbsp;&nbsp;2&nbsp;&nbsp;&nbsp;&nbsp;&nbsp;&nbsp;&nbsp;&nbsp;&nbsp;&nbsp;&nbsp;&nbsp;&nbsp;&nbsp;&nbsp;&nbsp;&nbsp;&nbsp;&nbsp;3&nbsp;&nbsp;&nbsp;&nbsp;&nbsp;&nbsp;&nbsp;&nbsp;&nbsp;&nbsp;&nbsp;&nbsp;&nbsp;&nbsp;&nbsp;&nbsp;&nbsp;&nbsp;&nbsp;4</p><p style=""font-size:14px"">Not at all familiar&nbsp;&nbsp;&nbsp;&nbsp;A little familiar&nbsp;&nbsp;&nbsp;Moderately familiar&nbsp;&nbsp;&nbsp;Extremely familiar</p><p>(press the corresponding number on your keyboard)</p>","","51","","","FAM-RESPONSE","","","","","","","","","","","","","","","","","","","sounds/A/FAM/W001.mp3","word","","","","","","","","","","","","","","","","","","",""
"html-keyboard-response","270","1358798","0.0-7.0-1.0-0.10","1","1","yyp4kwa3lr7xtef","","null","","","","null","","","","","","","","","","","","","","","","","","","","","","","","","","","","","","","","","","","","","","","","","",""
"audio-keyboard-response","271","1359740","0.0-7.0-1.0-1.10","1","1","yyp4kwa3lr7xtef","","null","","sounds/A/FAM/W002.mp3","","null","","","","","","","","","","","","","","","","","","","","","","","","","","","","","","","","","","","","","","","","","",""
"html-keyboard-response","272","1360537","0.0-7.0-1.0-2.10","1","1","yyp4kwa3lr7xtef","","288.60000014305115","","<p>How familiar did this sound to you?</p><p>1&nbsp;&nbsp;&nbsp;&nbsp;&nbsp;&nbsp;&nbsp;&nbsp;&nbsp;&nbsp;&nbsp;&nbsp;&nbsp;&nbsp;&nbsp;&nbsp;&nbsp;&nbsp;&nbsp;2&nbsp;&nbsp;&nbsp;&nbsp;&nbsp;&nbsp;&nbsp;&nbsp;&nbsp;&nbsp;&nbsp;&nbsp;&nbsp;&nbsp;&nbsp;&nbsp;&nbsp;&nbsp;&nbsp;3&nbsp;&nbsp;&nbsp;&nbsp;&nbsp;&nbsp;&nbsp;&nbsp;&nbsp;&nbsp;&nbsp;&nbsp;&nbsp;&nbsp;&nbsp;&nbsp;&nbsp;&nbsp;&nbsp;4</p><p style=""font-size:14px"">Not at all familiar&nbsp;&nbsp;&nbsp;&nbsp;A little familiar&nbsp;&nbsp;&nbsp;Moderately familiar&nbsp;&nbsp;&nbsp;Extremely familiar</p><p>(press the corresponding number on your keyboard)</p>","","52","","","FAM-RESPONSE","","","","","","","","","","","","","","","","","","","sounds/A/FAM/W002.mp3","word","","","","","","","","","","","","","","","","","","",""
"html-keyboard-response","273","1362557","0.0-7.0-1.0-0.11","1","1","yyp4kwa3lr7xtef","","null","","","","null","","","","","","","","","","","","","","","","","","","","","","","","","","","","","","","","","","","","","","","","","",""
"audio-keyboard-response","274","1363500","0.0-7.0-1.0-1.11","1","1","yyp4kwa3lr7xtef","","null","","sounds/A/FAM/N001.mp3","","null","","","","","","","","","","","","","","","","","","","","","","","","","","","","","","","","","","","","","","","","","",""
"html-keyboard-response","275","1364284","0.0-7.0-1.0-2.11","1","1","yyp4kwa3lr7xtef","","281.60000014305115","","<p>How familiar did this sound to you?</p><p>1&nbsp;&nbsp;&nbsp;&nbsp;&nbsp;&nbsp;&nbsp;&nbsp;&nbsp;&nbsp;&nbsp;&nbsp;&nbsp;&nbsp;&nbsp;&nbsp;&nbsp;&nbsp;&nbsp;2&nbsp;&nbsp;&nbsp;&nbsp;&nbsp;&nbsp;&nbsp;&nbsp;&nbsp;&nbsp;&nbsp;&nbsp;&nbsp;&nbsp;&nbsp;&nbsp;&nbsp;&nbsp;&nbsp;3&nbsp;&nbsp;&nbsp;&nbsp;&nbsp;&nbsp;&nbsp;&nbsp;&nbsp;&nbsp;&nbsp;&nbsp;&nbsp;&nbsp;&nbsp;&nbsp;&nbsp;&nbsp;&nbsp;4</p><p style=""font-size:14px"">Not at all familiar&nbsp;&nbsp;&nbsp;&nbsp;A little familiar&nbsp;&nbsp;&nbsp;Moderately familiar&nbsp;&nbsp;&nbsp;Extremely familiar</p><p>(press the corresponding number on your keyboard)</p>","","52","","","FAM-RESPONSE","","","","","","","","","","","","","","","","","","","sounds/A/FAM/N001.mp3","nonword","","","","","","","","","","","","","","","","","","",""
"html-button-response","276","1384139","0.0-8.0-0.0","1","1","yyp4kwa3lr7xtef","","18851.700000047684","","<p>You will now listen to longer sound sequences.</p><p>Each sound sequence will last about 16 seconds.</p><p>On each trial, you will be given a <u>TARGET SOUND</u>. Your task is to listen very carefully for this sound.</p><p>Every time you hear the <u>TARGET SOUND</u>, you will press the <b>SPACEBAR</b> as quickly and accurately as you can.</p>","0","","","","","","","","","","","","","","","","","","","","","","","","","","","","","","","","","","","","","","","","","","",""
"html-button-response","277","1392075","0.0-8.0-1.0","1","1","yyp4kwa3lr7xtef","","7674.900000095367","","<p>It is very important that you make your responses as quickly and accurately as possible.</p><p>To help you make your responses, you will be able to listen to the <u>TARGET SOUND</u> at the beginning of each trial.</p><p>There will be 36 total trials.</p><p><b>Note: This is meant to be a difficult task. We simply want you to try your best.</p>","0","","","","","","","","","","","","","","","","","","","","","","","","","","","","","","","","","","","","","","","","","","",""
"html-button-response","278","1393197","0.0-8.0-2.0-0.0","1","1","yyp4kwa3lr7xtef","","865.5999999046326","","<p>Trial 1 of 36</p>","0","","","","","","","","","","","","","","","","","","","","","","","","","RU","sounds/syllables/ru_SWS.wav","5400,7200,9900,11700","1","","","","","","","","","","","","","","",""
"html-keyboard-response","279","1394211","0.0-8.0-2.0-1.0","1","1","yyp4kwa3lr7xtef","","1011.5","","","","80","","","","","","","","","","","","","","","","","","","","","","","","RU","","5400,7200,9900,11700","1","","","","","","","","","","","","","","",""
"audio-keyboard-response","280","1394502","0.0-8.0-2.0-2.0-0.0","1","1","yyp4kwa3lr7xtef","","null","","sounds/syllables/ru_SWS.wav","","null","","","","","","","","","","","","","","","","","","","","","","","","","","","","","","","","","","","","","","","","","",""
"html-keyboard-response","281","1395527","0.0-8.0-2.0-2.0-1.0","1","1","yyp4kwa3lr7xtef","","1024.0999999046326","","<p>To replay the <u>TARGET SOUND</u>, press P.</p> When you are ready to begin, press SPACEBAR.","","80","","","","","","","","","","","","","","","","","","","","","","","","","","","","","","","","","","","","","","","","","",""
"audio-keyboard-response","282","1396343","0.0-8.0-2.0-2.1-0.1","1","1","yyp4kwa3lr7xtef","","null","","sounds/syllables/ru_SWS.wav","","null","","","","","","","","","","","","","","","","","","","","","","","","","","","","","","","","","","","","","","","","","",""
"html-keyboard-response","283","1396615","0.0-8.0-2.0-2.1-1.1","1","1","yyp4kwa3lr7xtef","","271.40000009536743","","<p>To replay the <u>TARGET SOUND</u>, press P.</p> When you are ready to begin, press SPACEBAR.","","32","","","","","","","","","","","","","","","","","","","","","","","","","","","","","","","","","","","","","","","","","",""
"audio-keyboard-response","284","1411563","0.0-8.0-2.0-3.0","1","1","yyp4kwa3lr7xtef","","5939","","sounds/A/TD/RU_06_TD.mp3","","32","","","TD_SUMMARY","","","","","","","","","","","","","","","","","","","","","RU","","5400,7200,9900,11700","1","5400","7200","9900","11700","532.2999999523163","514","516.8999998569489","608.7999999523163","5932.299999952316_7714_10416.899999856949_12308.799999952316","2","","","","",""
"html-button-response","285","1412331","0.0-8.0-2.0-0.1","1","1","yyp4kwa3lr7xtef","","764","","<p>Trial 2 of 36</p>","0","","","","","","","","","","","","","","","","","","","","","","","","","RE","sounds/syllables/re_SWS.wav","2700,5400,7200,12600","1","","","","","","","","","","","","","","",""
"html-keyboard-response","286","1412866","0.0-8.0-2.0-1.1","1","1","yyp4kwa3lr7xtef","","533.1000001430511","","","","80","","","","","","","","","","","","","","","","","","","","","","","","RE","","2700,5400,7200,12600","1","","","","","","","","","","","","","","",""
"audio-keyboard-response","287","1413162","0.0-8.0-2.0-2.2-0.2","1","1","yyp4kwa3lr7xtef","","null","","sounds/syllables/re_SWS.wav","","null","","","","","","","","","","","","","","","","","","","","","","","","","","","","","","","","","","","","","","","","","",""
"html-keyboard-response","288","1413575","0.0-8.0-2.0-2.2-1.2","1","1","yyp4kwa3lr7xtef","","411.7999999523163","","<p>To replay the <u>TARGET SOUND</u>, press P.</p> When you are ready to begin, press SPACEBAR.","","32","","","","","","","","","","","","","","","","","","","","","","","","","","","","","","","","","","","","","","","","","",""
"audio-keyboard-response","289","1428523","0.0-8.0-2.0-3.1","1","1","yyp4kwa3lr7xtef","","3320","","sounds/A/TD/RE_07_TD.mp3","","32","","","TD_SUMMARY","","","","","","","","","","","","","","","","","","","","","RE","","2700,5400,7200,12600","1","2700","5400","7200","12600","614","null","null","null","____3314_5092.700000047684_11469.799999952316_14247.299999952316","1","","","","",""
"html-button-response","290","1429520","0.0-8.0-2.0-0.2","1","1","yyp4kwa3lr7xtef","","993.4000000953674","","<p>Trial 3 of 36</p>","0","","","","","","","","","","","","","","","","","","","","","","","","","PU","sounds/syllables/pu_SWS.wav","1200,5700,7500,9300","2","","","","","","","","","","","","","","",""
"html-keyboard-response","291","1430143","0.0-8.0-2.0-1.2","1","1","yyp4kwa3lr7xtef","","620.1999998092651","","","","80","","","","","","","","","","","","","","","","","","","","","","","","PU","","1200,5700,7500,9300","2","","","","","","","","","","","","","","",""
"audio-keyboard-response","292","1430442","0.0-8.0-2.0-2.3-0.3","1","1","yyp4kwa3lr7xtef","","null","","sounds/syllables/pu_SWS.wav","","null","","","","","","","","","","","","","","","","","","","","","","","","","","","","","","","","","","","","","","","","","",""
"html-keyboard-response","293","1430943","0.0-8.0-2.0-2.3-1.3","1","1","yyp4kwa3lr7xtef","","499.69999980926514","","<p>To replay the <u>TARGET SOUND</u>, press P.</p> When you are ready to begin, press SPACEBAR.","","32","","","","","","","","","","","","","","","","","","","","","","","","","","","","","","","","","","","","","","","","","",""
"audio-keyboard-response","294","1445894","0.0-8.0-2.0-3.2","1","1","yyp4kwa3lr7xtef","","1400","","sounds/A/TD/PU_04_TD.mp3","","32","","","TD_SUMMARY","","","","","","","","","","","","","","","","","","","","","PU","","1200,5700,7500,9300","2","1200","5700","7500","9300","null","245.20000004768372","993.5999999046326","617.0999999046326","________1395.7000000476837_5945.200000047684_8493.599999904633_9917.099999904633","1","","","","",""
"html-button-response","295","1446791","0.0-8.0-2.0-0.3","1","1","yyp4kwa3lr7xtef","","893.5","","<p>Trial 4 of 36</p>","0","","","","","","","","","","","","","","","","","","","","","","","","","PU","sounds/syllables/pu_SWS.wav","1200,5700,7500,11100","2","","","","","","","","","","","","","","",""
"html-keyboard-response","296","1447340","0.0-8.0-2.0-1.3","1","1","yyp4kwa3lr7xtef","","546.3000001907349","","","","80","","","","","","","","","","","","","","","","","","","","","","","","PU","","1200,5700,7500,11100","2","","","","","","","","","","","","","","",""
"audio-keyboard-response","297","1447632","0.0-8.0-2.0-2.4-0.4","1","1","yyp4kwa3lr7xtef","","null","","sounds/syllables/pu_SWS.wav","","null","","","","","","","","","","","","","","","","","","","","","","","","","","","","","","","","","","","","","","","","","",""
"html-keyboard-response","298","1447902","0.0-8.0-2.0-2.4-1.4","1","1","yyp4kwa3lr7xtef","","269.10000014305115","","<p>To replay the <u>TARGET SOUND</u>, press P.</p> When you are ready to begin, press SPACEBAR.","","32","","","","","","","","","","","","","","","","","","","","","","","","","","","","","","","","","","","","","","","","","",""
"audio-keyboard-response","299","1462853","0.0-8.0-2.0-3.3","1","1","yyp4kwa3lr7xtef","","1779","","sounds/A/TD/PU_02_TD.mp3","","32","","","TD_SUMMARY","","","","","","","","","","","","","","","","","","","","","PU","","1200,5700,7500,11100","2","1200","5700","7500","11100","574.7999999523163","250.40000009536743","329.7999999523163","362.2999999523163","____________1774.7999999523163_5950.400000095367_7829.799999952316_11462.299999952316","1","","","","",""
"html-button-response","300","1463792","0.0-8.0-2.0-0.4","1","1","yyp4kwa3lr7xtef","","934.9000000953674","","<p>Trial 5 of 36</p>","0","","","","","","","","","","","","","","","","","","","","","","","","","FE","sounds/syllables/fe_SWS.wav","1800,4500,6300,11700","1","","","","","","","","","","","","","","",""
"html-keyboard-response","301","1464164","0.0-8.0-2.0-1.4","1","1","yyp4kwa3lr7xtef","","370.30000019073486","","","","80","","","","","","","","","","","","","","","","","","","","","","","","FE","","1800,4500,6300,11700","1","","","","","","","","","","","","","","",""
"audio-keyboard-response","302","1464472","0.0-8.0-2.0-2.5-0.5","1","1","yyp4kwa3lr7xtef","","null","","sounds/syllables/fe_SWS.wav","","null","","","","","","","","","","","","","","","","","","","","","","","","","","","","","","","","","","","","","","","","","",""
"html-keyboard-response","303","1464845","0.0-8.0-2.0-2.5-1.5","1","1","yyp4kwa3lr7xtef","","371.7999999523163","","<p>To replay the <u>TARGET SOUND</u>, press P.</p> When you are ready to begin, press SPACEBAR.","","32","","","","","","","","","","","","","","","","","","","","","","","","","","","","","","","","","","","","","","","","","",""
"audio-keyboard-response","304","1479793","0.0-8.0-2.0-3.4","1","1","yyp4kwa3lr7xtef","","2331","","sounds/A/TD/FE_08_TD.mp3","","32","","","TD_SUMMARY","","","","","","","","","","","","","","","","","","","","","FE","","1800,4500,6300,11700","1","1800","4500","6300","11700","524.0999999046326","233","null","null","________________2324.0999999046326_4733","1","","","","",""
"html-button-response","305","1480583","0.0-8.0-2.0-0.5","1","1","yyp4kwa3lr7xtef","","787.3000001907349","","<p>Trial 6 of 36</p>","0","","","","","","","","","","","","","","","","","","","","","","","","","ME","sounds/syllables/me_SWS.wav","2400,5100,10500,12300","3","","","","","","","","","","","","","","",""
"html-keyboard-response","306","1481002","0.0-8.0-2.0-1.5","1","1","yyp4kwa3lr7xtef","","414.59999990463257","","","","80","","","","","","","","","","","","","","","","","","","","","","","","ME","","2400,5100,10500,12300","3","","","","","","","","","","","","","","",""
"audio-keyboard-response","307","1481313","0.0-8.0-2.0-2.6-0.6","1","1","yyp4kwa3lr7xtef","","null","","sounds/syllables/me_SWS.wav","","null","","","","","","","","","","","","","","","","","","","","","","","","","","","","","","","","","","","","","","","","","",""
"html-keyboard-response","308","1481763","0.0-8.0-2.0-2.6-1.6","1","1","yyp4kwa3lr7xtef","","448.90000009536743","","<p>To replay the <u>TARGET SOUND</u>, press P.</p> When you are ready to begin, press SPACEBAR.","","32","","","","","","","","","","","","","","","","","","","","","","","","","","","","","","","","","","","","","","","","","",""
"audio-keyboard-response","309","1496712","0.0-8.0-2.0-3.5","1","1","yyp4kwa3lr7xtef","","2461","","sounds/A/TD/ME_06_TD.mp3","","32","","","TD_SUMMARY","","","","","","","","","","","","","","","","","","","","","ME","","2400,5100,10500,12300","3","2400","5100","10500","12300","null","null","569.8999998569489","758.2999999523163","__________________2460.399999856949_5141.199999809265_7846.799999952316_11069.899999856949_13058.299999952316","1","","","","",""
"html-button-response","310","1497652","0.0-8.0-2.0-0.6","1","1","yyp4kwa3lr7xtef","","935.7000000476837","","<p>Trial 7 of 36</p>","0","","","","","","","","","","","","","","","","","","","","","","","","","SU","sounds/syllables/su_SWS.wav","2400,5100,6900,8700","3","","","","","","","","","","","","","","",""
"html-keyboard-response","311","1498066","0.0-8.0-2.0-1.6","1","1","yyp4kwa3lr7xtef","","412.10000014305115","","","","80","","","","","","","","","","","","","","","","","","","","","","","","SU","","2400,5100,6900,8700","3","","","","","","","","","","","","","","",""
"audio-keyboard-response","312","1498363","0.0-8.0-2.0-2.7-0.7","1","1","yyp4kwa3lr7xtef","","null","","sounds/syllables/su_SWS.wav","","null","","","","","","","","","","","","","","","","","","","","","","","","","","","","","","","","","","","","","","","","","",""
"html-keyboard-response","313","1498767","0.0-8.0-2.0-2.7-1.7","1","1","yyp4kwa3lr7xtef","","402.90000009536743","","<p>To replay the <u>TARGET SOUND</u>, press P.</p> When you are ready to begin, press SPACEBAR.","","32","","","","","","","","","","","","","","","","","","","","","","","","","","","","","","","","","","","","","","","","","",""
