"trial_type","trial_index","time_elapsed","internal_node_id","counterbalance","lang_instruct","ParticipantID","view_history","rt","url","stimulus","button_pressed","key_press","correctRESP","correct","designation","location","correctanswer","responses","sentence","keywords","typed_resp","keyword1_acc","keyword2_acc","keyword3_acc","keyword4_acc","keyword5_acc","total_acc","prop_acc"
"pavlovia","0","4","0.0-0.0","1","1","58h1hxnqtqcmguz","","","","","","","","","","","","","","","","","","","","","",""
"instructions","1","105700","0.0-1.0","1","1","58h1hxnqtqcmguz","[{""page_index"":0,""viewing_time"":8845.09999999404},{""page_index"":1,""viewing_time"":96845.90000000596}]","105696.19999998808","","","","","","","","","","","","","","","","","","","",""
"external-html","2","110809","0.0-2.0","1","1","58h1hxnqtqcmguz","","4636.899999976158","consent/consent.html","","","","","","","","","","","","","","","","","","",""
"html-button-response","3","113249","0.0-3.0-0.0-0.0","1","1","58h1hxnqtqcmguz","","2436.4000000059605","","<p>Welcome to the study. You will first complete a short volume calibration and headphone check.</p><p>Please make sure you are in a quiet listening environment, that you are wearing headphones, and that your computer's volume is turned on.<p></p>","0","","","","","","","","","","","","","","","","",""
"html-button-response","4","126501","0.0-3.0-0.0-1.0","1","1","58h1hxnqtqcmguz","","12996.800000011921","","<p>The volume calibration will be first.</p><p>You will hear a thirty-second noise. Please adjust your computer's volume so that this noise is being presented at a comfortable level.<p></p>","0","","","","","","","","","","","","","","","","",""
"audio-button-response","5","131781","0.0-3.0-0.0-2.0","1","1","58h1hxnqtqcmguz","","4965","","audCalib/volumetest.mp3","0","","","","","","","","","","","","","","","","",""
"html-button-response","6","144913","0.0-3.0-1.0-0.0","1","1","58h1hxnqtqcmguz","","13130.300000011921","","<p>You will now complete a short headphone check.</p><p>On each trial, you will hear three tones. One of these tones will be quieter than the others. Your task is to identify whether the quiet tone occured first, second, or third.</p><p>There are six trials in total.<p></p>","0","","","","","","","","","","","","","","","","",""
"html-keyboard-response","7","145671","0.0-3.0-1.0-1.0-0.0","1","1","58h1hxnqtqcmguz","","null","","<div style=""font-size:60px;"">+</div>","","null","","","","","","","","","","","","","","","",""
"audio-button-response","8","151674","0.0-3.0-1.0-1.0-1.0","1","1","58h1hxnqtqcmguz","","6000","","audCalib/t3_1.mp3","0","","2","0","headphone-test","","","","","","","","","","","","",""
"html-keyboard-response","9","152431","0.0-3.0-1.0-1.0-0.1","1","1","58h1hxnqtqcmguz","","null","","<div style=""font-size:60px;"">+</div>","","null","","","","","","","","","","","","","","","",""
"audio-button-response","10","157906","0.0-3.0-1.0-1.0-1.1","1","1","58h1hxnqtqcmguz","","5472","","audCalib/t1_2.mp3","1","","0","0","headphone-test","","","","","","","","","","","","",""
"html-keyboard-response","11","158660","0.0-3.0-1.0-1.0-0.2","1","1","58h1hxnqtqcmguz","","null","","<div style=""font-size:60px;"">+</div>","","null","","","","","","","","","","","","","","","",""
"audio-button-response","12","163216","0.0-3.0-1.0-1.0-1.2","1","1","58h1hxnqtqcmguz","","4555","","audCalib/t1_1.mp3","2","","0","0","headphone-test","","","","","","","","","","","","",""
"html-keyboard-response","13","163972","0.0-3.0-1.0-1.0-0.3","1","1","58h1hxnqtqcmguz","","null","","<div style=""font-size:60px;"">+</div>","","null","","","","","","","","","","","","","","","",""
"audio-button-response","14","169641","0.0-3.0-1.0-1.0-1.3","1","1","58h1hxnqtqcmguz","","5664","","audCalib/t2_2.mp3","0","","1","0","headphone-test","","","","","","","","","","","","",""
"html-keyboard-response","15","170399","0.0-3.0-1.0-1.0-0.4","1","1","58h1hxnqtqcmguz","","null","","<div style=""font-size:60px;"">+</div>","","null","","","","","","","","","","","","","","","",""
"audio-button-response","16","175211","0.0-3.0-1.0-1.0-1.4","1","1","58h1hxnqtqcmguz","","4811","","audCalib/t2_1.mp3","1","","1","1","headphone-test","","","","","","","","","","","","",""
"html-keyboard-response","17","175967","0.0-3.0-1.0-1.0-0.5","1","1","58h1hxnqtqcmguz","","null","","<div style=""font-size:60px;"">+</div>","","null","","","","","","","","","","","","","","","",""
"audio-button-response","18","180575","0.0-3.0-1.0-1.0-1.5","1","1","58h1hxnqtqcmguz","","4608","","audCalib/t3_2.mp3","2","","2","1","headphone-test","","","","","","","","","","","","",""
"html-button-response","19","185033","0.0-3.0-2.0","1","1","58h1hxnqtqcmguz","","4200.799999982119","","<p>The volume calibration and headphone check are now complete.</p>","0","","","","","","","","","","","","","","","","",""
"instructions","20","218824","0.0-4.0-0.0","1","1","58h1hxnqtqcmguz","[{""page_index"":0,""viewing_time"":9549.40000000596},{""page_index"":1,""viewing_time"":22597.90000000596},{""page_index"":2,""viewing_time"":1641.5999999940395}]","33789.70000001788","","","","","","","","","","","","","","","","","","","",""
"audio-keyboard-response","21","219180","0.0-4.0-1.0-0.0","1","1","58h1hxnqtqcmguz","","null","","sounds/induction/left/ko_SWS.wav","","null","","","","","","","","","","","","","","","",""
"html-button-response","22","221949","0.0-4.0-1.0-1.0","1","1","58h1hxnqtqcmguz","","2765.9000000059605","","What sound did you hear?","1","","","1","INDUCTION-JUDGMENT","left","1","","","","","","","","","","",""
"html-keyboard-response","23","222952","0.0-4.0-1.0-2.0","1","1","58h1hxnqtqcmguz","","null","","<p style=""color:green;""><b>Correct!</b></p>","","null","","","","","","","","","","","","","","","",""
"audio-keyboard-response","24","223757","0.0-4.0-1.0-0.1","1","1","58h1hxnqtqcmguz","","null","","sounds/induction/right/ni_SWS.wav","","null","","","","","","","","","","","","","","","",""
"html-button-response","25","226496","0.0-4.0-1.0-1.1","1","1","58h1hxnqtqcmguz","","2736","","What sound did you hear?","1","","","0","INDUCTION-JUDGMENT","right","0","","","","","","","","","","",""
"html-keyboard-response","26","227499","0.0-4.0-1.0-2.1","1","1","58h1hxnqtqcmguz","","null","","<p style=""color:red;""><b>Incorrect!</b></p>","","null","","","","","","","","","","","","","","","",""
"audio-keyboard-response","27","228306","0.0-4.0-1.0-0.2","1","1","58h1hxnqtqcmguz","","null","","sounds/induction/left/su_SWS.wav","","null","","","","","","","","","","","","","","","",""
"html-button-response","28","230107","0.0-4.0-1.0-1.2","1","1","58h1hxnqtqcmguz","","1799.699999988079","","What sound did you hear?","0","","","1","INDUCTION-JUDGMENT","left","0","","","","","","","","","","",""
"html-keyboard-response","29","231111","0.0-4.0-1.0-2.2","1","1","58h1hxnqtqcmguz","","null","","<p style=""color:green;""><b>Correct!</b></p>","","null","","","","","","","","","","","","","","","",""
"audio-keyboard-response","30","231912","0.0-4.0-1.0-0.3","1","1","58h1hxnqtqcmguz","","null","","sounds/induction/right/su_SWS.wav","","null","","","","","","","","","","","","","","","",""
"html-button-response","31","233243","0.0-4.0-1.0-1.3","1","1","58h1hxnqtqcmguz","","1330","","What sound did you hear?","1","","","1","INDUCTION-JUDGMENT","right","1","","","","","","","","","","",""
"html-keyboard-response","32","234244","0.0-4.0-1.0-2.3","1","1","58h1hxnqtqcmguz","","null","","<p style=""color:green;""><b>Correct!</b></p>","","null","","","","","","","","","","","","","","","",""
"audio-keyboard-response","33","235048","0.0-4.0-1.0-0.4","1","1","58h1hxnqtqcmguz","","null","","sounds/induction/left/su_SWS.wav","","null","","","","","","","","","","","","","","","",""
"html-button-response","34","235860","0.0-4.0-1.0-1.4","1","1","58h1hxnqtqcmguz","","811.1999999880791","","What sound did you hear?","0","","","1","INDUCTION-JUDGMENT","left","0","","","","","","","","","","",""
"html-keyboard-response","35","236862","0.0-4.0-1.0-2.4","1","1","58h1hxnqtqcmguz","","null","","<p style=""color:green;""><b>Correct!</b></p>","","null","","","","","","","","","","","","","","","",""
"audio-keyboard-response","36","237667","0.0-4.0-1.0-0.5","1","1","58h1hxnqtqcmguz","","null","","sounds/induction/left/ti_SWS.wav","","null","","","","","","","","","","","","","","","",""
"html-button-response","37","239446","0.0-4.0-1.0-1.5","1","1","58h1hxnqtqcmguz","","1778.199999988079","","What sound did you hear?","0","","","1","INDUCTION-JUDGMENT","left","0","","","","","","","","","","",""
"html-keyboard-response","38","240449","0.0-4.0-1.0-2.5","1","1","58h1hxnqtqcmguz","","null","","<p style=""color:green;""><b>Correct!</b></p>","","null","","","","","","","","","","","","","","","",""
"audio-keyboard-response","39","241251","0.0-4.0-1.0-0.6","1","1","58h1hxnqtqcmguz","","null","","sounds/induction/left/me_SWS.wav","","null","","","","","","","","","","","","","","","",""
"html-button-response","40","243207","0.0-4.0-1.0-1.6","1","1","58h1hxnqtqcmguz","","1955","","What sound did you hear?","1","","","1","INDUCTION-JUDGMENT","left","1","","","","","","","","","","",""
"html-keyboard-response","41","244209","0.0-4.0-1.0-2.6","1","1","58h1hxnqtqcmguz","","null","","<p style=""color:green;""><b>Correct!</b></p>","","null","","","","","","","","","","","","","","","",""
"audio-keyboard-response","42","245011","0.0-4.0-1.0-0.7","1","1","58h1hxnqtqcmguz","","null","","sounds/induction/left/ko_SWS.wav","","null","","","","","","","","","","","","","","","",""
"html-button-response","43","246251","0.0-4.0-1.0-1.7","1","1","58h1hxnqtqcmguz","","1239.4000000059605","","What sound did you hear?","1","","","1","INDUCTION-JUDGMENT","left","1","","","","","","","","","","",""
"html-keyboard-response","44","247253","0.0-4.0-1.0-2.7","1","1","58h1hxnqtqcmguz","","null","","<p style=""color:green;""><b>Correct!</b></p>","","null","","","","","","","","","","","","","","","",""
"audio-keyboard-response","45","248056","0.0-4.0-1.0-0.8","1","1","58h1hxnqtqcmguz","","null","","sounds/induction/left/pu_SWS.wav","","null","","","","","","","","","","","","","","","",""
"html-button-response","46","249416","0.0-4.0-1.0-1.8","1","1","58h1hxnqtqcmguz","","1358.9000000059605","","What sound did you hear?","0","","","1","INDUCTION-JUDGMENT","left","0","","","","","","","","","","",""
"html-keyboard-response","47","250419","0.0-4.0-1.0-2.8","1","1","58h1hxnqtqcmguz","","null","","<p style=""color:green;""><b>Correct!</b></p>","","null","","","","","","","","","","","","","","","",""
"audio-keyboard-response","48","251224","0.0-4.0-1.0-0.9","1","1","58h1hxnqtqcmguz","","null","","sounds/induction/right/pu_SWS.wav","","null","","","","","","","","","","","","","","","",""
"html-button-response","49","252165","0.0-4.0-1.0-1.9","1","1","58h1hxnqtqcmguz","","939.3999999761581","","What sound did you hear?","1","","","1","INDUCTION-JUDGMENT","right","1","","","","","","","","","","",""
"html-keyboard-response","50","253170","0.0-4.0-1.0-2.9","1","1","58h1hxnqtqcmguz","","null","","<p style=""color:green;""><b>Correct!</b></p>","","null","","","","","","","","","","","","","","","",""
"audio-keyboard-response","51","253976","0.0-4.0-1.0-0.10","1","1","58h1hxnqtqcmguz","","null","","sounds/induction/left/ni_SWS.wav","","null","","","","","","","","","","","","","","","",""
"html-button-response","52","255589","0.0-4.0-1.0-1.10","1","1","58h1hxnqtqcmguz","","1612","","What sound did you hear?","0","","","0","INDUCTION-JUDGMENT","left","1","","","","","","","","","","",""
"html-keyboard-response","53","256591","0.0-4.0-1.0-2.10","1","1","58h1hxnqtqcmguz","","null","","<p style=""color:red;""><b>Incorrect!</b></p>","","null","","","","","","","","","","","","","","","",""
"audio-keyboard-response","54","257395","0.0-4.0-1.0-0.11","1","1","58h1hxnqtqcmguz","","null","","sounds/induction/right/ti_SWS.wav","","null","","","","","","","","","","","","","","","",""
"html-button-response","55","259022","0.0-4.0-1.0-1.11","1","1","58h1hxnqtqcmguz","","1625.7000000178814","","What sound did you hear?","1","","","1","INDUCTION-JUDGMENT","right","1","","","","","","","","","","",""
"html-keyboard-response","56","260028","0.0-4.0-1.0-2.11","1","1","58h1hxnqtqcmguz","","null","","<p style=""color:green;""><b>Correct!</b></p>","","null","","","","","","","","","","","","","","","",""
"audio-keyboard-response","57","260835","0.0-4.0-1.0-0.12","1","1","58h1hxnqtqcmguz","","null","","sounds/induction/left/ru_SWS.wav","","null","","","","","","","","","","","","","","","",""
"html-button-response","58","261870","0.0-4.0-1.0-1.12","1","1","58h1hxnqtqcmguz","","1033.9000000059605","","What sound did you hear?","1","","","0","INDUCTION-JUDGMENT","left","0","","","","","","","","","","",""
"html-keyboard-response","59","262871","0.0-4.0-1.0-2.12","1","1","58h1hxnqtqcmguz","","null","","<p style=""color:red;""><b>Incorrect!</b></p>","","null","","","","","","","","","","","","","","","",""
"audio-keyboard-response","60","263672","0.0-4.0-1.0-0.13","1","1","58h1hxnqtqcmguz","","null","","sounds/induction/right/ge_SWS.wav","","null","","","","","","","","","","","","","","","",""
"html-button-response","61","266003","0.0-4.0-1.0-1.13","1","1","58h1hxnqtqcmguz","","2329.5","","What sound did you hear?","0","","","1","INDUCTION-JUDGMENT","right","0","","","","","","","","","","",""
"html-keyboard-response","62","267009","0.0-4.0-1.0-2.13","1","1","58h1hxnqtqcmguz","","null","","<p style=""color:green;""><b>Correct!</b></p>","","null","","","","","","","","","","","","","","","",""
"audio-keyboard-response","63","267811","0.0-4.0-1.0-0.14","1","1","58h1hxnqtqcmguz","","null","","sounds/induction/right/re_SWS.wav","","null","","","","","","","","","","","","","","","",""
"html-button-response","64","268425","0.0-4.0-1.0-1.14","1","1","58h1hxnqtqcmguz","","613.1999999880791","","What sound did you hear?","0","","","0","INDUCTION-JUDGMENT","right","1","","","","","","","","","","",""
"html-keyboard-response","65","269431","0.0-4.0-1.0-2.14","1","1","58h1hxnqtqcmguz","","null","","<p style=""color:red;""><b>Incorrect!</b></p>","","null","","","","","","","","","","","","","","","",""
"audio-keyboard-response","66","270232","0.0-4.0-1.0-0.15","1","1","58h1hxnqtqcmguz","","null","","sounds/induction/right/su_SWS.wav","","null","","","","","","","","","","","","","","","",""
"html-button-response","67","271602","0.0-4.0-1.0-1.15","1","1","58h1hxnqtqcmguz","","1369.4000000059605","","What sound did you hear?","0","","","0","INDUCTION-JUDGMENT","right","1","","","","","","","","","","",""
"html-keyboard-response","68","272605","0.0-4.0-1.0-2.15","1","1","58h1hxnqtqcmguz","","null","","<p style=""color:red;""><b>Incorrect!</b></p>","","null","","","","","","","","","","","","","","","",""
"audio-keyboard-response","69","273411","0.0-4.0-1.0-0.16","1","1","58h1hxnqtqcmguz","","null","","sounds/induction/left/fu_SWS.wav","","null","","","","","","","","","","","","","","","",""
"html-button-response","70","274438","0.0-4.0-1.0-1.16","1","1","58h1hxnqtqcmguz","","1022.5999999940395","","What sound did you hear?","1","","","1","INDUCTION-JUDGMENT","left","1","","","","","","","","","","",""
"html-keyboard-response","71","275439","0.0-4.0-1.0-2.16","1","1","58h1hxnqtqcmguz","","null","","<p style=""color:green;""><b>Correct!</b></p>","","null","","","","","","","","","","","","","","","",""
"audio-keyboard-response","72","276243","0.0-4.0-1.0-0.17","1","1","58h1hxnqtqcmguz","","null","","sounds/induction/right/me_SWS.wav","","null","","","","","","","","","","","","","","","",""
"html-button-response","73","277459","0.0-4.0-1.0-1.17","1","1","58h1hxnqtqcmguz","","1214.699999988079","","What sound did you hear?","0","","","1","INDUCTION-JUDGMENT","right","0","","","","","","","","","","",""
"html-keyboard-response","74","278461","0.0-4.0-1.0-2.17","1","1","58h1hxnqtqcmguz","","null","","<p style=""color:green;""><b>Correct!</b></p>","","null","","","","","","","","","","","","","","","",""
"audio-keyboard-response","75","279266","0.0-4.0-1.0-0.18","1","1","58h1hxnqtqcmguz","","null","","sounds/induction/right/fu_SWS.wav","","null","","","","","","","","","","","","","","","",""
"html-button-response","76","280199","0.0-4.0-1.0-1.18","1","1","58h1hxnqtqcmguz","","931.1000000238419","","What sound did you hear?","0","","","1","INDUCTION-JUDGMENT","right","0","","","","","","","","","","",""
"html-keyboard-response","77","281200","0.0-4.0-1.0-2.18","1","1","58h1hxnqtqcmguz","","null","","<p style=""color:green;""><b>Correct!</b></p>","","null","","","","","","","","","","","","","","","",""
"audio-keyboard-response","78","282007","0.0-4.0-1.0-0.19","1","1","58h1hxnqtqcmguz","","null","","sounds/induction/left/ta_SWS.wav","","null","","","","","","","","","","","","","","","",""
"html-button-response","79","284267","0.0-4.0-1.0-1.19","1","1","58h1hxnqtqcmguz","","2258.399999976158","","What sound did you hear?","1","","","0","INDUCTION-JUDGMENT","left","0","","","","","","","","","","",""
"html-keyboard-response","80","285271","0.0-4.0-1.0-2.19","1","1","58h1hxnqtqcmguz","","null","","<p style=""color:red;""><b>Incorrect!</b></p>","","null","","","","","","","","","","","","","","","",""
"audio-keyboard-response","81","286077","0.0-4.0-1.0-0.20","1","1","58h1hxnqtqcmguz","","null","","sounds/induction/left/fe_SWS.wav","","null","","","","","","","","","","","","","","","",""
"html-button-response","82","288001","0.0-4.0-1.0-1.20","1","1","58h1hxnqtqcmguz","","1922.2999999821186","","What sound did you hear?","1","","","1","INDUCTION-JUDGMENT","left","1","","","","","","","","","","",""
"html-keyboard-response","83","289004","0.0-4.0-1.0-2.20","1","1","58h1hxnqtqcmguz","","null","","<p style=""color:green;""><b>Correct!</b></p>","","null","","","","","","","","","","","","","","","",""
"audio-keyboard-response","84","289805","0.0-4.0-1.0-0.21","1","1","58h1hxnqtqcmguz","","null","","sounds/induction/right/ta_SWS.wav","","null","","","","","","","","","","","","","","","",""
"html-button-response","85","290915","0.0-4.0-1.0-1.21","1","1","58h1hxnqtqcmguz","","1108.800000011921","","What sound did you hear?","0","","","0","INDUCTION-JUDGMENT","right","1","","","","","","","","","","",""
"html-keyboard-response","86","291916","0.0-4.0-1.0-2.21","1","1","58h1hxnqtqcmguz","","null","","<p style=""color:red;""><b>Incorrect!</b></p>","","null","","","","","","","","","","","","","","","",""
"audio-keyboard-response","87","292717","0.0-4.0-1.0-0.22","1","1","58h1hxnqtqcmguz","","null","","sounds/induction/right/me_SWS.wav","","null","","","","","","","","","","","","","","","",""
"html-button-response","88","293981","0.0-4.0-1.0-1.22","1","1","58h1hxnqtqcmguz","","1263.800000011921","","What sound did you hear?","0","","","1","INDUCTION-JUDGMENT","right","0","","","","","","","","","","",""
"html-keyboard-response","89","294983","0.0-4.0-1.0-2.22","1","1","58h1hxnqtqcmguz","","null","","<p style=""color:green;""><b>Correct!</b></p>","","null","","","","","","","","","","","","","","","",""
"audio-keyboard-response","90","295783","0.0-4.0-1.0-0.23","1","1","58h1hxnqtqcmguz","","null","","sounds/induction/right/re_SWS.wav","","null","","","","","","","","","","","","","","","",""
"html-button-response","91","297567","0.0-4.0-1.0-1.23","1","1","58h1hxnqtqcmguz","","1782.6000000238419","","What sound did you hear?","1","","","1","INDUCTION-JUDGMENT","right","1","","","","","","","","","","",""
"html-keyboard-response","92","298572","0.0-4.0-1.0-2.23","1","1","58h1hxnqtqcmguz","","null","","<p style=""color:green;""><b>Correct!</b></p>","","null","","","","","","","","","","","","","","","",""
"audio-keyboard-response","93","299378","0.0-4.0-1.0-0.24","1","1","58h1hxnqtqcmguz","","null","","sounds/induction/right/fu_SWS.wav","","null","","","","","","","","","","","","","","","",""
"html-button-response","94","300213","0.0-4.0-1.0-1.24","1","1","58h1hxnqtqcmguz","","834.5999999940395","","What sound did you hear?","0","","","1","INDUCTION-JUDGMENT","right","0","","","","","","","","","","",""
"html-keyboard-response","95","301215","0.0-4.0-1.0-2.24","1","1","58h1hxnqtqcmguz","","null","","<p style=""color:green;""><b>Correct!</b></p>","","null","","","","","","","","","","","","","","","",""
"audio-keyboard-response","96","302018","0.0-4.0-1.0-0.25","1","1","58h1hxnqtqcmguz","","null","","sounds/induction/left/fe_SWS.wav","","null","","","","","","","","","","","","","","","",""
"html-button-response","97","303582","0.0-4.0-1.0-1.25","1","1","58h1hxnqtqcmguz","","1562.7000000178814","","What sound did you hear?","1","","","1","INDUCTION-JUDGMENT","left","1","","","","","","","","","","",""
"html-keyboard-response","98","304583","0.0-4.0-1.0-2.25","1","1","58h1hxnqtqcmguz","","null","","<p style=""color:green;""><b>Correct!</b></p>","","null","","","","","","","","","","","","","","","",""
"audio-keyboard-response","99","305388","0.0-4.0-1.0-0.26","1","1","58h1hxnqtqcmguz","","null","","sounds/induction/right/ru_SWS.wav","","null","","","","","","","","","","","","","","","",""
"html-button-response","100","306876","0.0-4.0-1.0-1.26","1","1","58h1hxnqtqcmguz","","1487.199999988079","","What sound did you hear?","1","","","1","INDUCTION-JUDGMENT","right","1","","","","","","","","","","",""
"html-keyboard-response","101","307880","0.0-4.0-1.0-2.26","1","1","58h1hxnqtqcmguz","","null","","<p style=""color:green;""><b>Correct!</b></p>","","null","","","","","","","","","","","","","","","",""
"audio-keyboard-response","102","308690","0.0-4.0-1.0-0.27","1","1","58h1hxnqtqcmguz","","null","","sounds/induction/left/ni_SWS.wav","","null","","","","","","","","","","","","","","","",""
"html-button-response","103","310171","0.0-4.0-1.0-1.27","1","1","58h1hxnqtqcmguz","","1480.800000011921","","What sound did you hear?","1","","","1","INDUCTION-JUDGMENT","left","1","","","","","","","","","","",""
"html-keyboard-response","104","311175","0.0-4.0-1.0-2.27","1","1","58h1hxnqtqcmguz","","null","","<p style=""color:green;""><b>Correct!</b></p>","","null","","","","","","","","","","","","","","","",""
"audio-keyboard-response","105","311980","0.0-4.0-1.0-0.28","1","1","58h1hxnqtqcmguz","","null","","sounds/induction/left/ge_SWS.wav","","null","","","","","","","","","","","","","","","",""
"html-button-response","106","313580","0.0-4.0-1.0-1.28","1","1","58h1hxnqtqcmguz","","1598.1000000238419","","What sound did you hear?","1","","","1","INDUCTION-JUDGMENT","left","1","","","","","","","","","","",""
"html-keyboard-response","107","314582","0.0-4.0-1.0-2.28","1","1","58h1hxnqtqcmguz","","null","","<p style=""color:green;""><b>Correct!</b></p>","","null","","","","","","","","","","","","","","","",""
"audio-keyboard-response","108","315388","0.0-4.0-1.0-0.29","1","1","58h1hxnqtqcmguz","","null","","sounds/induction/right/fe_SWS.wav","","null","","","","","","","","","","","","","","","",""
"html-button-response","109","316981","0.0-4.0-1.0-1.29","1","1","58h1hxnqtqcmguz","","1591.5","","What sound did you hear?","0","","","1","INDUCTION-JUDGMENT","right","0","","","","","","","","","","",""
"html-keyboard-response","110","317983","0.0-4.0-1.0-2.29","1","1","58h1hxnqtqcmguz","","null","","<p style=""color:green;""><b>Correct!</b></p>","","null","","","","","","","","","","","","","","","",""
"audio-keyboard-response","111","318791","0.0-4.0-1.0-0.30","1","1","58h1hxnqtqcmguz","","null","","sounds/induction/right/fe_SWS.wav","","null","","","","","","","","","","","","","","","",""
"html-button-response","112","319796","0.0-4.0-1.0-1.30","1","1","58h1hxnqtqcmguz","","1004","","What sound did you hear?","0","","","1","INDUCTION-JUDGMENT","right","0","","","","","","","","","","",""
"html-keyboard-response","113","320799","0.0-4.0-1.0-2.30","1","1","58h1hxnqtqcmguz","","null","","<p style=""color:green;""><b>Correct!</b></p>","","null","","","","","","","","","","","","","","","",""
"audio-keyboard-response","114","321607","0.0-4.0-1.0-0.31","1","1","58h1hxnqtqcmguz","","null","","sounds/induction/right/ge_SWS.wav","","null","","","","","","","","","","","","","","","",""
"html-button-response","115","323994","0.0-4.0-1.0-1.31","1","1","58h1hxnqtqcmguz","","2386.300000011921","","What sound did you hear?","0","","","1","INDUCTION-JUDGMENT","right","0","","","","","","","","","","",""
"html-keyboard-response","116","324996","0.0-4.0-1.0-2.31","1","1","58h1hxnqtqcmguz","","null","","<p style=""color:green;""><b>Correct!</b></p>","","null","","","","","","","","","","","","","","","",""
"audio-keyboard-response","117","325804","0.0-4.0-1.0-0.32","1","1","58h1hxnqtqcmguz","","null","","sounds/induction/left/ru_SWS.wav","","null","","","","","","","","","","","","","","","",""
"html-button-response","118","328021","0.0-4.0-1.0-1.32","1","1","58h1hxnqtqcmguz","","2216.4000000059605","","What sound did you hear?","0","","","1","INDUCTION-JUDGMENT","left","0","","","","","","","","","","",""
"html-keyboard-response","119","329023","0.0-4.0-1.0-2.32","1","1","58h1hxnqtqcmguz","","null","","<p style=""color:green;""><b>Correct!</b></p>","","null","","","","","","","","","","","","","","","",""
"audio-keyboard-response","120","329830","0.0-4.0-1.0-0.33","1","1","58h1hxnqtqcmguz","","null","","sounds/induction/right/ti_SWS.wav","","null","","","","","","","","","","","","","","","",""
"html-button-response","121","331232","0.0-4.0-1.0-1.33","1","1","58h1hxnqtqcmguz","","1400.699999988079","","What sound did you hear?","1","","","1","INDUCTION-JUDGMENT","right","1","","","","","","","","","","",""
"html-keyboard-response","122","332236","0.0-4.0-1.0-2.33","1","1","58h1hxnqtqcmguz","","null","","<p style=""color:green;""><b>Correct!</b></p>","","null","","","","","","","","","","","","","","","",""
"audio-keyboard-response","123","333041","0.0-4.0-1.0-0.34","1","1","58h1hxnqtqcmguz","","null","","sounds/induction/left/me_SWS.wav","","null","","","","","","","","","","","","","","","",""
"html-button-response","124","335710","0.0-4.0-1.0-1.34","1","1","58h1hxnqtqcmguz","","2666.899999976158","","What sound did you hear?","0","","","0","INDUCTION-JUDGMENT","left","1","","","","","","","","","","",""
"html-keyboard-response","125","336711","0.0-4.0-1.0-2.34","1","1","58h1hxnqtqcmguz","","null","","<p style=""color:red;""><b>Incorrect!</b></p>","","null","","","","","","","","","","","","","","","",""
"audio-keyboard-response","126","337516","0.0-4.0-1.0-0.35","1","1","58h1hxnqtqcmguz","","null","","sounds/induction/right/ni_SWS.wav","","null","","","","","","","","","","","","","","","",""
"html-button-response","127","338947","0.0-4.0-1.0-1.35","1","1","58h1hxnqtqcmguz","","1430.0999999940395","","What sound did you hear?","0","","","1","INDUCTION-JUDGMENT","right","0","","","","","","","","","","",""
"html-keyboard-response","128","339953","0.0-4.0-1.0-2.35","1","1","58h1hxnqtqcmguz","","null","","<p style=""color:green;""><b>Correct!</b></p>","","null","","","","","","","","","","","","","","","",""
"audio-keyboard-response","129","340758","0.0-4.0-1.0-0.36","1","1","58h1hxnqtqcmguz","","null","","sounds/induction/left/ge_SWS.wav","","null","","","","","","","","","","","","","","","",""
"html-button-response","130","342348","0.0-4.0-1.0-1.36","1","1","58h1hxnqtqcmguz","","1587.4000000059605","","What sound did you hear?","1","","","1","INDUCTION-JUDGMENT","left","1","","","","","","","","","","",""
"html-keyboard-response","131","343349","0.0-4.0-1.0-2.36","1","1","58h1hxnqtqcmguz","","null","","<p style=""color:green;""><b>Correct!</b></p>","","null","","","","","","","","","","","","","","","",""
"audio-keyboard-response","132","344155","0.0-4.0-1.0-0.37","1","1","58h1hxnqtqcmguz","","null","","sounds/induction/right/ta_SWS.wav","","null","","","","","","","","","","","","","","","",""
"html-button-response","133","345348","0.0-4.0-1.0-1.37","1","1","58h1hxnqtqcmguz","","1190.7999999821186","","What sound did you hear?","1","","","1","INDUCTION-JUDGMENT","right","1","","","","","","","","","","",""
"html-keyboard-response","134","346354","0.0-4.0-1.0-2.37","1","1","58h1hxnqtqcmguz","","null","","<p style=""color:green;""><b>Correct!</b></p>","","null","","","","","","","","","","","","","","","",""
"audio-keyboard-response","135","347163","0.0-4.0-1.0-0.38","1","1","58h1hxnqtqcmguz","","null","","sounds/induction/right/ru_SWS.wav","","null","","","","","","","","","","","","","","","",""
"html-button-response","136","348563","0.0-4.0-1.0-1.38","1","1","58h1hxnqtqcmguz","","1398.5","","What sound did you hear?","1","","","1","INDUCTION-JUDGMENT","right","1","","","","","","","","","","",""
"html-keyboard-response","137","349565","0.0-4.0-1.0-2.38","1","1","58h1hxnqtqcmguz","","null","","<p style=""color:green;""><b>Correct!</b></p>","","null","","","","","","","","","","","","","","","",""
"audio-keyboard-response","138","350369","0.0-4.0-1.0-0.39","1","1","58h1hxnqtqcmguz","","null","","sounds/induction/left/pu_SWS.wav","","null","","","","","","","","","","","","","","","",""
"html-button-response","139","351475","0.0-4.0-1.0-1.39","1","1","58h1hxnqtqcmguz","","1104.699999988079","","What sound did you hear?","0","","","1","INDUCTION-JUDGMENT","left","0","","","","","","","","","","",""
"html-keyboard-response","140","352481","0.0-4.0-1.0-2.39","1","1","58h1hxnqtqcmguz","","null","","<p style=""color:green;""><b>Correct!</b></p>","","null","","","","","","","","","","","","","","","",""
"audio-keyboard-response","141","353286","0.0-4.0-1.0-0.40","1","1","58h1hxnqtqcmguz","","null","","sounds/induction/right/ko_SWS.wav","","null","","","","","","","","","","","","","","","",""
"html-button-response","142","355145","0.0-4.0-1.0-1.40","1","1","58h1hxnqtqcmguz","","1857.4000000059605","","What sound did you hear?","0","","","1","INDUCTION-JUDGMENT","right","0","","","","","","","","","","",""
"html-keyboard-response","143","356151","0.0-4.0-1.0-2.40","1","1","58h1hxnqtqcmguz","","null","","<p style=""color:green;""><b>Correct!</b></p>","","null","","","","","","","","","","","","","","","",""
"audio-keyboard-response","144","356955","0.0-4.0-1.0-0.41","1","1","58h1hxnqtqcmguz","","null","","sounds/induction/left/ta_SWS.wav","","null","","","","","","","","","","","","","","","",""
"html-button-response","145","358154","0.0-4.0-1.0-1.41","1","1","58h1hxnqtqcmguz","","1197.5999999940395","","What sound did you hear?","0","","","1","INDUCTION-JUDGMENT","left","0","","","","","","","","","","",""
"html-keyboard-response","146","359159","0.0-4.0-1.0-2.41","1","1","58h1hxnqtqcmguz","","null","","<p style=""color:green;""><b>Correct!</b></p>","","null","","","","","","","","","","","","","","","",""
"audio-keyboard-response","147","359963","0.0-4.0-1.0-0.42","1","1","58h1hxnqtqcmguz","","null","","sounds/induction/left/fu_SWS.wav","","null","","","","","","","","","","","","","","","",""
"html-button-response","148","360969","0.0-4.0-1.0-1.42","1","1","58h1hxnqtqcmguz","","1004.6999999880791","","What sound did you hear?","1","","","1","INDUCTION-JUDGMENT","left","1","","","","","","","","","","",""
"html-keyboard-response","149","361970","0.0-4.0-1.0-2.42","1","1","58h1hxnqtqcmguz","","null","","<p style=""color:green;""><b>Correct!</b></p>","","null","","","","","","","","","","","","","","","",""
"audio-keyboard-response","150","362774","0.0-4.0-1.0-0.43","1","1","58h1hxnqtqcmguz","","null","","sounds/induction/left/re_SWS.wav","","null","","","","","","","","","","","","","","","",""
"html-button-response","151","363735","0.0-4.0-1.0-1.43","1","1","58h1hxnqtqcmguz","","960.4000000059605","","What sound did you hear?","1","","","0","INDUCTION-JUDGMENT","left","0","","","","","","","","","","",""
"html-keyboard-response","152","364737","0.0-4.0-1.0-2.43","1","1","58h1hxnqtqcmguz","","null","","<p style=""color:red;""><b>Incorrect!</b></p>","","null","","","","","","","","","","","","","","","",""
"audio-keyboard-response","153","365541","0.0-4.0-1.0-0.44","1","1","58h1hxnqtqcmguz","","null","","sounds/induction/left/re_SWS.wav","","null","","","","","","","","","","","","","","","",""
"html-button-response","154","366721","0.0-4.0-1.0-1.44","1","1","58h1hxnqtqcmguz","","1179.2000000178814","","What sound did you hear?","0","","","1","INDUCTION-JUDGMENT","left","0","","","","","","","","","","",""
"html-keyboard-response","155","367724","0.0-4.0-1.0-2.44","1","1","58h1hxnqtqcmguz","","null","","<p style=""color:green;""><b>Correct!</b></p>","","null","","","","","","","","","","","","","","","",""
"audio-keyboard-response","156","368528","0.0-4.0-1.0-0.45","1","1","58h1hxnqtqcmguz","","null","","sounds/induction/left/ti_SWS.wav","","null","","","","","","","","","","","","","","","",""
"html-button-response","157","369543","0.0-4.0-1.0-1.45","1","1","58h1hxnqtqcmguz","","1013.7000000178814","","What sound did you hear?","0","","","1","INDUCTION-JUDGMENT","left","0","","","","","","","","","","",""
"html-keyboard-response","158","370546","0.0-4.0-1.0-2.45","1","1","58h1hxnqtqcmguz","","null","","<p style=""color:green;""><b>Correct!</b></p>","","null","","","","","","","","","","","","","","","",""
"audio-keyboard-response","159","371349","0.0-4.0-1.0-0.46","1","1","58h1hxnqtqcmguz","","null","","sounds/induction/right/pu_SWS.wav","","null","","","","","","","","","","","","","","","",""
"html-button-response","160","372765","0.0-4.0-1.0-1.46","1","1","58h1hxnqtqcmguz","","1414.5999999940395","","What sound did you hear?","1","","","1","INDUCTION-JUDGMENT","right","1","","","","","","","","","","",""
"html-keyboard-response","161","373766","0.0-4.0-1.0-2.46","1","1","58h1hxnqtqcmguz","","null","","<p style=""color:green;""><b>Correct!</b></p>","","null","","","","","","","","","","","","","","","",""
"audio-keyboard-response","162","374571","0.0-4.0-1.0-0.47","1","1","58h1hxnqtqcmguz","","null","","sounds/induction/right/ko_SWS.wav","","null","","","","","","","","","","","","","","","",""
"html-button-response","163","375694","0.0-4.0-1.0-1.47","1","1","58h1hxnqtqcmguz","","1122.4000000059605","","What sound did you hear?","0","","","1","INDUCTION-JUDGMENT","right","0","","","","","","","","","","",""
"html-keyboard-response","164","376700","0.0-4.0-1.0-2.47","1","1","58h1hxnqtqcmguz","","null","","<p style=""color:green;""><b>Correct!</b></p>","","null","","","","","","","","","","","","","","","",""
"html-button-response","165","398130","0.0-5.0-0.0","1","1","58h1hxnqtqcmguz","","20923.5","","<p>Thank you for your answers.</p><p>You will now listen to similar sounds. The main difference is that the sounds will be longer and will make up complete sentences.</p><p>Please listen carefully to each sentence. After each sentence, you will be asked to type back what you heard to the best of your ability. After you provide your response, you will be given feedback about the correct answer.</p><p>There are 10 sentences in total.","0","","","","","","","","","","","","","","","","",""
"audio-keyboard-response","166","400949","0.0-5.0-1.0-0.0","1","1","58h1hxnqtqcmguz","","null","","sounds/sentences/left/14_02_cfSWS.wav","","null","","","","","","","","","","","","","","","",""
"sentence-resp","167","419662","0.0-5.0-1.0-1.0","1","1","58h1hxnqtqcmguz","","18711","","","","","","","SWS-SENT-RESPONSE","","","{""Q0"":""the fee is very ""}","He said the same phrase thirty times.","said,same,phrase,thirty,times","THE FEE IS VERY ","0","0","0","0","0","0","0"
"html-keyboard-response","168","420919","0.0-5.0-1.0-2.0","1","1","58h1hxnqtqcmguz","","null","","","","null","","","","","","","","","","","","","","","",""
"audio-keyboard-response","169","423236","0.0-5.0-1.0-3.0","1","1","58h1hxnqtqcmguz","","null","","sounds/sentences/left/14_02_cfSWS.wav","","null","","","","","","","","","","","","","","","",""
"html-keyboard-response","170","424241","0.0-5.0-1.0-4.0","1","1","58h1hxnqtqcmguz","","null","","","","null","","","","","","","","","","","","","","","",""
"html-button-response","171","428019","0.0-5.0-1.0-5.0","1","1","58h1hxnqtqcmguz","","3276","","<p>Press the button below when you are ready to continue.</p>","0","","","","","","","","","","","","","","","","",""
"audio-keyboard-response","172","430745","0.0-5.0-1.0-0.1","1","1","58h1hxnqtqcmguz","","null","","sounds/sentences/right/14_09_cfSWS.wav","","null","","","","","","","","","","","","","","","",""
"sentence-resp","173","451015","0.0-5.0-1.0-1.1","1","1","58h1hxnqtqcmguz","","20268","","","","","","","SWS-SENT-RESPONSE","","","{""Q0"":""she said it seven times""}","We frown when events take a bad turn.","frown,events,take,bad,turn","SHE SAID IT SEVEN TIMES","0","0","0","0","0","0","0"
"html-keyboard-response","174","452273","0.0-5.0-1.0-2.1","1","1","58h1hxnqtqcmguz","","null","","","","null","","","","","","","","","","","","","","","",""
"audio-keyboard-response","175","454500","0.0-5.0-1.0-3.1","1","1","58h1hxnqtqcmguz","","null","","sounds/sentences/right/14_09_cfSWS.wav","","null","","","","","","","","","","","","","","","",""
"html-keyboard-response","176","455506","0.0-5.0-1.0-4.1","1","1","58h1hxnqtqcmguz","","null","","","","null","","","","","","","","","","","","","","","",""
"html-button-response","177","458160","0.0-5.0-1.0-5.1","1","1","58h1hxnqtqcmguz","","2150.0999999940395","","<p>Press the button below when you are ready to continue.</p>","0","","","","","","","","","","","","","","","","",""
"audio-keyboard-response","178","461177","0.0-5.0-1.0-0.2","1","1","58h1hxnqtqcmguz","","null","","sounds/sentences/right/14_10_cfSWS.wav","","null","","","","","","","","","","","","","","","",""
"sentence-resp","179","478541","0.0-5.0-1.0-1.2","1","1","58h1hxnqtqcmguz","","17360","","","","","","","SWS-SENT-RESPONSE","","","{""Q0"":""the destroy event is foumous""}","Port is a strong wine with a smoky taste.","port,strong,wine,smoky,taste","THE DESTROY EVENT IS FOUMOUS","0","0","0","0","0","0","0"
"html-keyboard-response","180","479799","0.0-5.0-1.0-2.2","1","1","58h1hxnqtqcmguz","","null","","","","null","","","","","","","","","","","","","","","",""
"audio-keyboard-response","181","482318","0.0-5.0-1.0-3.2","1","1","58h1hxnqtqcmguz","","null","","sounds/sentences/right/14_10_cfSWS.wav","","null","","","","","","","","","","","","","","","",""
"html-keyboard-response","182","483320","0.0-5.0-1.0-4.2","1","1","58h1hxnqtqcmguz","","null","","","","null","","","","","","","","","","","","","","","",""
"html-button-response","183","484888","0.0-5.0-1.0-5.2","1","1","58h1hxnqtqcmguz","","1065.9000000059605","","<p>Press the button below when you are ready to continue.</p>","0","","","","","","","","","","","","","","","","",""
"audio-keyboard-response","184","487475","0.0-5.0-1.0-0.3","1","1","58h1hxnqtqcmguz","","null","","sounds/sentences/left/14_03_cfSWS.wav","","null","","","","","","","","","","","","","","","",""
"sentence-resp","185","517499","0.0-5.0-1.0-1.3","1","1","58h1hxnqtqcmguz","","30023","","","","","","","SWS-SENT-RESPONSE","","","{""Q0"":""in a short run the economics""}","Pluck the bright rose without leaves.","pluck,bright,rose,without,leaves","IN A SHORT RUN THE ECONOMICS","0","0","0","0","0","0","0"
"html-keyboard-response","186","518756","0.0-5.0-1.0-2.3","1","1","58h1hxnqtqcmguz","","null","","","","null","","","","","","","","","","","","","","","",""
"audio-keyboard-response","187","520884","0.0-5.0-1.0-3.3","1","1","58h1hxnqtqcmguz","","null","","sounds/sentences/left/14_03_cfSWS.wav","","null","","","","","","","","","","","","","","","",""
"html-keyboard-response","188","521886","0.0-5.0-1.0-4.3","1","1","58h1hxnqtqcmguz","","null","","","","null","","","","","","","","","","","","","","","",""
"html-button-response","189","523234","0.0-5.0-1.0-5.3","1","1","58h1hxnqtqcmguz","","843","","<p>Press the button below when you are ready to continue.</p>","0","","","","","","","","","","","","","","","","",""
"audio-keyboard-response","190","525785","0.0-5.0-1.0-0.4","1","1","58h1hxnqtqcmguz","","null","","sounds/sentences/left/14_04_cfSWS.wav","","null","","","","","","","","","","","","","","","",""
"sentence-resp","191","532926","0.0-5.0-1.0-1.4","1","1","58h1hxnqtqcmguz","","7139","","","","","","","SWS-SENT-RESPONSE","","","{""Q0"":""she saids go to the zoo""}","Two plus seven is less than ten.","two,plus,seven,less,ten","SHE SAIDS GO TO THE ZOO","0","0","0","0","0","0","0"
"html-keyboard-response","192","534181","0.0-5.0-1.0-2.4","1","1","58h1hxnqtqcmguz","","null","","","","null","","","","","","","","","","","","","","","",""
"audio-keyboard-response","193","536233","0.0-5.0-1.0-3.4","1","1","58h1hxnqtqcmguz","","null","","sounds/sentences/left/14_04_cfSWS.wav","","null","","","","","","","","","","","","","","","",""
"html-keyboard-response","194","537235","0.0-5.0-1.0-4.4","1","1","58h1hxnqtqcmguz","","null","","","","null","","","","","","","","","","","","","","","",""
"html-button-response","195","538389","0.0-5.0-1.0-5.4","1","1","58h1hxnqtqcmguz","","652.0999999940395","","<p>Press the button below when you are ready to continue.</p>","0","","","","","","","","","","","","","","","","",""
"audio-keyboard-response","196","541277","0.0-5.0-1.0-0.5","1","1","58h1hxnqtqcmguz","","null","","sounds/sentences/right/14_07_cfSWS.wav","","null","","","","","","","","","","","","","","","",""
"sentence-resp","197","545528","0.0-5.0-1.0-1.5","1","1","58h1hxnqtqcmguz","","4249","","","","","","","SWS-SENT-RESPONSE","","","{""Q0"":""""}","Write a fond note to the friend you cherish.","write,fond,note,friend,cherish","","0","0","0","0","0","0","0"
"html-keyboard-response","198","546785","0.0-5.0-1.0-2.5","1","1","58h1hxnqtqcmguz","","null","","","","null","","","","","","","","","","","","","","","",""
"audio-keyboard-response","199","549171","0.0-5.0-1.0-3.5","1","1","58h1hxnqtqcmguz","","null","","sounds/sentences/right/14_07_cfSWS.wav","","null","","","","","","","","","","","","","","","",""
"html-keyboard-response","200","550173","0.0-5.0-1.0-4.5","1","1","58h1hxnqtqcmguz","","null","","","","null","","","","","","","","","","","","","","","",""
"html-button-response","201","551771","0.0-5.0-1.0-5.5","1","1","58h1hxnqtqcmguz","","1096","","<p>Press the button below when you are ready to continue.</p>","0","","","","","","","","","","","","","","","","",""
"audio-keyboard-response","202","554760","0.0-5.0-1.0-0.6","1","1","58h1hxnqtqcmguz","","null","","sounds/sentences/left/14_05_cfSWS.wav","","null","","","","","","","","","","","","","","","",""
"sentence-resp","203","562078","0.0-5.0-1.0-1.6","1","1","58h1hxnqtqcmguz","","7316","","","","","","","SWS-SENT-RESPONSE","","","{""Q0"":""familiai""}","The glow deepened in the eyes of the sweet girl.","glow,deepened,eyes,sweet,girl","FAMILIAI","0","0","0","0","0","0","0"
"html-keyboard-response","204","563334","0.0-5.0-1.0-2.6","1","1","58h1hxnqtqcmguz","","null","","","","null","","","","","","","","","","","","","","","",""
"audio-keyboard-response","205","565821","0.0-5.0-1.0-3.6","1","1","58h1hxnqtqcmguz","","null","","sounds/sentences/left/14_05_cfSWS.wav","","null","","","","","","","","","","","","","","","",""
"html-keyboard-response","206","566822","0.0-5.0-1.0-4.6","1","1","58h1hxnqtqcmguz","","null","","","","null","","","","","","","","","","","","","","","",""
"html-button-response","207","568644","0.0-5.0-1.0-5.6","1","1","58h1hxnqtqcmguz","","1319.3999999761581","","<p>Press the button below when you are ready to continue.</p>","0","","","","","","","","","","","","","","","","",""
"audio-keyboard-response","208","571767","0.0-5.0-1.0-0.7","1","1","58h1hxnqtqcmguz","","null","","sounds/sentences/left/14_01_cfSWS.wav","","null","","","","","","","","","","","","","","","",""
"sentence-resp","209","573292","0.0-5.0-1.0-1.7","1","1","58h1hxnqtqcmguz","","1522","","","","","","","SWS-SENT-RESPONSE","","","{""Q0"":""""}","A cramp is no small danger on a swim.","cramp,no,small,danger,swim","","0","0","0","0","0","0","0"
"html-keyboard-response","210","574545","0.0-5.0-1.0-2.7","1","1","58h1hxnqtqcmguz","","null","","","","null","","","","","","","","","","","","","","","",""
"audio-keyboard-response","211","577165","0.0-5.0-1.0-3.7","1","1","58h1hxnqtqcmguz","","null","","sounds/sentences/left/14_01_cfSWS.wav","","null","","","","","","","","","","","","","","","",""
"html-keyboard-response","212","578167","0.0-5.0-1.0-4.7","1","1","58h1hxnqtqcmguz","","null","","","","null","","","","","","","","","","","","","","","",""
"html-button-response","213","581153","0.0-5.0-1.0-5.7","1","1","58h1hxnqtqcmguz","","2481.7999999821186","","<p>Press the button below when you are ready to continue.</p>","0","","","","","","","","","","","","","","","","",""
"audio-keyboard-response","214","583911","0.0-5.0-1.0-0.8","1","1","58h1hxnqtqcmguz","","null","","sounds/sentences/right/14_08_cfSWS.wav","","null","","","","","","","","","","","","","","","",""
"sentence-resp","215","596837","0.0-5.0-1.0-1.8","1","1","58h1hxnqtqcmguz","","12924","","","","","","","SWS-SENT-RESPONSE","","","{""Q0"":""take the coffee with you please""}","Clothes and lodging are free to new men.","clothes,lodging,free,new,men","TAKE THE COFFEE WITH YOU PLEASE","0","0","0","0","0","0","0"
"html-keyboard-response","216","598092","0.0-5.0-1.0-2.8","1","1","58h1hxnqtqcmguz","","null","","","","null","","","","","","","","","","","","","","","",""
"audio-keyboard-response","217","600348","0.0-5.0-1.0-3.8","1","1","58h1hxnqtqcmguz","","null","","sounds/sentences/right/14_08_cfSWS.wav","","null","","","","","","","","","","","","","","","",""
"html-keyboard-response","218","601351","0.0-5.0-1.0-4.8","1","1","58h1hxnqtqcmguz","","null","","","","null","","","","","","","","","","","","","","","",""
"html-button-response","219","603421","0.0-5.0-1.0-5.8","1","1","58h1hxnqtqcmguz","","1568.2999999821186","","<p>Press the button below when you are ready to continue.</p>","0","","","","","","","","","","","","","","","","",""
"audio-keyboard-response","220","606166","0.0-5.0-1.0-0.9","1","1","58h1hxnqtqcmguz","","null","","sounds/sentences/right/14_06_cfSWS.wav","","null","","","","","","","","","","","","","","","",""
"sentence-resp","221","607342","0.0-5.0-1.0-1.9","1","1","58h1hxnqtqcmguz","","1173","","","","","","","SWS-SENT-RESPONSE","","","{""Q0"":""""}","Bring your problems to the wise chief.","bring,your,problems,wise,chief","","0","0","0","0","0","0","0"
"html-keyboard-response","222","608598","0.0-5.0-1.0-2.9","1","1","58h1hxnqtqcmguz","","null","","","","null","","","","","","","","","","","","","","","",""
"audio-keyboard-response","223","610844","0.0-5.0-1.0-3.9","1","1","58h1hxnqtqcmguz","","null","","sounds/sentences/right/14_06_cfSWS.wav","","null","","","","","","","","","","","","","","","",""
"html-keyboard-response","224","611846","0.0-5.0-1.0-4.9","1","1","58h1hxnqtqcmguz","","null","","","","null","","","","","","","","","","","","","","","",""
"html-button-response","225","613686","0.0-5.0-1.0-5.9","1","1","58h1hxnqtqcmguz","","1336.4000000059605","","<p>Press the button below when you are ready to continue.</p>","0","","","","","","","","","","","","","","","","",""
"html-keyboard-response","226","630983","0.0-6.0-0.0","1","1","58h1hxnqtqcmguz","","16793.5","","<p>In this part of the study, you will hear sounds similar to those you just heard.</p><p>Please focus on these sounds, as you may be asked questions about them later.</p><p>Occasionally, the sounds will pause for up to two seconds. When this happens, please press SPACEBAR as quickly as you can.</br>This helps ensure that you are paying attention to the sounds.</p><p>This part of the study will take about 12 minutes to complete, and you will be given the opportunity to take a couple of short breaks every few minutes.</p><p><strong>Press SPACEBAR to begin</strong></p>","","32","","","","","","","","","","","","","","","",""
"html-keyboard-response","227","631985","0.0-6.0-1.0-0.0","1","1","58h1hxnqtqcmguz","","null","","<p style=""font-size: 40px;"">+</p>","","null","","","","","","","","","","","","","","","",""
