"trial_type","trial_index","time_elapsed","internal_node_id","counterbalance","lang_instruct","ParticipantID","view_history","rt","url","stimulus","button_pressed","key_press","correctRESP","correct","designation","location","correctanswer","timeouts","pause_rt01","pause_rt02","train_file","numKeyPress","sound","fam_type","SYLLABLE","EXEMPLAR","TD_LOCS","TD_TYPE","TDLOC_01","TDLOC_02","TDLOC_03","TDLOC_04","TD_RT_01","TD_RT_02","TD_RT_03","TD_RT_04","TD_SUBJ_RTs","number_of_plays","responses","slider_start","response","question_order","syllable","syllable_type"
"pavlovia","0","8","0.0-0.0","2","0","ua9662navqolqxx","","","","","","","","","","","","","","","","","","","","","","","","","","","","","","","","","","","","","",""
"instructions","1","173448","0.0-1.0","2","0","ua9662navqolqxx","[{""page_index"":0,""viewing_time"":12120.09999999404},{""page_index"":1,""viewing_time"":161311.80000001192}]","173435.79999999702","","","","","","","","","","","","","","","","","","","","","","","","","","","","","","","","","","","",""
"external-html","2","248257","0.0-2.0","2","0","ua9662navqolqxx","","74642.89999999106","consent/consent.html","","","","","","","","","","","","","","","","","","","","","","","","","","","","","","","","","","",""
"html-button-response","3","258853","0.0-3.0-0.0-0.0","2","0","ua9662navqolqxx","","10593.70000000298","","<p>Welcome to the study. You will first complete a short volume calibration and headphone check.</p><p>Please make sure you are in a quiet listening environment, that you are wearing headphones, and that your computer's volume is turned on.<p></p>","0","","","","","","","","","","","","","","","","","","","","","","","","","","","","","","","","",""
"html-button-response","4","270629","0.0-3.0-0.0-1.0","2","0","ua9662navqolqxx","","11514.39999999106","","<p>The volume calibration will be first.</p><p>You will hear a thirty-second noise. Please adjust your computer's volume so that this noise is being presented at a comfortable level.<p></p>","0","","","","","","","","","","","","","","","","","","","","","","","","","","","","","","","","",""
"audio-button-response","5","286048","0.0-3.0-0.0-2.0","2","0","ua9662navqolqxx","","11141","","audCalib/volumetest.mp3","0","","","","","","","","","","","","","","","","","","","","","","","","","","","","","","","","",""
"html-button-response","6","299392","0.0-3.0-1.0-0.0","2","0","ua9662navqolqxx","","13343.20000000298","","<p>You will now complete a short headphone check.</p><p>On each trial, you will hear three tones. One of these tones will be quieter than the others. Your task is to identify whether the quiet tone occured first, second, or third.</p><p>There are six trials in total.<p></p>","0","","","","","","","","","","","","","","","","","","","","","","","","","","","","","","","","",""
"html-keyboard-response","7","300156","0.0-3.0-1.0-1.0-0.0","2","0","ua9662navqolqxx","","null","","<div style=""font-size:60px;"">+</div>","","null","","","","","","","","","","","","","","","","","","","","","","","","","","","","","","","",""
"audio-button-response","8","307395","0.0-3.0-1.0-1.0-1.0","2","0","ua9662navqolqxx","","7229","","audCalib/t3_1.mp3","2","","2","1","headphone-test","","","","","","","","","","","","","","","","","","","","","","","","","","","","",""
"html-keyboard-response","9","308164","0.0-3.0-1.0-1.0-0.1","2","0","ua9662navqolqxx","","null","","<div style=""font-size:60px;"">+</div>","","null","","","","","","","","","","","","","","","","","","","","","","","","","","","","","","","",""
"audio-button-response","10","314350","0.0-3.0-1.0-1.0-1.1","2","0","ua9662navqolqxx","","6179","","audCalib/t1_2.mp3","1","","0","0","headphone-test","","","","","","","","","","","","","","","","","","","","","","","","","","","","",""
"html-keyboard-response","11","315128","0.0-3.0-1.0-1.0-0.2","2","0","ua9662navqolqxx","","null","","<div style=""font-size:60px;"">+</div>","","null","","","","","","","","","","","","","","","","","","","","","","","","","","","","","","","",""
"audio-button-response","12","320216","0.0-3.0-1.0-1.0-1.2","2","0","ua9662navqolqxx","","5088","","audCalib/t2_1.mp3","1","","1","1","headphone-test","","","","","","","","","","","","","","","","","","","","","","","","","","","","",""
"html-keyboard-response","13","320987","0.0-3.0-1.0-1.0-0.3","2","0","ua9662navqolqxx","","null","","<div style=""font-size:60px;"">+</div>","","null","","","","","","","","","","","","","","","","","","","","","","","","","","","","","","","",""
"audio-button-response","14","326106","0.0-3.0-1.0-1.0-1.3","2","0","ua9662navqolqxx","","5120","","audCalib/t2_2.mp3","1","","1","1","headphone-test","","","","","","","","","","","","","","","","","","","","","","","","","","","","",""
"html-keyboard-response","15","326877","0.0-3.0-1.0-1.0-0.4","2","0","ua9662navqolqxx","","null","","<div style=""font-size:60px;"">+</div>","","null","","","","","","","","","","","","","","","","","","","","","","","","","","","","","","","",""
"audio-button-response","16","330901","0.0-3.0-1.0-1.0-1.4","2","0","ua9662navqolqxx","","4019","","audCalib/t1_1.mp3","0","","0","1","headphone-test","","","","","","","","","","","","","","","","","","","","","","","","","","","","",""
"html-keyboard-response","17","331675","0.0-3.0-1.0-1.0-0.5","2","0","ua9662navqolqxx","","null","","<div style=""font-size:60px;"">+</div>","","null","","","","","","","","","","","","","","","","","","","","","","","","","","","","","","","",""
"audio-button-response","18","336282","0.0-3.0-1.0-1.0-1.5","2","0","ua9662navqolqxx","","4600","","audCalib/t3_2.mp3","2","","2","1","headphone-test","","","","","","","","","","","","","","","","","","","","","","","","","","","","",""
"html-button-response","19","339897","0.0-3.0-2.0","2","0","ua9662navqolqxx","","3361.7000000029802","","<p>The volume calibration and headphone check are now complete.</p>","0","","","","","","","","","","","","","","","","","","","","","","","","","","","","","","","","",""
"instructions","20","372853","0.0-4.0-0.0","2","0","ua9662navqolqxx","[{""page_index"":0,""viewing_time"":3962.5999999940395},{""page_index"":1,""viewing_time"":21920.40000000596},{""page_index"":2,""viewing_time"":7071.899999991059}]","32955.19999998808","","","","","","","","","","","","","","","","","","","","","","","","","","","","","","","","","","","",""
"audio-keyboard-response","21","373193","0.0-4.0-1.0-0.0","2","0","ua9662navqolqxx","","null","","sounds/induction/right_rev/me_SWS.wav","","null","","","","","","","","","","","","","","","","","","","","","","","","","","","","","","","",""
"html-button-response","22","374853","0.0-4.0-1.0-1.0","2","0","ua9662navqolqxx","","1658.7000000029802","","Was the sound coming from the left or the right?","0","","","0","INDUCTION-JUDGMENT","right","1","","","","","","","","","","","","","","","","","","","","","","","","","","",""
"html-keyboard-response","23","375867","0.0-4.0-1.0-2.0","2","0","ua9662navqolqxx","","null","","<p style=""color:#690000;""><b>Incorrect!</b></p>","","null","","","","","","","","","","","","","","","","","","","","","","","","","","","","","","","",""
"audio-keyboard-response","24","376673","0.0-4.0-1.0-0.1","2","0","ua9662navqolqxx","","null","","sounds/induction/left_rev/ni_SWS.wav","","null","","","","","","","","","","","","","","","","","","","","","","","","","","","","","","","",""
"html-button-response","25","380061","0.0-4.0-1.0-1.1","2","0","ua9662navqolqxx","","3386.0999999940395","","Was the sound coming from the left or the right?","1","","","0","INDUCTION-JUDGMENT","left","0","","","","","","","","","","","","","","","","","","","","","","","","","","",""
"html-keyboard-response","26","381084","0.0-4.0-1.0-2.1","2","0","ua9662navqolqxx","","null","","<p style=""color:#690000;""><b>Incorrect!</b></p>","","null","","","","","","","","","","","","","","","","","","","","","","","","","","","","","","","",""
"audio-keyboard-response","27","381883","0.0-4.0-1.0-0.2","2","0","ua9662navqolqxx","","null","","sounds/induction/left_rev/me_SWS.wav","","null","","","","","","","","","","","","","","","","","","","","","","","","","","","","","","","",""
"html-button-response","28","387641","0.0-4.0-1.0-1.2","2","0","ua9662navqolqxx","","5756.5","","Was the sound coming from the left or the right?","1","","","0","INDUCTION-JUDGMENT","left","0","","","","","","","","","","","","","","","","","","","","","","","","","","",""
"html-keyboard-response","29","388650","0.0-4.0-1.0-2.2","2","0","ua9662navqolqxx","","null","","<p style=""color:#690000;""><b>Incorrect!</b></p>","","null","","","","","","","","","","","","","","","","","","","","","","","","","","","","","","","",""
"audio-keyboard-response","30","389473","0.0-4.0-1.0-0.3","2","0","ua9662navqolqxx","","null","","sounds/induction/right_rev/re_SWS.wav","","null","","","","","","","","","","","","","","","","","","","","","","","","","","","","","","","",""
"html-button-response","31","390624","0.0-4.0-1.0-1.3","2","0","ua9662navqolqxx","","1149.7000000029802","","Was the sound coming from the left or the right?","1","","","1","INDUCTION-JUDGMENT","right","1","","","","","","","","","","","","","","","","","","","","","","","","","","",""
"html-keyboard-response","32","391641","0.0-4.0-1.0-2.3","2","0","ua9662navqolqxx","","null","","<p style=""color:#054d00;""><b>Correct!</b></p>","","null","","","","","","","","","","","","","","","","","","","","","","","","","","","","","","","",""
"audio-keyboard-response","33","392442","0.0-4.0-1.0-0.4","2","0","ua9662navqolqxx","","null","","sounds/induction/right_rev/su_SWS.wav","","null","","","","","","","","","","","","","","","","","","","","","","","","","","","","","","","",""
"html-button-response","34","393469","0.0-4.0-1.0-1.4","2","0","ua9662navqolqxx","","1025.5","","Was the sound coming from the left or the right?","1","","","1","INDUCTION-JUDGMENT","right","1","","","","","","","","","","","","","","","","","","","","","","","","","","",""
"html-keyboard-response","35","394482","0.0-4.0-1.0-2.4","2","0","ua9662navqolqxx","","null","","<p style=""color:#054d00;""><b>Correct!</b></p>","","null","","","","","","","","","","","","","","","","","","","","","","","","","","","","","","","",""
"audio-keyboard-response","36","395302","0.0-4.0-1.0-0.5","2","0","ua9662navqolqxx","","null","","sounds/induction/left_rev/pu_SWS.wav","","null","","","","","","","","","","","","","","","","","","","","","","","","","","","","","","","",""
"html-button-response","37","397085","0.0-4.0-1.0-1.5","2","0","ua9662navqolqxx","","1781.0999999940395","","Was the sound coming from the left or the right?","1","","","0","INDUCTION-JUDGMENT","left","0","","","","","","","","","","","","","","","","","","","","","","","","","","",""
"html-keyboard-response","38","398087","0.0-4.0-1.0-2.5","2","0","ua9662navqolqxx","","null","","<p style=""color:#690000;""><b>Incorrect!</b></p>","","null","","","","","","","","","","","","","","","","","","","","","","","","","","","","","","","",""
"audio-keyboard-response","39","398903","0.0-4.0-1.0-0.6","2","0","ua9662navqolqxx","","null","","sounds/induction/right_rev/me_SWS.wav","","null","","","","","","","","","","","","","","","","","","","","","","","","","","","","","","","",""
"html-button-response","40","400714","0.0-4.0-1.0-1.6","2","0","ua9662navqolqxx","","1810.2000000029802","","Was the sound coming from the left or the right?","1","","","1","INDUCTION-JUDGMENT","right","1","","","","","","","","","","","","","","","","","","","","","","","","","","",""
"html-keyboard-response","41","401716","0.0-4.0-1.0-2.6","2","0","ua9662navqolqxx","","null","","<p style=""color:#054d00;""><b>Correct!</b></p>","","null","","","","","","","","","","","","","","","","","","","","","","","","","","","","","","","",""
"audio-keyboard-response","42","402523","0.0-4.0-1.0-0.7","2","0","ua9662navqolqxx","","null","","sounds/induction/left_rev/ru_SWS.wav","","null","","","","","","","","","","","","","","","","","","","","","","","","","","","","","","","",""
"html-button-response","43","404381","0.0-4.0-1.0-1.7","2","0","ua9662navqolqxx","","1856.7999999970198","","Was the sound coming from the left or the right?","0","","","1","INDUCTION-JUDGMENT","left","0","","","","","","","","","","","","","","","","","","","","","","","","","","",""
"html-keyboard-response","44","405402","0.0-4.0-1.0-2.7","2","0","ua9662navqolqxx","","null","","<p style=""color:#054d00;""><b>Correct!</b></p>","","null","","","","","","","","","","","","","","","","","","","","","","","","","","","","","","","",""
"audio-keyboard-response","45","406203","0.0-4.0-1.0-0.8","2","0","ua9662navqolqxx","","null","","sounds/induction/left_rev/ta_SWS.wav","","null","","","","","","","","","","","","","","","","","","","","","","","","","","","","","","","",""
"html-button-response","46","408582","0.0-4.0-1.0-1.8","2","0","ua9662navqolqxx","","2377.7999999970198","","Was the sound coming from the left or the right?","1","","","0","INDUCTION-JUDGMENT","left","0","","","","","","","","","","","","","","","","","","","","","","","","","","",""
"html-keyboard-response","47","409591","0.0-4.0-1.0-2.8","2","0","ua9662navqolqxx","","null","","<p style=""color:#690000;""><b>Incorrect!</b></p>","","null","","","","","","","","","","","","","","","","","","","","","","","","","","","","","","","",""
"audio-keyboard-response","48","410392","0.0-4.0-1.0-0.9","2","0","ua9662navqolqxx","","null","","sounds/induction/right_rev/fu_SWS.wav","","null","","","","","","","","","","","","","","","","","","","","","","","","","","","","","","","",""
"html-button-response","49","411838","0.0-4.0-1.0-1.9","2","0","ua9662navqolqxx","","1444.4000000059605","","Was the sound coming from the left or the right?","1","","","1","INDUCTION-JUDGMENT","right","1","","","","","","","","","","","","","","","","","","","","","","","","","","",""
"html-keyboard-response","50","412839","0.0-4.0-1.0-2.9","2","0","ua9662navqolqxx","","null","","<p style=""color:#054d00;""><b>Correct!</b></p>","","null","","","","","","","","","","","","","","","","","","","","","","","","","","","","","","","",""
"audio-keyboard-response","51","413663","0.0-4.0-1.0-0.10","2","0","ua9662navqolqxx","","null","","sounds/induction/left_rev/su_SWS.wav","","null","","","","","","","","","","","","","","","","","","","","","","","","","","","","","","","",""
"html-button-response","52","414857","0.0-4.0-1.0-1.10","2","0","ua9662navqolqxx","","1192.8999999910593","","Was the sound coming from the left or the right?","0","","","1","INDUCTION-JUDGMENT","left","0","","","","","","","","","","","","","","","","","","","","","","","","","","",""
"html-keyboard-response","53","415872","0.0-4.0-1.0-2.10","2","0","ua9662navqolqxx","","null","","<p style=""color:#054d00;""><b>Correct!</b></p>","","null","","","","","","","","","","","","","","","","","","","","","","","","","","","","","","","",""
"audio-keyboard-response","54","416673","0.0-4.0-1.0-0.11","2","0","ua9662navqolqxx","","null","","sounds/induction/left_rev/fe_SWS.wav","","null","","","","","","","","","","","","","","","","","","","","","","","","","","","","","","","",""
"html-button-response","55","418040","0.0-4.0-1.0-1.11","2","0","ua9662navqolqxx","","1365.2999999970198","","Was the sound coming from the left or the right?","1","","","0","INDUCTION-JUDGMENT","left","0","","","","","","","","","","","","","","","","","","","","","","","","","","",""
"html-keyboard-response","56","419041","0.0-4.0-1.0-2.11","2","0","ua9662navqolqxx","","null","","<p style=""color:#690000;""><b>Incorrect!</b></p>","","null","","","","","","","","","","","","","","","","","","","","","","","","","","","","","","","",""
"audio-keyboard-response","57","419863","0.0-4.0-1.0-0.12","2","0","ua9662navqolqxx","","null","","sounds/induction/right_rev/ni_SWS.wav","","null","","","","","","","","","","","","","","","","","","","","","","","","","","","","","","","",""
"html-button-response","58","421271","0.0-4.0-1.0-1.12","2","0","ua9662navqolqxx","","1405.6000000089407","","Was the sound coming from the left or the right?","0","","","0","INDUCTION-JUDGMENT","right","1","","","","","","","","","","","","","","","","","","","","","","","","","","",""
"html-keyboard-response","59","422283","0.0-4.0-1.0-2.12","2","0","ua9662navqolqxx","","null","","<p style=""color:#690000;""><b>Incorrect!</b></p>","","null","","","","","","","","","","","","","","","","","","","","","","","","","","","","","","","",""
"audio-keyboard-response","60","423102","0.0-4.0-1.0-0.13","2","0","ua9662navqolqxx","","null","","sounds/induction/right_rev/ru_SWS.wav","","null","","","","","","","","","","","","","","","","","","","","","","","","","","","","","","","",""
"html-button-response","61","424266","0.0-4.0-1.0-1.13","2","0","ua9662navqolqxx","","1162.0999999940395","","Was the sound coming from the left or the right?","1","","","1","INDUCTION-JUDGMENT","right","1","","","","","","","","","","","","","","","","","","","","","","","","","","",""
"html-keyboard-response","62","425281","0.0-4.0-1.0-2.13","2","0","ua9662navqolqxx","","null","","<p style=""color:#054d00;""><b>Correct!</b></p>","","null","","","","","","","","","","","","","","","","","","","","","","","","","","","","","","","",""
"audio-keyboard-response","63","426082","0.0-4.0-1.0-0.14","2","0","ua9662navqolqxx","","null","","sounds/induction/right_rev/fe_SWS.wav","","null","","","","","","","","","","","","","","","","","","","","","","","","","","","","","","","",""
"html-button-response","64","427334","0.0-4.0-1.0-1.14","2","0","ua9662navqolqxx","","1250","","Was the sound coming from the left or the right?","1","","","1","INDUCTION-JUDGMENT","right","1","","","","","","","","","","","","","","","","","","","","","","","","","","",""
"html-keyboard-response","65","428351","0.0-4.0-1.0-2.14","2","0","ua9662navqolqxx","","null","","<p style=""color:#054d00;""><b>Correct!</b></p>","","null","","","","","","","","","","","","","","","","","","","","","","","","","","","","","","","",""
"audio-keyboard-response","66","429152","0.0-4.0-1.0-0.15","2","0","ua9662navqolqxx","","null","","sounds/induction/left_rev/ta_SWS.wav","","null","","","","","","","","","","","","","","","","","","","","","","","","","","","","","","","",""
"html-button-response","67","430218","0.0-4.0-1.0-1.15","2","0","ua9662navqolqxx","","1064.7000000029802","","Was the sound coming from the left or the right?","0","","","1","INDUCTION-JUDGMENT","left","0","","","","","","","","","","","","","","","","","","","","","","","","","","",""
"html-keyboard-response","68","431231","0.0-4.0-1.0-2.15","2","0","ua9662navqolqxx","","null","","<p style=""color:#054d00;""><b>Correct!</b></p>","","null","","","","","","","","","","","","","","","","","","","","","","","","","","","","","","","",""
"audio-keyboard-response","69","432032","0.0-4.0-1.0-0.16","2","0","ua9662navqolqxx","","null","","sounds/induction/left_rev/ko_SWS.wav","","null","","","","","","","","","","","","","","","","","","","","","","","","","","","","","","","",""
"html-button-response","70","433773","0.0-4.0-1.0-1.16","2","0","ua9662navqolqxx","","1736.0999999940395","","Was the sound coming from the left or the right?","1","","","0","INDUCTION-JUDGMENT","left","0","","","","","","","","","","","","","","","","","","","","","","","","","","",""
"html-keyboard-response","71","434775","0.0-4.0-1.0-2.16","2","0","ua9662navqolqxx","","null","","<p style=""color:#690000;""><b>Incorrect!</b></p>","","null","","","","","","","","","","","","","","","","","","","","","","","","","","","","","","","",""
"audio-keyboard-response","72","435582","0.0-4.0-1.0-0.17","2","0","ua9662navqolqxx","","null","","sounds/induction/right_rev/ge_SWS.wav","","null","","","","","","","","","","","","","","","","","","","","","","","","","","","","","","","",""
"html-button-response","73","436805","0.0-4.0-1.0-1.17","2","0","ua9662navqolqxx","","1220.9000000059605","","Was the sound coming from the left or the right?","1","","","1","INDUCTION-JUDGMENT","right","1","","","","","","","","","","","","","","","","","","","","","","","","","","",""
"html-keyboard-response","74","437814","0.0-4.0-1.0-2.17","2","0","ua9662navqolqxx","","null","","<p style=""color:#054d00;""><b>Correct!</b></p>","","null","","","","","","","","","","","","","","","","","","","","","","","","","","","","","","","",""
"audio-keyboard-response","75","438622","0.0-4.0-1.0-0.18","2","0","ua9662navqolqxx","","null","","sounds/induction/left_rev/fu_SWS.wav","","null","","","","","","","","","","","","","","","","","","","","","","","","","","","","","","","",""
"html-button-response","76","442323","0.0-4.0-1.0-1.18","2","0","ua9662navqolqxx","","3699.5999999940395","","Was the sound coming from the left or the right?","1","","","0","INDUCTION-JUDGMENT","left","0","","","","","","","","","","","","","","","","","","","","","","","","","","",""
"html-keyboard-response","77","443341","0.0-4.0-1.0-2.18","2","0","ua9662navqolqxx","","null","","<p style=""color:#690000;""><b>Incorrect!</b></p>","","null","","","","","","","","","","","","","","","","","","","","","","","","","","","","","","","",""
"audio-keyboard-response","78","444152","0.0-4.0-1.0-0.19","2","0","ua9662navqolqxx","","null","","sounds/induction/left_rev/pu_SWS.wav","","null","","","","","","","","","","","","","","","","","","","","","","","","","","","","","","","",""
"html-button-response","79","446809","0.0-4.0-1.0-1.19","2","0","ua9662navqolqxx","","2655.3999999910593","","Was the sound coming from the left or the right?","1","","","0","INDUCTION-JUDGMENT","left","0","","","","","","","","","","","","","","","","","","","","","","","","","","",""
"html-keyboard-response","80","447830","0.0-4.0-1.0-2.19","2","0","ua9662navqolqxx","","null","","<p style=""color:#690000;""><b>Incorrect!</b></p>","","null","","","","","","","","","","","","","","","","","","","","","","","","","","","","","","","",""
"audio-keyboard-response","81","448642","0.0-4.0-1.0-0.20","2","0","ua9662navqolqxx","","null","","sounds/induction/right_rev/pu_SWS.wav","","null","","","","","","","","","","","","","","","","","","","","","","","","","","","","","","","",""
"html-button-response","82","450350","0.0-4.0-1.0-1.20","2","0","ua9662navqolqxx","","1706.2999999970198","","Was the sound coming from the left or the right?","0","","","0","INDUCTION-JUDGMENT","right","1","","","","","","","","","","","","","","","","","","","","","","","","","","",""
"html-keyboard-response","83","451352","0.0-4.0-1.0-2.20","2","0","ua9662navqolqxx","","null","","<p style=""color:#690000;""><b>Incorrect!</b></p>","","null","","","","","","","","","","","","","","","","","","","","","","","","","","","","","","","",""
"audio-keyboard-response","84","452162","0.0-4.0-1.0-0.21","2","0","ua9662navqolqxx","","null","","sounds/induction/left_rev/me_SWS.wav","","null","","","","","","","","","","","","","","","","","","","","","","","","","","","","","","","",""
"html-button-response","85","453457","0.0-4.0-1.0-1.21","2","0","ua9662navqolqxx","","1293.0999999940395","","Was the sound coming from the left or the right?","1","","","0","INDUCTION-JUDGMENT","left","0","","","","","","","","","","","","","","","","","","","","","","","","","","",""
"html-keyboard-response","86","454461","0.0-4.0-1.0-2.21","2","0","ua9662navqolqxx","","null","","<p style=""color:#690000;""><b>Incorrect!</b></p>","","null","","","","","","","","","","","","","","","","","","","","","","","","","","","","","","","",""
"audio-keyboard-response","87","455272","0.0-4.0-1.0-0.22","2","0","ua9662navqolqxx","","null","","sounds/induction/left_rev/re_SWS.wav","","null","","","","","","","","","","","","","","","","","","","","","","","","","","","","","","","",""
"html-button-response","88","456875","0.0-4.0-1.0-1.22","2","0","ua9662navqolqxx","","1601.5999999940395","","Was the sound coming from the left or the right?","0","","","1","INDUCTION-JUDGMENT","left","0","","","","","","","","","","","","","","","","","","","","","","","","","","",""
"html-keyboard-response","89","457881","0.0-4.0-1.0-2.22","2","0","ua9662navqolqxx","","null","","<p style=""color:#054d00;""><b>Correct!</b></p>","","null","","","","","","","","","","","","","","","","","","","","","","","","","","","","","","","",""
"audio-keyboard-response","90","458702","0.0-4.0-1.0-0.23","2","0","ua9662navqolqxx","","null","","sounds/induction/left_rev/ru_SWS.wav","","null","","","","","","","","","","","","","","","","","","","","","","","","","","","","","","","",""
"html-button-response","91","460753","0.0-4.0-1.0-1.23","2","0","ua9662navqolqxx","","2048.8999999910593","","Was the sound coming from the left or the right?","0","","","1","INDUCTION-JUDGMENT","left","0","","","","","","","","","","","","","","","","","","","","","","","","","","",""
"html-keyboard-response","92","461762","0.0-4.0-1.0-2.23","2","0","ua9662navqolqxx","","null","","<p style=""color:#054d00;""><b>Correct!</b></p>","","null","","","","","","","","","","","","","","","","","","","","","","","","","","","","","","","",""
"audio-keyboard-response","93","462562","0.0-4.0-1.0-0.24","2","0","ua9662navqolqxx","","null","","sounds/induction/right_rev/ko_SWS.wav","","null","","","","","","","","","","","","","","","","","","","","","","","","","","","","","","","",""
"html-button-response","94","463922","0.0-4.0-1.0-1.24","2","0","ua9662navqolqxx","","1358.2000000029802","","Was the sound coming from the left or the right?","1","","","1","INDUCTION-JUDGMENT","right","1","","","","","","","","","","","","","","","","","","","","","","","","","","",""
"html-keyboard-response","95","464933","0.0-4.0-1.0-2.24","2","0","ua9662navqolqxx","","null","","<p style=""color:#054d00;""><b>Correct!</b></p>","","null","","","","","","","","","","","","","","","","","","","","","","","","","","","","","","","",""
"audio-keyboard-response","96","465752","0.0-4.0-1.0-0.25","2","0","ua9662navqolqxx","","null","","sounds/induction/left_rev/ni_SWS.wav","","null","","","","","","","","","","","","","","","","","","","","","","","","","","","","","","","",""
"html-button-response","97","467439","0.0-4.0-1.0-1.25","2","0","ua9662navqolqxx","","1685.2999999970198","","Was the sound coming from the left or the right?","0","","","1","INDUCTION-JUDGMENT","left","0","","","","","","","","","","","","","","","","","","","","","","","","","","",""
"html-keyboard-response","98","468442","0.0-4.0-1.0-2.25","2","0","ua9662navqolqxx","","null","","<p style=""color:#054d00;""><b>Correct!</b></p>","","null","","","","","","","","","","","","","","","","","","","","","","","","","","","","","","","",""
"audio-keyboard-response","99","469242","0.0-4.0-1.0-0.26","2","0","ua9662navqolqxx","","null","","sounds/induction/right_rev/ru_SWS.wav","","null","","","","","","","","","","","","","","","","","","","","","","","","","","","","","","","",""
"html-button-response","100","470870","0.0-4.0-1.0-1.26","2","0","ua9662navqolqxx","","1626.4000000059605","","Was the sound coming from the left or the right?","1","","","1","INDUCTION-JUDGMENT","right","1","","","","","","","","","","","","","","","","","","","","","","","","","","",""
"html-keyboard-response","101","471875","0.0-4.0-1.0-2.26","2","0","ua9662navqolqxx","","null","","<p style=""color:#054d00;""><b>Correct!</b></p>","","null","","","","","","","","","","","","","","","","","","","","","","","","","","","","","","","",""
"audio-keyboard-response","102","472682","0.0-4.0-1.0-0.27","2","0","ua9662navqolqxx","","null","","sounds/induction/left_rev/ge_SWS.wav","","null","","","","","","","","","","","","","","","","","","","","","","","","","","","","","","","",""
"html-button-response","103","474337","0.0-4.0-1.0-1.27","2","0","ua9662navqolqxx","","1653.7000000029802","","Was the sound coming from the left or the right?","0","","","1","INDUCTION-JUDGMENT","left","0","","","","","","","","","","","","","","","","","","","","","","","","","","",""
"html-keyboard-response","104","475361","0.0-4.0-1.0-2.27","2","0","ua9662navqolqxx","","null","","<p style=""color:#054d00;""><b>Correct!</b></p>","","null","","","","","","","","","","","","","","","","","","","","","","","","","","","","","","","",""
"audio-keyboard-response","105","476183","0.0-4.0-1.0-0.28","2","0","ua9662navqolqxx","","null","","sounds/induction/left_rev/ti_SWS.wav","","null","","","","","","","","","","","","","","","","","","","","","","","","","","","","","","","",""
"html-button-response","106","477171","0.0-4.0-1.0-1.28","2","0","ua9662navqolqxx","","987.2999999970198","","Was the sound coming from the left or the right?","0","","","1","INDUCTION-JUDGMENT","left","0","","","","","","","","","","","","","","","","","","","","","","","","","","",""
"html-keyboard-response","107","478181","0.0-4.0-1.0-2.28","2","0","ua9662navqolqxx","","null","","<p style=""color:#054d00;""><b>Correct!</b></p>","","null","","","","","","","","","","","","","","","","","","","","","","","","","","","","","","","",""
"audio-keyboard-response","108","478992","0.0-4.0-1.0-0.29","2","0","ua9662navqolqxx","","null","","sounds/induction/right_rev/ge_SWS.wav","","null","","","","","","","","","","","","","","","","","","","","","","","","","","","","","","","",""
"html-button-response","109","480217","0.0-4.0-1.0-1.29","2","0","ua9662navqolqxx","","1223","","Was the sound coming from the left or the right?","1","","","1","INDUCTION-JUDGMENT","right","1","","","","","","","","","","","","","","","","","","","","","","","","","","",""
"html-keyboard-response","110","481222","0.0-4.0-1.0-2.29","2","0","ua9662navqolqxx","","null","","<p style=""color:#054d00;""><b>Correct!</b></p>","","null","","","","","","","","","","","","","","","","","","","","","","","","","","","","","","","",""
"audio-keyboard-response","111","482032","0.0-4.0-1.0-0.30","2","0","ua9662navqolqxx","","null","","sounds/induction/left_rev/fu_SWS.wav","","null","","","","","","","","","","","","","","","","","","","","","","","","","","","","","","","",""
"html-button-response","112","483299","0.0-4.0-1.0-1.30","2","0","ua9662navqolqxx","","1265.7000000029802","","Was the sound coming from the left or the right?","0","","","1","INDUCTION-JUDGMENT","left","0","","","","","","","","","","","","","","","","","","","","","","","","","","",""
"html-keyboard-response","113","484301","0.0-4.0-1.0-2.30","2","0","ua9662navqolqxx","","null","","<p style=""color:#054d00;""><b>Correct!</b></p>","","null","","","","","","","","","","","","","","","","","","","","","","","","","","","","","","","",""
"audio-keyboard-response","114","485112","0.0-4.0-1.0-0.31","2","0","ua9662navqolqxx","","null","","sounds/induction/right_rev/fu_SWS.wav","","null","","","","","","","","","","","","","","","","","","","","","","","","","","","","","","","",""
"html-button-response","115","486256","0.0-4.0-1.0-1.31","2","0","ua9662navqolqxx","","1143.2000000029802","","Was the sound coming from the left or the right?","1","","","1","INDUCTION-JUDGMENT","right","1","","","","","","","","","","","","","","","","","","","","","","","","","","",""
"html-keyboard-response","116","487271","0.0-4.0-1.0-2.31","2","0","ua9662navqolqxx","","null","","<p style=""color:#054d00;""><b>Correct!</b></p>","","null","","","","","","","","","","","","","","","","","","","","","","","","","","","","","","","",""
"audio-keyboard-response","117","488072","0.0-4.0-1.0-0.32","2","0","ua9662navqolqxx","","null","","sounds/induction/right_rev/ti_SWS.wav","","null","","","","","","","","","","","","","","","","","","","","","","","","","","","","","","","",""
"html-button-response","118","489165","0.0-4.0-1.0-1.32","2","0","ua9662navqolqxx","","1091.4000000059605","","Was the sound coming from the left or the right?","0","","","0","INDUCTION-JUDGMENT","right","1","","","","","","","","","","","","","","","","","","","","","","","","","","",""
"html-keyboard-response","119","490181","0.0-4.0-1.0-2.32","2","0","ua9662navqolqxx","","null","","<p style=""color:#690000;""><b>Incorrect!</b></p>","","null","","","","","","","","","","","","","","","","","","","","","","","","","","","","","","","",""
"audio-keyboard-response","120","490992","0.0-4.0-1.0-0.33","2","0","ua9662navqolqxx","","null","","sounds/induction/right_rev/ni_SWS.wav","","null","","","","","","","","","","","","","","","","","","","","","","","","","","","","","","","",""
"html-button-response","121","492347","0.0-4.0-1.0-1.33","2","0","ua9662navqolqxx","","1354","","Was the sound coming from the left or the right?","0","","","0","INDUCTION-JUDGMENT","right","1","","","","","","","","","","","","","","","","","","","","","","","","","","",""
"html-keyboard-response","122","493351","0.0-4.0-1.0-2.33","2","0","ua9662navqolqxx","","null","","<p style=""color:#690000;""><b>Incorrect!</b></p>","","null","","","","","","","","","","","","","","","","","","","","","","","","","","","","","","","",""
"audio-keyboard-response","123","494182","0.0-4.0-1.0-0.34","2","0","ua9662navqolqxx","","null","","sounds/induction/left_rev/ge_SWS.wav","","null","","","","","","","","","","","","","","","","","","","","","","","","","","","","","","","",""
"html-button-response","124","495167","0.0-4.0-1.0-1.34","2","0","ua9662navqolqxx","","984.2000000029802","","Was the sound coming from the left or the right?","0","","","1","INDUCTION-JUDGMENT","left","0","","","","","","","","","","","","","","","","","","","","","","","","","","",""
"html-keyboard-response","125","496181","0.0-4.0-1.0-2.34","2","0","ua9662navqolqxx","","null","","<p style=""color:#054d00;""><b>Correct!</b></p>","","null","","","","","","","","","","","","","","","","","","","","","","","","","","","","","","","",""
"audio-keyboard-response","126","496992","0.0-4.0-1.0-0.35","2","0","ua9662navqolqxx","","null","","sounds/induction/right_rev/ta_SWS.wav","","null","","","","","","","","","","","","","","","","","","","","","","","","","","","","","","","",""
"html-button-response","127","498125","0.0-4.0-1.0-1.35","2","0","ua9662navqolqxx","","1131.9000000059605","","Was the sound coming from the left or the right?","1","","","1","INDUCTION-JUDGMENT","right","1","","","","","","","","","","","","","","","","","","","","","","","","","","",""
"html-keyboard-response","128","499131","0.0-4.0-1.0-2.35","2","0","ua9662navqolqxx","","null","","<p style=""color:#054d00;""><b>Correct!</b></p>","","null","","","","","","","","","","","","","","","","","","","","","","","","","","","","","","","",""
"audio-keyboard-response","129","499943","0.0-4.0-1.0-0.36","2","0","ua9662navqolqxx","","null","","sounds/induction/left_rev/ti_SWS.wav","","null","","","","","","","","","","","","","","","","","","","","","","","","","","","","","","","",""
"html-button-response","130","500996","0.0-4.0-1.0-1.36","2","0","ua9662navqolqxx","","1052.7000000029802","","Was the sound coming from the left or the right?","0","","","1","INDUCTION-JUDGMENT","left","0","","","","","","","","","","","","","","","","","","","","","","","","","","",""
"html-keyboard-response","131","502001","0.0-4.0-1.0-2.36","2","0","ua9662navqolqxx","","null","","<p style=""color:#054d00;""><b>Correct!</b></p>","","null","","","","","","","","","","","","","","","","","","","","","","","","","","","","","","","",""
"audio-keyboard-response","132","502802","0.0-4.0-1.0-0.37","2","0","ua9662navqolqxx","","null","","sounds/induction/left_rev/su_SWS.wav","","null","","","","","","","","","","","","","","","","","","","","","","","","","","","","","","","",""
"html-button-response","133","504004","0.0-4.0-1.0-1.37","2","0","ua9662navqolqxx","","1200.5","","Was the sound coming from the left or the right?","0","","","1","INDUCTION-JUDGMENT","left","0","","","","","","","","","","","","","","","","","","","","","","","","","","",""
"html-keyboard-response","134","505005","0.0-4.0-1.0-2.37","2","0","ua9662navqolqxx","","null","","<p style=""color:#054d00;""><b>Correct!</b></p>","","null","","","","","","","","","","","","","","","","","","","","","","","","","","","","","","","",""
"audio-keyboard-response","135","505822","0.0-4.0-1.0-0.38","2","0","ua9662navqolqxx","","null","","sounds/induction/left_rev/fe_SWS.wav","","null","","","","","","","","","","","","","","","","","","","","","","","","","","","","","","","",""
"html-button-response","136","507136","0.0-4.0-1.0-1.38","2","0","ua9662navqolqxx","","1313.1000000089407","","Was the sound coming from the left or the right?","1","","","0","INDUCTION-JUDGMENT","left","0","","","","","","","","","","","","","","","","","","","","","","","","","","",""
"html-keyboard-response","137","508141","0.0-4.0-1.0-2.38","2","0","ua9662navqolqxx","","null","","<p style=""color:#690000;""><b>Incorrect!</b></p>","","null","","","","","","","","","","","","","","","","","","","","","","","","","","","","","","","",""
"audio-keyboard-response","138","508952","0.0-4.0-1.0-0.39","2","0","ua9662navqolqxx","","null","","sounds/induction/right_rev/su_SWS.wav","","null","","","","","","","","","","","","","","","","","","","","","","","","","","","","","","","",""
"html-button-response","139","509896","0.0-4.0-1.0-1.39","2","0","ua9662navqolqxx","","941.2999999970198","","Was the sound coming from the left or the right?","1","","","1","INDUCTION-JUDGMENT","right","1","","","","","","","","","","","","","","","","","","","","","","","","","","",""
"html-keyboard-response","140","510901","0.0-4.0-1.0-2.39","2","0","ua9662navqolqxx","","null","","<p style=""color:#054d00;""><b>Correct!</b></p>","","null","","","","","","","","","","","","","","","","","","","","","","","","","","","","","","","",""
"audio-keyboard-response","141","511712","0.0-4.0-1.0-0.40","2","0","ua9662navqolqxx","","null","","sounds/induction/right_rev/fe_SWS.wav","","null","","","","","","","","","","","","","","","","","","","","","","","","","","","","","","","",""
"html-button-response","142","512791","0.0-4.0-1.0-1.40","2","0","ua9662navqolqxx","","1078","","Was the sound coming from the left or the right?","0","","","0","INDUCTION-JUDGMENT","right","1","","","","","","","","","","","","","","","","","","","","","","","","","","",""
"html-keyboard-response","143","513802","0.0-4.0-1.0-2.40","2","0","ua9662navqolqxx","","null","","<p style=""color:#690000;""><b>Incorrect!</b></p>","","null","","","","","","","","","","","","","","","","","","","","","","","","","","","","","","","",""
"audio-keyboard-response","144","514622","0.0-4.0-1.0-0.41","2","0","ua9662navqolqxx","","null","","sounds/induction/left_rev/re_SWS.wav","","null","","","","","","","","","","","","","","","","","","","","","","","","","","","","","","","",""
"html-button-response","145","515850","0.0-4.0-1.0-1.41","2","0","ua9662navqolqxx","","1225.7000000029802","","Was the sound coming from the left or the right?","1","","","0","INDUCTION-JUDGMENT","left","0","","","","","","","","","","","","","","","","","","","","","","","","","","",""
"html-keyboard-response","146","516861","0.0-4.0-1.0-2.41","2","0","ua9662navqolqxx","","null","","<p style=""color:#690000;""><b>Incorrect!</b></p>","","null","","","","","","","","","","","","","","","","","","","","","","","","","","","","","","","",""
"audio-keyboard-response","147","517672","0.0-4.0-1.0-0.42","2","0","ua9662navqolqxx","","null","","sounds/induction/right_rev/re_SWS.wav","","null","","","","","","","","","","","","","","","","","","","","","","","","","","","","","","","",""
"html-button-response","148","518882","0.0-4.0-1.0-1.42","2","0","ua9662navqolqxx","","1208.5","","Was the sound coming from the left or the right?","1","","","1","INDUCTION-JUDGMENT","right","1","","","","","","","","","","","","","","","","","","","","","","","","","","",""
"html-keyboard-response","149","519891","0.0-4.0-1.0-2.42","2","0","ua9662navqolqxx","","null","","<p style=""color:#054d00;""><b>Correct!</b></p>","","null","","","","","","","","","","","","","","","","","","","","","","","","","","","","","","","",""
"audio-keyboard-response","150","520712","0.0-4.0-1.0-0.43","2","0","ua9662navqolqxx","","null","","sounds/induction/right_rev/ti_SWS.wav","","null","","","","","","","","","","","","","","","","","","","","","","","","","","","","","","","",""
"html-button-response","151","523892","0.0-4.0-1.0-1.43","2","0","ua9662navqolqxx","","3178.7000000029802","","Was the sound coming from the left or the right?","1","","","1","INDUCTION-JUDGMENT","right","1","","","","","","","","","","","","","","","","","","","","","","","","","","",""
"html-keyboard-response","152","524893","0.0-4.0-1.0-2.43","2","0","ua9662navqolqxx","","null","","<p style=""color:#054d00;""><b>Correct!</b></p>","","null","","","","","","","","","","","","","","","","","","","","","","","","","","","","","","","",""
"audio-keyboard-response","153","525713","0.0-4.0-1.0-0.44","2","0","ua9662navqolqxx","","null","","sounds/induction/right_rev/ko_SWS.wav","","null","","","","","","","","","","","","","","","","","","","","","","","","","","","","","","","",""
"html-button-response","154","526961","0.0-4.0-1.0-1.44","2","0","ua9662navqolqxx","","1247.4000000059605","","Was the sound coming from the left or the right?","1","","","1","INDUCTION-JUDGMENT","right","1","","","","","","","","","","","","","","","","","","","","","","","","","","",""
"html-keyboard-response","155","527969","0.0-4.0-1.0-2.44","2","0","ua9662navqolqxx","","null","","<p style=""color:#054d00;""><b>Correct!</b></p>","","null","","","","","","","","","","","","","","","","","","","","","","","","","","","","","","","",""
"audio-keyboard-response","156","528762","0.0-4.0-1.0-0.45","2","0","ua9662navqolqxx","","null","","sounds/induction/right_rev/ta_SWS.wav","","null","","","","","","","","","","","","","","","","","","","","","","","","","","","","","","","",""
"html-button-response","157","529982","0.0-4.0-1.0-1.45","2","0","ua9662navqolqxx","","1218.300000011921","","Was the sound coming from the left or the right?","1","","","1","INDUCTION-JUDGMENT","right","1","","","","","","","","","","","","","","","","","","","","","","","","","","",""
"html-keyboard-response","158","530992","0.0-4.0-1.0-2.45","2","0","ua9662navqolqxx","","null","","<p style=""color:#054d00;""><b>Correct!</b></p>","","null","","","","","","","","","","","","","","","","","","","","","","","","","","","","","","","",""
"audio-keyboard-response","159","531803","0.0-4.0-1.0-0.46","2","0","ua9662navqolqxx","","null","","sounds/induction/left_rev/ko_SWS.wav","","null","","","","","","","","","","","","","","","","","","","","","","","","","","","","","","","",""
"html-button-response","160","533039","0.0-4.0-1.0-1.46","2","0","ua9662navqolqxx","","1234.0999999940395","","Was the sound coming from the left or the right?","0","","","1","INDUCTION-JUDGMENT","left","0","","","","","","","","","","","","","","","","","","","","","","","","","","",""
"html-keyboard-response","161","534052","0.0-4.0-1.0-2.46","2","0","ua9662navqolqxx","","null","","<p style=""color:#054d00;""><b>Correct!</b></p>","","null","","","","","","","","","","","","","","","","","","","","","","","","","","","","","","","",""
"audio-keyboard-response","162","534872","0.0-4.0-1.0-0.47","2","0","ua9662navqolqxx","","null","","sounds/induction/right_rev/pu_SWS.wav","","null","","","","","","","","","","","","","","","","","","","","","","","","","","","","","","","",""
"html-button-response","163","536009","0.0-4.0-1.0-1.47","2","0","ua9662navqolqxx","","1135.7000000029802","","Was the sound coming from the left or the right?","1","","","1","INDUCTION-JUDGMENT","right","1","","","","","","","","","","","","","","","","","","","","","","","","","","",""
"html-keyboard-response","164","537017","0.0-4.0-1.0-2.47","2","0","ua9662navqolqxx","","null","","<p style=""color:#054d00;""><b>Correct!</b></p>","","null","","","","","","","","","","","","","","","","","","","","","","","","","","","","","","","",""
"html-button-response","165","551705","0.0-5.0-0.0","2","0","ua9662navqolqxx","","14174.5","","<p>Thank you for your answers.</p><p>You will now listen to similar sounds. The main difference is that the sounds will be longer.</p><p>Just as before, you will be asked to judge whether the sound was coming from the left or the right.</p><p>There are 10 of these longer sounds in total.","0","","","","","","","","","","","","","","","","","","","","","","","","","","","","","","","","",""
"audio-keyboard-response","166","554743","0.0-5.0-1.0-0.0","2","0","ua9662navqolqxx","","null","","sounds/sentences/right_rev/14_10_cfSWS.wav","","null","","","","","","","","","","","","","","","","","","","","","","","","","","","","","","","",""
"html-button-response","167","557497","0.0-5.0-1.0-1.0","2","0","ua9662navqolqxx","","2752.4000000059605","","Was the sound coming from the left or the right?","1","","","1","INDUCTION-JUDGMENT","right","1","","","","","","","","","","","","","","","","","","","","","","","","","","",""
"html-keyboard-response","168","558500","0.0-5.0-1.0-2.0","2","0","ua9662navqolqxx","","null","","<p style=""color:#054d00;""><b>Correct!</b></p>","","null","","","","","","","","","","","","","","","","","","","","","","","","","","","","","","","",""
"html-button-response","169","563638","0.0-5.0-1.0-3.0","2","0","ua9662navqolqxx","","4626.199999988079","","<p>Press the button below when you are ready to continue.</p>","0","","","","","","","","","","","","","","","","","","","","","","","","","","","","","","","","",""
"audio-keyboard-response","170","566402","0.0-5.0-1.0-0.1","2","0","ua9662navqolqxx","","null","","sounds/sentences/right_rev/14_06_cfSWS.wav","","null","","","","","","","","","","","","","","","","","","","","","","","","","","","","","","","",""
"html-button-response","171","568125","0.0-5.0-1.0-1.1","2","0","ua9662navqolqxx","","1720.3999999910593","","Was the sound coming from the left or the right?","0","","","0","INDUCTION-JUDGMENT","right","1","","","","","","","","","","","","","","","","","","","","","","","","","","",""
"html-keyboard-response","172","569130","0.0-5.0-1.0-2.1","2","0","ua9662navqolqxx","","null","","<p style=""color:#690000;""><b>Incorrect!</b></p>","","null","","","","","","","","","","","","","","","","","","","","","","","","","","","","","","","",""
"html-button-response","173","570648","0.0-5.0-1.0-3.1","2","0","ua9662navqolqxx","","1001","","<p>Press the button below when you are ready to continue.</p>","0","","","","","","","","","","","","","","","","","","","","","","","","","","","","","","","","",""
"audio-keyboard-response","174","573412","0.0-5.0-1.0-0.2","2","0","ua9662navqolqxx","","null","","sounds/sentences/right_rev/14_08_cfSWS.wav","","null","","","","","","","","","","","","","","","","","","","","","","","","","","","","","","","",""
"html-button-response","175","574303","0.0-5.0-1.0-1.2","2","0","ua9662navqolqxx","","888.5","","Was the sound coming from the left or the right?","0","","","0","INDUCTION-JUDGMENT","right","1","","","","","","","","","","","","","","","","","","","","","","","","","","",""
"html-keyboard-response","176","575311","0.0-5.0-1.0-2.2","2","0","ua9662navqolqxx","","null","","<p style=""color:#690000;""><b>Incorrect!</b></p>","","null","","","","","","","","","","","","","","","","","","","","","","","","","","","","","","","",""
"html-button-response","177","578118","0.0-5.0-1.0-3.2","2","0","ua9662navqolqxx","","2304.9000000059605","","<p>Press the button below when you are ready to continue.</p>","0","","","","","","","","","","","","","","","","","","","","","","","","","","","","","","","","",""
"audio-keyboard-response","178","581252","0.0-5.0-1.0-0.3","2","0","ua9662navqolqxx","","null","","sounds/sentences/left_rev/14_01_cfSWS.wav","","null","","","","","","","","","","","","","","","","","","","","","","","","","","","","","","","",""
"html-button-response","179","582307","0.0-5.0-1.0-1.3","2","0","ua9662navqolqxx","","1053.199999988079","","Was the sound coming from the left or the right?","0","","","1","INDUCTION-JUDGMENT","left","0","","","","","","","","","","","","","","","","","","","","","","","","","","",""
"html-keyboard-response","180","583311","0.0-5.0-1.0-2.3","2","0","ua9662navqolqxx","","null","","<p style=""color:#054d00;""><b>Correct!</b></p>","","null","","","","","","","","","","","","","","","","","","","","","","","","","","","","","","","",""
"html-button-response","181","585329","0.0-5.0-1.0-3.3","2","0","ua9662navqolqxx","","1500.2000000029802","","<p>Press the button below when you are ready to continue.</p>","0","","","","","","","","","","","","","","","","","","","","","","","","","","","","","","","","",""
"audio-keyboard-response","182","588172","0.0-5.0-1.0-0.4","2","0","ua9662navqolqxx","","null","","sounds/sentences/left_rev/14_02_cfSWS.wav","","null","","","","","","","","","","","","","","","","","","","","","","","","","","","","","","","",""
"html-button-response","183","589368","0.0-5.0-1.0-1.4","2","0","ua9662navqolqxx","","1194.199999988079","","Was the sound coming from the left or the right?","0","","","1","INDUCTION-JUDGMENT","left","0","","","","","","","","","","","","","","","","","","","","","","","","","","",""
"html-keyboard-response","184","590381","0.0-5.0-1.0-2.4","2","0","ua9662navqolqxx","","null","","<p style=""color:#054d00;""><b>Correct!</b></p>","","null","","","","","","","","","","","","","","","","","","","","","","","","","","","","","","","",""
"html-button-response","185","591816","0.0-5.0-1.0-3.4","2","0","ua9662navqolqxx","","925.4000000059605","","<p>Press the button below when you are ready to continue.</p>","0","","","","","","","","","","","","","","","","","","","","","","","","","","","","","","","","",""
"audio-keyboard-response","186","594553","0.0-5.0-1.0-0.5","2","0","ua9662navqolqxx","","null","","sounds/sentences/right_rev/14_09_cfSWS.wav","","null","","","","","","","","","","","","","","","","","","","","","","","","","","","","","","","",""
"html-button-response","187","595583","0.0-5.0-1.0-1.5","2","0","ua9662navqolqxx","","1027.2999999970198","","Was the sound coming from the left or the right?","1","","","1","INDUCTION-JUDGMENT","right","1","","","","","","","","","","","","","","","","","","","","","","","","","","",""
"html-keyboard-response","188","596601","0.0-5.0-1.0-2.5","2","0","ua9662navqolqxx","","null","","<p style=""color:#054d00;""><b>Correct!</b></p>","","null","","","","","","","","","","","","","","","","","","","","","","","","","","","","","","","",""
"html-button-response","189","598666","0.0-5.0-1.0-3.5","2","0","ua9662navqolqxx","","1555.8999999910593","","<p>Press the button below when you are ready to continue.</p>","0","","","","","","","","","","","","","","","","","","","","","","","","","","","","","","","","",""
"audio-keyboard-response","190","601252","0.0-5.0-1.0-0.6","2","0","ua9662navqolqxx","","null","","sounds/sentences/left_rev/14_03_cfSWS.wav","","null","","","","","","","","","","","","","","","","","","","","","","","","","","","","","","","",""
"html-button-response","191","602209","0.0-5.0-1.0-1.6","2","0","ua9662navqolqxx","","955.0999999940395","","Was the sound coming from the left or the right?","0","","","1","INDUCTION-JUDGMENT","left","0","","","","","","","","","","","","","","","","","","","","","","","","","","",""
"html-keyboard-response","192","603210","0.0-5.0-1.0-2.6","2","0","ua9662navqolqxx","","null","","<p style=""color:#054d00;""><b>Correct!</b></p>","","null","","","","","","","","","","","","","","","","","","","","","","","","","","","","","","","",""
"html-button-response","193","605030","0.0-5.0-1.0-3.6","2","0","ua9662navqolqxx","","1304.2999999970198","","<p>Press the button below when you are ready to continue.</p>","0","","","","","","","","","","","","","","","","","","","","","","","","","","","","","","","","",""
"audio-keyboard-response","194","608032","0.0-5.0-1.0-0.7","2","0","ua9662navqolqxx","","null","","sounds/sentences/left_rev/14_05_cfSWS.wav","","null","","","","","","","","","","","","","","","","","","","","","","","","","","","","","","","",""
"html-button-response","195","609133","0.0-5.0-1.0-1.7","2","0","ua9662navqolqxx","","1098.7999999970198","","Was the sound coming from the left or the right?","0","","","1","INDUCTION-JUDGMENT","left","0","","","","","","","","","","","","","","","","","","","","","","","","","","",""
"html-keyboard-response","196","610142","0.0-5.0-1.0-2.7","2","0","ua9662navqolqxx","","null","","<p style=""color:#054d00;""><b>Correct!</b></p>","","null","","","","","","","","","","","","","","","","","","","","","","","","","","","","","","","",""
"html-button-response","197","611918","0.0-5.0-1.0-3.7","2","0","ua9662navqolqxx","","1264.2000000029802","","<p>Press the button below when you are ready to continue.</p>","0","","","","","","","","","","","","","","","","","","","","","","","","","","","","","","","","",""
"audio-keyboard-response","198","614812","0.0-5.0-1.0-0.8","2","0","ua9662navqolqxx","","null","","sounds/sentences/right_rev/14_07_cfSWS.wav","","null","","","","","","","","","","","","","","","","","","","","","","","","","","","","","","","",""
"html-button-response","199","615697","0.0-5.0-1.0-1.8","2","0","ua9662navqolqxx","","882.0999999940395","","Was the sound coming from the left or the right?","1","","","1","INDUCTION-JUDGMENT","right","1","","","","","","","","","","","","","","","","","","","","","","","","","","",""
"html-keyboard-response","200","616701","0.0-5.0-1.0-2.8","2","0","ua9662navqolqxx","","null","","<p style=""color:#054d00;""><b>Correct!</b></p>","","null","","","","","","","","","","","","","","","","","","","","","","","","","","","","","","","",""
"html-button-response","201","617972","0.0-5.0-1.0-3.8","2","0","ua9662navqolqxx","","764.8999999910593","","<p>Press the button below when you are ready to continue.</p>","0","","","","","","","","","","","","","","","","","","","","","","","","","","","","","","","","",""
"audio-keyboard-response","202","620532","0.0-5.0-1.0-0.9","2","0","ua9662navqolqxx","","null","","sounds/sentences/left_rev/14_04_cfSWS.wav","","null","","","","","","","","","","","","","","","","","","","","","","","","","","","","","","","",""
"html-button-response","203","621788","0.0-5.0-1.0-1.9","2","0","ua9662navqolqxx","","1252.7000000029802","","Was the sound coming from the left or the right?","0","","","1","INDUCTION-JUDGMENT","left","0","","","","","","","","","","","","","","","","","","","","","","","","","","",""
"html-keyboard-response","204","622790","0.0-5.0-1.0-2.9","2","0","ua9662navqolqxx","","null","","<p style=""color:#054d00;""><b>Correct!</b></p>","","null","","","","","","","","","","","","","","","","","","","","","","","","","","","","","","","",""
"html-button-response","205","624497","0.0-5.0-1.0-3.9","2","0","ua9662navqolqxx","","1206.0999999940395","","<p>Press the button below when you are ready to continue.</p>","0","","","","","","","","","","","","","","","","","","","","","","","","","","","","","","","","",""
"html-keyboard-response","206","656942","0.0-6.0-0.0","2","0","ua9662navqolqxx","","31938.60000000894","","<p>In this part of the study, you will hear sounds similar to those you just heard.</p><p>Please focus on these sounds, as you may be asked questions about them later.</p><p>Occasionally, the sounds will pause for up to two seconds. When this happens, please press SPACEBAR as quickly as you can.</br>This helps ensure that you are paying attention to the sounds.</p><p>This part of the study will take about 12 minutes to complete, and you will be given the opportunity to take a couple of short breaks every few minutes.</p><p><strong>Press SPACEBAR to begin</strong></p>","","32","","","","","","","","","","","","","","","","","","","","","","","","","","","","","","","",""
"html-keyboard-response","207","657948","0.0-6.0-1.0-0.0","2","0","ua9662navqolqxx","","null","","<p style=""font-size: 40px;"">+</p>","","null","","","","","","","","","","","","","","","","","","","","","","","","","","","","","","","",""
"html-keyboard-response","208","842958","0.0-6.0-1.0-1.0","2","0","ua9662navqolqxx","","null","","","","null","","","SL-TRAIN","","","0","597.2999999970198","474.70000000298023","sounds/B/TRAIN/SEQ__07.mp3","2","","","","","","","","","","","","","","","","","","","","","",""
"html-button-response","209","864107","0.0-6.0-1.0-2.0","2","0","ua9662navqolqxx","","21146","","<p>You may take a short break if you wish.</p>","0","","","","","","","","","","","","","","","","","","","","","","","","","","","","","","","","",""
"html-keyboard-response","210","865109","0.0-6.0-1.0-3.0","2","0","ua9662navqolqxx","","null","","<p style=""font-size: 40px;"">+</p>","","null","","","","","","","","","","","","","","","","","","","","","","","","","","","","","","","",""
"html-keyboard-response","211","1050119","0.0-6.0-1.0-4.0","2","0","ua9662navqolqxx","","null","","","","null","","","SL-TRAIN","","","0","515.6000000089407","709.1000000089407","sounds/B/TRAIN/SEQ__12.mp3","5","","","","","","","","","","","","","","","","","","","","","",""
"html-button-response","212","1053935","0.0-6.0-1.0-5.0","2","0","ua9662navqolqxx","","3813.5","","<p>You may take a short break if you wish.</p>","0","","","","","","","","","","","","","","","","","","","","","","","","","","","","","","","","",""
"html-keyboard-response","213","1054936","0.0-6.0-1.0-6.0","2","0","ua9662navqolqxx","","null","","<p style=""font-size: 40px;"">+</p>","","null","","","","","","","","","","","","","","","","","","","","","","","","","","","","","","","",""
"html-keyboard-response","214","1239944","0.0-6.0-1.0-7.0","2","0","ua9662navqolqxx","","null","","","","null","","","SL-TRAIN","","","0","602.8999999910593","459.19999998807907","sounds/B/TRAIN/SEQ__03.mp3","6","","","","","","","","","","","","","","","","","","","","","",""
"html-button-response","215","1242944","0.0-6.0-1.0-8.0","2","0","ua9662navqolqxx","","2997.8999999910593","","<p>You may take a short break if you wish.</p>","0","","","","","","","","","","","","","","","","","","","","","","","","","","","","","","","","",""
"html-keyboard-response","216","1243945","0.0-6.0-1.0-9.0","2","0","ua9662navqolqxx","","null","","<p style=""font-size: 40px;"">+</p>","","null","","","","","","","","","","","","","","","","","","","","","","","","","","","","","","","",""
"html-keyboard-response","217","1428950","0.0-6.0-1.0-10.0","2","0","ua9662navqolqxx","","null","","","","null","","","SL-TRAIN","","","0","531.7000000029802","532.1000000089407","sounds/B/TRAIN/SEQ__04.mp3","11","","","","","","","","","","","","","","","","","","","","","",""
"html-button-response","218","1432237","0.0-6.0-1.0-11.0","2","0","ua9662navqolqxx","","3284.2999999970198","","<p>You may take a short break if you wish.</p>","0","","","","","","","","","","","","","","","","","","","","","","","","","","","","","","","","",""
"html-button-response","219","1450521","0.0-7.0-0.0","2","0","ua9662navqolqxx","","18283","","<p>Welcome to the second part of the study. This is a <u>familiarity task</u>.</p><p>You will now hear short sounds and will be asked to rate how familiar they sound to you <b>based on what you heard in the previous part of the study</b>.</p><p>You will rate 12 sounds in total.</p>","0","","","","","","","","","","","","","","","","","","","","","","","","","","","","","","","","",""
"html-keyboard-response","220","1451522","0.0-7.0-1.0-0.0","2","0","ua9662navqolqxx","","null","","","","null","","","","","","","","","","","","","","","","","","","","","","","","","","","","","","","",""
"audio-keyboard-response","221","1452535","0.0-7.0-1.0-1.0","2","0","ua9662navqolqxx","","null","","sounds/B/FAM/P001.mp3","","null","","","","","","","","","","","","","","","","","","","","","","","","","","","","","","","",""
"html-keyboard-response","222","1457431","0.0-7.0-1.0-2.0","2","0","ua9662navqolqxx","","4375.899999991059","","<p>How familiar did this sound to you?</p><p>1&nbsp;&nbsp;&nbsp;&nbsp;&nbsp;&nbsp;&nbsp;&nbsp;&nbsp;&nbsp;&nbsp;&nbsp;&nbsp;&nbsp;&nbsp;&nbsp;&nbsp;&nbsp;&nbsp;2&nbsp;&nbsp;&nbsp;&nbsp;&nbsp;&nbsp;&nbsp;&nbsp;&nbsp;&nbsp;&nbsp;&nbsp;&nbsp;&nbsp;&nbsp;&nbsp;&nbsp;&nbsp;&nbsp;3&nbsp;&nbsp;&nbsp;&nbsp;&nbsp;&nbsp;&nbsp;&nbsp;&nbsp;&nbsp;&nbsp;&nbsp;&nbsp;&nbsp;&nbsp;&nbsp;&nbsp;&nbsp;&nbsp;4</p><p style=""font-size:14px"">Not at all familiar&nbsp;&nbsp;&nbsp;&nbsp;A little familiar&nbsp;&nbsp;&nbsp;Moderately familiar&nbsp;&nbsp;&nbsp;Extremely familiar</p><p>(press the corresponding number on your keyboard)</p>","","52","","","FAM-RESPONSE","","","","","","","","sounds/B/FAM/P001.mp3","partword","","","","","","","","","","","","","","","","","","","",""
"html-keyboard-response","223","1459464","0.0-7.0-1.0-0.1","2","0","ua9662navqolqxx","","null","","","","null","","","","","","","","","","","","","","","","","","","","","","","","","","","","","","","",""
"audio-keyboard-response","224","1460405","0.0-7.0-1.0-1.1","2","0","ua9662navqolqxx","","null","","sounds/B/FAM/W004.mp3","","null","","","","","","","","","","","","","","","","","","","","","","","","","","","","","","","",""
"html-keyboard-response","225","1461382","0.0-7.0-1.0-2.1","2","0","ua9662navqolqxx","","466.90000000596046","","<p>How familiar did this sound to you?</p><p>1&nbsp;&nbsp;&nbsp;&nbsp;&nbsp;&nbsp;&nbsp;&nbsp;&nbsp;&nbsp;&nbsp;&nbsp;&nbsp;&nbsp;&nbsp;&nbsp;&nbsp;&nbsp;&nbsp;2&nbsp;&nbsp;&nbsp;&nbsp;&nbsp;&nbsp;&nbsp;&nbsp;&nbsp;&nbsp;&nbsp;&nbsp;&nbsp;&nbsp;&nbsp;&nbsp;&nbsp;&nbsp;&nbsp;3&nbsp;&nbsp;&nbsp;&nbsp;&nbsp;&nbsp;&nbsp;&nbsp;&nbsp;&nbsp;&nbsp;&nbsp;&nbsp;&nbsp;&nbsp;&nbsp;&nbsp;&nbsp;&nbsp;4</p><p style=""font-size:14px"">Not at all familiar&nbsp;&nbsp;&nbsp;&nbsp;A little familiar&nbsp;&nbsp;&nbsp;Moderately familiar&nbsp;&nbsp;&nbsp;Extremely familiar</p><p>(press the corresponding number on your keyboard)</p>","","52","","","FAM-RESPONSE","","","","","","","","sounds/B/FAM/W004.mp3","word","","","","","","","","","","","","","","","","","","","",""
"html-keyboard-response","226","1463405","0.0-7.0-1.0-0.2","2","0","ua9662navqolqxx","","null","","","","null","","","","","","","","","","","","","","","","","","","","","","","","","","","","","","","",""
"audio-keyboard-response","227","1464355","0.0-7.0-1.0-1.2","2","0","ua9662navqolqxx","","null","","sounds/B/FAM/P002.mp3","","null","","","","","","","","","","","","","","","","","","","","","","","","","","","","","","","",""
"html-keyboard-response","228","1467622","0.0-7.0-1.0-2.2","2","0","ua9662navqolqxx","","2759.5","","<p>How familiar did this sound to you?</p><p>1&nbsp;&nbsp;&nbsp;&nbsp;&nbsp;&nbsp;&nbsp;&nbsp;&nbsp;&nbsp;&nbsp;&nbsp;&nbsp;&nbsp;&nbsp;&nbsp;&nbsp;&nbsp;&nbsp;2&nbsp;&nbsp;&nbsp;&nbsp;&nbsp;&nbsp;&nbsp;&nbsp;&nbsp;&nbsp;&nbsp;&nbsp;&nbsp;&nbsp;&nbsp;&nbsp;&nbsp;&nbsp;&nbsp;3&nbsp;&nbsp;&nbsp;&nbsp;&nbsp;&nbsp;&nbsp;&nbsp;&nbsp;&nbsp;&nbsp;&nbsp;&nbsp;&nbsp;&nbsp;&nbsp;&nbsp;&nbsp;&nbsp;4</p><p style=""font-size:14px"">Not at all familiar&nbsp;&nbsp;&nbsp;&nbsp;A little familiar&nbsp;&nbsp;&nbsp;Moderately familiar&nbsp;&nbsp;&nbsp;Extremely familiar</p><p>(press the corresponding number on your keyboard)</p>","","50","","","FAM-RESPONSE","","","","","","","","sounds/B/FAM/P002.mp3","partword","","","","","","","","","","","","","","","","","","","",""
"html-keyboard-response","229","1469644","0.0-7.0-1.0-0.3","2","0","ua9662navqolqxx","","null","","","","null","","","","","","","","","","","","","","","","","","","","","","","","","","","","","","","",""
"audio-keyboard-response","230","1470595","0.0-7.0-1.0-1.3","2","0","ua9662navqolqxx","","null","","sounds/B/FAM/W002.mp3","","null","","","","","","","","","","","","","","","","","","","","","","","","","","","","","","","",""
"html-keyboard-response","231","1472043","0.0-7.0-1.0-2.3","2","0","ua9662navqolqxx","","938.5","","<p>How familiar did this sound to you?</p><p>1&nbsp;&nbsp;&nbsp;&nbsp;&nbsp;&nbsp;&nbsp;&nbsp;&nbsp;&nbsp;&nbsp;&nbsp;&nbsp;&nbsp;&nbsp;&nbsp;&nbsp;&nbsp;&nbsp;2&nbsp;&nbsp;&nbsp;&nbsp;&nbsp;&nbsp;&nbsp;&nbsp;&nbsp;&nbsp;&nbsp;&nbsp;&nbsp;&nbsp;&nbsp;&nbsp;&nbsp;&nbsp;&nbsp;3&nbsp;&nbsp;&nbsp;&nbsp;&nbsp;&nbsp;&nbsp;&nbsp;&nbsp;&nbsp;&nbsp;&nbsp;&nbsp;&nbsp;&nbsp;&nbsp;&nbsp;&nbsp;&nbsp;4</p><p style=""font-size:14px"">Not at all familiar&nbsp;&nbsp;&nbsp;&nbsp;A little familiar&nbsp;&nbsp;&nbsp;Moderately familiar&nbsp;&nbsp;&nbsp;Extremely familiar</p><p>(press the corresponding number on your keyboard)</p>","","50","","","FAM-RESPONSE","","","","","","","","sounds/B/FAM/W002.mp3","word","","","","","","","","","","","","","","","","","","","",""
"html-keyboard-response","232","1474064","0.0-7.0-1.0-0.4","2","0","ua9662navqolqxx","","null","","","","null","","","","","","","","","","","","","","","","","","","","","","","","","","","","","","","",""
"audio-keyboard-response","233","1475005","0.0-7.0-1.0-1.4","2","0","ua9662navqolqxx","","null","","sounds/B/FAM/N001.mp3","","null","","","","","","","","","","","","","","","","","","","","","","","","","","","","","","","",""
"html-keyboard-response","234","1476380","0.0-7.0-1.0-2.4","2","0","ua9662navqolqxx","","864.2999999970198","","<p>How familiar did this sound to you?</p><p>1&nbsp;&nbsp;&nbsp;&nbsp;&nbsp;&nbsp;&nbsp;&nbsp;&nbsp;&nbsp;&nbsp;&nbsp;&nbsp;&nbsp;&nbsp;&nbsp;&nbsp;&nbsp;&nbsp;2&nbsp;&nbsp;&nbsp;&nbsp;&nbsp;&nbsp;&nbsp;&nbsp;&nbsp;&nbsp;&nbsp;&nbsp;&nbsp;&nbsp;&nbsp;&nbsp;&nbsp;&nbsp;&nbsp;3&nbsp;&nbsp;&nbsp;&nbsp;&nbsp;&nbsp;&nbsp;&nbsp;&nbsp;&nbsp;&nbsp;&nbsp;&nbsp;&nbsp;&nbsp;&nbsp;&nbsp;&nbsp;&nbsp;4</p><p style=""font-size:14px"">Not at all familiar&nbsp;&nbsp;&nbsp;&nbsp;A little familiar&nbsp;&nbsp;&nbsp;Moderately familiar&nbsp;&nbsp;&nbsp;Extremely familiar</p><p>(press the corresponding number on your keyboard)</p>","","52","","","FAM-RESPONSE","","","","","","","","sounds/B/FAM/N001.mp3","nonword","","","","","","","","","","","","","","","","","","","",""
"html-keyboard-response","235","1478400","0.0-7.0-1.0-0.5","2","0","ua9662navqolqxx","","null","","","","null","","","","","","","","","","","","","","","","","","","","","","","","","","","","","","","",""
"audio-keyboard-response","236","1479336","0.0-7.0-1.0-1.5","2","0","ua9662navqolqxx","","null","","sounds/B/FAM/N004.mp3","","null","","","","","","","","","","","","","","","","","","","","","","","","","","","","","","","",""
"html-keyboard-response","237","1479958","0.0-7.0-1.0-2.5","2","0","ua9662navqolqxx","","103.79999999701977","","<p>How familiar did this sound to you?</p><p>1&nbsp;&nbsp;&nbsp;&nbsp;&nbsp;&nbsp;&nbsp;&nbsp;&nbsp;&nbsp;&nbsp;&nbsp;&nbsp;&nbsp;&nbsp;&nbsp;&nbsp;&nbsp;&nbsp;2&nbsp;&nbsp;&nbsp;&nbsp;&nbsp;&nbsp;&nbsp;&nbsp;&nbsp;&nbsp;&nbsp;&nbsp;&nbsp;&nbsp;&nbsp;&nbsp;&nbsp;&nbsp;&nbsp;3&nbsp;&nbsp;&nbsp;&nbsp;&nbsp;&nbsp;&nbsp;&nbsp;&nbsp;&nbsp;&nbsp;&nbsp;&nbsp;&nbsp;&nbsp;&nbsp;&nbsp;&nbsp;&nbsp;4</p><p style=""font-size:14px"">Not at all familiar&nbsp;&nbsp;&nbsp;&nbsp;A little familiar&nbsp;&nbsp;&nbsp;Moderately familiar&nbsp;&nbsp;&nbsp;Extremely familiar</p><p>(press the corresponding number on your keyboard)</p>","","52","","","FAM-RESPONSE","","","","","","","","sounds/B/FAM/N004.mp3","nonword","","","","","","","","","","","","","","","","","","","",""
"html-keyboard-response","238","1481983","0.0-7.0-1.0-0.6","2","0","ua9662navqolqxx","","null","","","","null","","","","","","","","","","","","","","","","","","","","","","","","","","","","","","","",""
"audio-keyboard-response","239","1482925","0.0-7.0-1.0-1.6","2","0","ua9662navqolqxx","","null","","sounds/B/FAM/W003.mp3","","null","","","","","","","","","","","","","","","","","","","","","","","","","","","","","","","",""
"html-keyboard-response","240","1483576","0.0-7.0-1.0-2.6","2","0","ua9662navqolqxx","","131.20000000298023","","<p>How familiar did this sound to you?</p><p>1&nbsp;&nbsp;&nbsp;&nbsp;&nbsp;&nbsp;&nbsp;&nbsp;&nbsp;&nbsp;&nbsp;&nbsp;&nbsp;&nbsp;&nbsp;&nbsp;&nbsp;&nbsp;&nbsp;2&nbsp;&nbsp;&nbsp;&nbsp;&nbsp;&nbsp;&nbsp;&nbsp;&nbsp;&nbsp;&nbsp;&nbsp;&nbsp;&nbsp;&nbsp;&nbsp;&nbsp;&nbsp;&nbsp;3&nbsp;&nbsp;&nbsp;&nbsp;&nbsp;&nbsp;&nbsp;&nbsp;&nbsp;&nbsp;&nbsp;&nbsp;&nbsp;&nbsp;&nbsp;&nbsp;&nbsp;&nbsp;&nbsp;4</p><p style=""font-size:14px"">Not at all familiar&nbsp;&nbsp;&nbsp;&nbsp;A little familiar&nbsp;&nbsp;&nbsp;Moderately familiar&nbsp;&nbsp;&nbsp;Extremely familiar</p><p>(press the corresponding number on your keyboard)</p>","","52","","","FAM-RESPONSE","","","","","","","","sounds/B/FAM/W003.mp3","word","","","","","","","","","","","","","","","","","","","",""
"html-keyboard-response","241","1485599","0.0-7.0-1.0-0.7","2","0","ua9662navqolqxx","","null","","","","null","","","","","","","","","","","","","","","","","","","","","","","","","","","","","","","",""
"audio-keyboard-response","242","1486535","0.0-7.0-1.0-1.7","2","0","ua9662navqolqxx","","null","","sounds/B/FAM/P004.mp3","","null","","","","","","","","","","","","","","","","","","","","","","","","","","","","","","","",""
"html-keyboard-response","243","1487291","0.0-7.0-1.0-2.7","2","0","ua9662navqolqxx","","236.1000000089407","","<p>How familiar did this sound to you?</p><p>1&nbsp;&nbsp;&nbsp;&nbsp;&nbsp;&nbsp;&nbsp;&nbsp;&nbsp;&nbsp;&nbsp;&nbsp;&nbsp;&nbsp;&nbsp;&nbsp;&nbsp;&nbsp;&nbsp;2&nbsp;&nbsp;&nbsp;&nbsp;&nbsp;&nbsp;&nbsp;&nbsp;&nbsp;&nbsp;&nbsp;&nbsp;&nbsp;&nbsp;&nbsp;&nbsp;&nbsp;&nbsp;&nbsp;3&nbsp;&nbsp;&nbsp;&nbsp;&nbsp;&nbsp;&nbsp;&nbsp;&nbsp;&nbsp;&nbsp;&nbsp;&nbsp;&nbsp;&nbsp;&nbsp;&nbsp;&nbsp;&nbsp;4</p><p style=""font-size:14px"">Not at all familiar&nbsp;&nbsp;&nbsp;&nbsp;A little familiar&nbsp;&nbsp;&nbsp;Moderately familiar&nbsp;&nbsp;&nbsp;Extremely familiar</p><p>(press the corresponding number on your keyboard)</p>","","51","","","FAM-RESPONSE","","","","","","","","sounds/B/FAM/P004.mp3","partword","","","","","","","","","","","","","","","","","","","",""
"html-keyboard-response","244","1489324","0.0-7.0-1.0-0.8","2","0","ua9662navqolqxx","","null","","","","null","","","","","","","","","","","","","","","","","","","","","","","","","","","","","","","",""
"audio-keyboard-response","245","1490255","0.0-7.0-1.0-1.8","2","0","ua9662navqolqxx","","null","","sounds/B/FAM/N003.mp3","","null","","","","","","","","","","","","","","","","","","","","","","","","","","","","","","","",""
"html-keyboard-response","246","1493283","0.0-7.0-1.0-2.8","2","0","ua9662navqolqxx","","2518.1000000089407","","<p>How familiar did this sound to you?</p><p>1&nbsp;&nbsp;&nbsp;&nbsp;&nbsp;&nbsp;&nbsp;&nbsp;&nbsp;&nbsp;&nbsp;&nbsp;&nbsp;&nbsp;&nbsp;&nbsp;&nbsp;&nbsp;&nbsp;2&nbsp;&nbsp;&nbsp;&nbsp;&nbsp;&nbsp;&nbsp;&nbsp;&nbsp;&nbsp;&nbsp;&nbsp;&nbsp;&nbsp;&nbsp;&nbsp;&nbsp;&nbsp;&nbsp;3&nbsp;&nbsp;&nbsp;&nbsp;&nbsp;&nbsp;&nbsp;&nbsp;&nbsp;&nbsp;&nbsp;&nbsp;&nbsp;&nbsp;&nbsp;&nbsp;&nbsp;&nbsp;&nbsp;4</p><p style=""font-size:14px"">Not at all familiar&nbsp;&nbsp;&nbsp;&nbsp;A little familiar&nbsp;&nbsp;&nbsp;Moderately familiar&nbsp;&nbsp;&nbsp;Extremely familiar</p><p>(press the corresponding number on your keyboard)</p>","","49","","","FAM-RESPONSE","","","","","","","","sounds/B/FAM/N003.mp3","nonword","","","","","","","","","","","","","","","","","","","",""
"html-keyboard-response","247","1495303","0.0-7.0-1.0-0.9","2","0","ua9662navqolqxx","","null","","","","null","","","","","","","","","","","","","","","","","","","","","","","","","","","","","","","",""
"audio-keyboard-response","248","1496245","0.0-7.0-1.0-1.9","2","0","ua9662navqolqxx","","null","","sounds/B/FAM/N002.mp3","","null","","","","","","","","","","","","","","","","","","","","","","","","","","","","","","","",""
"html-keyboard-response","249","1497254","0.0-7.0-1.0-2.9","2","0","ua9662navqolqxx","","499.30000001192093","","<p>How familiar did this sound to you?</p><p>1&nbsp;&nbsp;&nbsp;&nbsp;&nbsp;&nbsp;&nbsp;&nbsp;&nbsp;&nbsp;&nbsp;&nbsp;&nbsp;&nbsp;&nbsp;&nbsp;&nbsp;&nbsp;&nbsp;2&nbsp;&nbsp;&nbsp;&nbsp;&nbsp;&nbsp;&nbsp;&nbsp;&nbsp;&nbsp;&nbsp;&nbsp;&nbsp;&nbsp;&nbsp;&nbsp;&nbsp;&nbsp;&nbsp;3&nbsp;&nbsp;&nbsp;&nbsp;&nbsp;&nbsp;&nbsp;&nbsp;&nbsp;&nbsp;&nbsp;&nbsp;&nbsp;&nbsp;&nbsp;&nbsp;&nbsp;&nbsp;&nbsp;4</p><p style=""font-size:14px"">Not at all familiar&nbsp;&nbsp;&nbsp;&nbsp;A little familiar&nbsp;&nbsp;&nbsp;Moderately familiar&nbsp;&nbsp;&nbsp;Extremely familiar</p><p>(press the corresponding number on your keyboard)</p>","","50","","","FAM-RESPONSE","","","","","","","","sounds/B/FAM/N002.mp3","nonword","","","","","","","","","","","","","","","","","","","",""
"html-keyboard-response","250","1499268","0.0-7.0-1.0-0.10","2","0","ua9662navqolqxx","","null","","","","null","","","","","","","","","","","","","","","","","","","","","","","","","","","","","","","",""
"audio-keyboard-response","251","1500206","0.0-7.0-1.0-1.10","2","0","ua9662navqolqxx","","null","","sounds/B/FAM/W001.mp3","","null","","","","","","","","","","","","","","","","","","","","","","","","","","","","","","","",""
"html-keyboard-response","252","1503038","0.0-7.0-1.0-2.10","2","0","ua9662navqolqxx","","2312.2999999970198","","<p>How familiar did this sound to you?</p><p>1&nbsp;&nbsp;&nbsp;&nbsp;&nbsp;&nbsp;&nbsp;&nbsp;&nbsp;&nbsp;&nbsp;&nbsp;&nbsp;&nbsp;&nbsp;&nbsp;&nbsp;&nbsp;&nbsp;2&nbsp;&nbsp;&nbsp;&nbsp;&nbsp;&nbsp;&nbsp;&nbsp;&nbsp;&nbsp;&nbsp;&nbsp;&nbsp;&nbsp;&nbsp;&nbsp;&nbsp;&nbsp;&nbsp;3&nbsp;&nbsp;&nbsp;&nbsp;&nbsp;&nbsp;&nbsp;&nbsp;&nbsp;&nbsp;&nbsp;&nbsp;&nbsp;&nbsp;&nbsp;&nbsp;&nbsp;&nbsp;&nbsp;4</p><p style=""font-size:14px"">Not at all familiar&nbsp;&nbsp;&nbsp;&nbsp;A little familiar&nbsp;&nbsp;&nbsp;Moderately familiar&nbsp;&nbsp;&nbsp;Extremely familiar</p><p>(press the corresponding number on your keyboard)</p>","","50","","","FAM-RESPONSE","","","","","","","","sounds/B/FAM/W001.mp3","word","","","","","","","","","","","","","","","","","","","",""
"html-keyboard-response","253","1505055","0.0-7.0-1.0-0.11","2","0","ua9662navqolqxx","","null","","","","null","","","","","","","","","","","","","","","","","","","","","","","","","","","","","","","",""
"audio-keyboard-response","254","1506006","0.0-7.0-1.0-1.11","2","0","ua9662navqolqxx","","null","","sounds/B/FAM/P003.mp3","","null","","","","","","","","","","","","","","","","","","","","","","","","","","","","","","","",""
"html-keyboard-response","255","1507237","0.0-7.0-1.0-2.11","2","0","ua9662navqolqxx","","721.7999999970198","","<p>How familiar did this sound to you?</p><p>1&nbsp;&nbsp;&nbsp;&nbsp;&nbsp;&nbsp;&nbsp;&nbsp;&nbsp;&nbsp;&nbsp;&nbsp;&nbsp;&nbsp;&nbsp;&nbsp;&nbsp;&nbsp;&nbsp;2&nbsp;&nbsp;&nbsp;&nbsp;&nbsp;&nbsp;&nbsp;&nbsp;&nbsp;&nbsp;&nbsp;&nbsp;&nbsp;&nbsp;&nbsp;&nbsp;&nbsp;&nbsp;&nbsp;3&nbsp;&nbsp;&nbsp;&nbsp;&nbsp;&nbsp;&nbsp;&nbsp;&nbsp;&nbsp;&nbsp;&nbsp;&nbsp;&nbsp;&nbsp;&nbsp;&nbsp;&nbsp;&nbsp;4</p><p style=""font-size:14px"">Not at all familiar&nbsp;&nbsp;&nbsp;&nbsp;A little familiar&nbsp;&nbsp;&nbsp;Moderately familiar&nbsp;&nbsp;&nbsp;Extremely familiar</p><p>(press the corresponding number on your keyboard)</p>","","50","","","FAM-RESPONSE","","","","","","","","sounds/B/FAM/P003.mp3","partword","","","","","","","","","","","","","","","","","","","",""
"html-button-response","256","1529858","0.0-8.0-0.0","2","0","ua9662navqolqxx","","21602.60000000894","","<p>You will now listen to longer sound sequences.</p><p>Each sound sequence will last about 16 seconds.</p><p>On each trial, you will be given a <u>TARGET SOUND</u>. Your task is to listen very carefully for this sound.</p><p>Every time you hear the <u>TARGET SOUND</u>, you will press the <b>SPACEBAR</b> as quickly and accurately as you can.</p>","0","","","","","","","","","","","","","","","","","","","","","","","","","","","","","","","","",""
"html-button-response","257","1549631","0.0-8.0-1.0","2","0","ua9662navqolqxx","","19504","","<p>It is very important that you make your responses as quickly and accurately as possible.</p><p>To help you make your responses, you will be able to listen to the <u>TARGET SOUND</u> at the beginning of each trial.</p><p>There will be 36 total trials.</p><p><b>Note: This is meant to be a difficult task. We simply want you to try your best.</p>","0","","","","","","","","","","","","","","","","","","","","","","","","","","","","","","","","",""
"html-button-response","258","1552056","0.0-8.0-2.0-0.0","2","0","ua9662navqolqxx","","2169.1000000089407","","<p>Trial 1 of 36</p>","0","","","","","","","","","","","","","","FU","sounds/syllables/fu_SWS.wav","900,4500,7200,11700","1","","","","","","","","","","","","","","","",""
"html-keyboard-response","259","1556704","0.0-8.0-2.0-1.0","2","0","ua9662navqolqxx","","4646.9000000059605","","","","80","","","","","","","","","","","","","FU","","900,4500,7200,11700","1","","","","","","","","","","","","","","","",""
"audio-keyboard-response","260","1557270","0.0-8.0-2.0-2.0-0.0","2","0","ua9662navqolqxx","","null","","sounds/syllables/fu_SWS.wav","","null","","","","","","","","","","","","","","","","","","","","","","","","","","","","","","","",""
"html-keyboard-response","261","1562022","0.0-8.0-2.0-2.0-1.0","2","0","ua9662navqolqxx","","4750.79999999702","","<p>To replay the <u>TARGET SOUND</u>, press P.</p> When you are ready to begin, press SPACEBAR.","","80","","","","","","","","","","","","","","","","","","","","","","","","","","","","","","","",""
"audio-keyboard-response","262","1562850","0.0-8.0-2.0-2.1-0.1","2","0","ua9662navqolqxx","","null","","sounds/syllables/fu_SWS.wav","","null","","","","","","","","","","","","","","","","","","","","","","","","","","","","","","","",""
"html-keyboard-response","263","1563645","0.0-8.0-2.0-2.1-1.1","2","0","ua9662navqolqxx","","793.6999999880791","","<p>To replay the <u>TARGET SOUND</u>, press P.</p> When you are ready to begin, press SPACEBAR.","","80","","","","","","","","","","","","","","","","","","","","","","","","","","","","","","","",""
"audio-keyboard-response","264","1564449","0.0-8.0-2.0-2.2-0.2","2","0","ua9662navqolqxx","","null","","sounds/syllables/fu_SWS.wav","","null","","","","","","","","","","","","","","","","","","","","","","","","","","","","","","","",""
"html-keyboard-response","265","1564583","0.0-8.0-2.0-2.2-1.2","2","0","ua9662navqolqxx","","132.40000000596046","","<p>To replay the <u>TARGET SOUND</u>, press P.</p> When you are ready to begin, press SPACEBAR.","","80","","","","","","","","","","","","","","","","","","","","","","","","","","","","","","","",""
"audio-keyboard-response","266","1565380","0.0-8.0-2.0-2.3-0.3","2","0","ua9662navqolqxx","","null","","sounds/syllables/fu_SWS.wav","","null","","","","","","","","","","","","","","","","","","","","","","","","","","","","","","","",""
"html-keyboard-response","267","1565531","0.0-8.0-2.0-2.3-1.3","2","0","ua9662navqolqxx","","150.6000000089407","","<p>To replay the <u>TARGET SOUND</u>, press P.</p> When you are ready to begin, press SPACEBAR.","","80","","","","","","","","","","","","","","","","","","","","","","","","","","","","","","","",""
"audio-keyboard-response","268","1566339","0.0-8.0-2.0-2.4-0.4","2","0","ua9662navqolqxx","","null","","sounds/syllables/fu_SWS.wav","","null","","","","","","","","","","","","","","","","","","","","","","","","","","","","","","","",""
"html-keyboard-response","269","1569813","0.0-8.0-2.0-2.4-1.4","2","0","ua9662navqolqxx","","3472.7999999970198","","<p>To replay the <u>TARGET SOUND</u>, press P.</p> When you are ready to begin, press SPACEBAR.","","32","","","","","","","","","","","","","","","","","","","","","","","","","","","","","","","",""
"audio-keyboard-response","270","1584780","0.0-8.0-2.0-3.0","2","0","ua9662navqolqxx","","2149","","sounds/B/TD/FU_06_TD.mp3","","32","","","TD_SUMMARY","","","","","","","","","","FU","","900,4500,7200,11700","1","900","4500","7200","11700","null","null","null","321","2153.7000000029802_6799.5_9507.300000011921_12021","5","","","","","",""
"html-button-response","271","1586116","0.0-8.0-2.0-0.1","2","0","ua9662navqolqxx","","1331.699999988079","","<p>Trial 2 of 36</p>","0","","","","","","","","","","","","","","PU","sounds/syllables/pu_SWS.wav","1800,3600,7200,9900","1","","","","","","","","","","","","","","","",""
"html-keyboard-response","272","1589521","0.0-8.0-2.0-1.1","2","0","ua9662navqolqxx","","3404.7999999970198","","","","80","","","","","","","","","","","","","PU","","1800,3600,7200,9900","1","","","","","","","","","","","","","","","",""
"audio-keyboard-response","273","1589820","0.0-8.0-2.0-2.5-0.5","2","0","ua9662navqolqxx","","null","","sounds/syllables/pu_SWS.wav","","null","","","","","","","","","","","","","","","","","","","","","","","","","","","","","","","",""
"html-keyboard-response","274","1590905","0.0-8.0-2.0-2.5-1.5","2","0","ua9662navqolqxx","","1083.4000000059605","","<p>To replay the <u>TARGET SOUND</u>, press P.</p> When you are ready to begin, press SPACEBAR.","","80","","","","","","","","","","","","","","","","","","","","","","","","","","","","","","","",""
"audio-keyboard-response","275","1591710","0.0-8.0-2.0-2.6-0.6","2","0","ua9662navqolqxx","","null","","sounds/syllables/pu_SWS.wav","","null","","","","","","","","","","","","","","","","","","","","","","","","","","","","","","","",""
"html-keyboard-response","276","1593446","0.0-8.0-2.0-2.6-1.6","2","0","ua9662navqolqxx","","1735.0999999940395","","<p>To replay the <u>TARGET SOUND</u>, press P.</p> When you are ready to begin, press SPACEBAR.","","32","","","","","","","","","","","","","","","","","","","","","","","","","","","","","","","",""
"audio-keyboard-response","277","1608410","0.0-8.0-2.0-3.1","2","0","ua9662navqolqxx","","2541","","sounds/B/TD/PU_09_TD.mp3","","80","","","TD_SUMMARY","","","","","","","","","","PU","","1800,3600,7200,9900","1","1800","3600","7200","9900","null","351","null","null","____3279.800000011921_3951_8754.60000000894_14352.60000000894","2","","","","","",""
"html-button-response","278","1609794","0.0-8.0-2.0-0.2","2","0","ua9662navqolqxx","","1381.0999999940395","","<p>Trial 3 of 36</p>","0","","","","","","","","","","","","","","TI","sounds/syllables/ti_SWS.wav","900,2700,5400,10800","1","","","","","","","","","","","","","","","",""
"html-keyboard-response","279","1612557","0.0-8.0-2.0-1.2","2","0","ua9662navqolqxx","","2761.7999999970198","","","","80","","","","","","","","","","","","","TI","","900,2700,5400,10800","1","","","","","","","","","","","","","","","",""
"audio-keyboard-response","280","1612860","0.0-8.0-2.0-2.7-0.7","2","0","ua9662navqolqxx","","null","","sounds/syllables/ti_SWS.wav","","null","","","","","","","","","","","","","","","","","","","","","","","","","","","","","","","",""
"html-keyboard-response","281","1613770","0.0-8.0-2.0-2.7-1.7","2","0","ua9662navqolqxx","","908.5","","<p>To replay the <u>TARGET SOUND</u>, press P.</p> When you are ready to begin, press SPACEBAR.","","80","","","","","","","","","","","","","","","","","","","","","","","","","","","","","","","",""
"audio-keyboard-response","282","1614579","0.0-8.0-2.0-2.8-0.8","2","0","ua9662navqolqxx","","null","","sounds/syllables/ti_SWS.wav","","null","","","","","","","","","","","","","","","","","","","","","","","","","","","","","","","",""
"html-keyboard-response","283","1616071","0.0-8.0-2.0-2.8-1.8","2","0","ua9662navqolqxx","","1490.2999999970198","","<p>To replay the <u>TARGET SOUND</u>, press P.</p> When you are ready to begin, press SPACEBAR.","","32","","","","","","","","","","","","","","","","","","","","","","","","","","","","","","","",""
"audio-keyboard-response","284","1631030","0.0-8.0-2.0-3.2","2","0","ua9662navqolqxx","","1299","","sounds/B/TD/TI_05_TD.mp3","","32","","","TD_SUMMARY","","","","","","","","","","TI","","900,2700,5400,10800","1","900","2700","5400","10800","403.59999999403954","627.7999999970198","null","632.3999999910593","________1303.5999999940395_3327.7999999970198_5576.70000000298_7942.29999999702_11432.39999999106_13250.59999999404","2","","","","","",""
"html-button-response","285","1632900","0.0-8.0-2.0-0.3","2","0","ua9662navqolqxx","","1866.7000000029802","","<p>Trial 4 of 36</p>","0","","","","","","","","","","","","","","KO","sounds/syllables/ko_SWS.wav","1200,3000,7500,9300","2","","","","","","","","","","","","","","","",""
"html-keyboard-response","286","1635896","0.0-8.0-2.0-1.3","2","0","ua9662navqolqxx","","2995.2999999970198","","","","80","","","","","","","","","","","","","KO","","1200,3000,7500,9300","2","","","","","","","","","","","","","","","",""
"audio-keyboard-response","287","1636190","0.0-8.0-2.0-2.9-0.9","2","0","ua9662navqolqxx","","null","","sounds/syllables/ko_SWS.wav","","null","","","","","","","","","","","","","","","","","","","","","","","","","","","","","","","",""
"html-keyboard-response","288","1637415","0.0-8.0-2.0-2.9-1.9","2","0","ua9662navqolqxx","","1223.4000000059605","","<p>To replay the <u>TARGET SOUND</u>, press P.</p> When you are ready to begin, press SPACEBAR.","","32","","","","","","","","","","","","","","","","","","","","","","","","","","","","","","","",""
"audio-keyboard-response","289","1652370","0.0-8.0-2.0-3.3","2","0","ua9662navqolqxx","","1712","","sounds/B/TD/KO_03_TD.mp3","","32","","","TD_SUMMARY","","","","","","","","","","KO","","1200,3000,7500,9300","2","1200","3000","7500","9300","516.4000000059605","462.70000000298023","null","null","______________1716.4000000059605_3462.7000000029802_6321.4000000059605_9397.10000000894_13031.800000011921","1","","","","","",""
"html-button-response","290","1654078","0.0-8.0-2.0-0.4","2","0","ua9662navqolqxx","","1704.7999999970198","","<p>Trial 5 of 36</p>","0","","","","","","","","","","","","","","FU","sounds/syllables/fu_SWS.wav","3600,5400,9000,11700","1","","","","","","","","","","","","","","","",""
"html-keyboard-response","291","1655943","0.0-8.0-2.0-1.4","2","0","ua9662navqolqxx","","1863.5","","","","80","","","","","","","","","","","","","FU","","3600,5400,9000,11700","1","","","","","","","","","","","","","","","",""
"audio-keyboard-response","292","1656249","0.0-8.0-2.0-2.10-0.10","2","0","ua9662navqolqxx","","null","","sounds/syllables/fu_SWS.wav","","null","","","","","","","","","","","","","","","","","","","","","","","","","","","","","","","",""
"html-keyboard-response","293","1656790","0.0-8.0-2.0-2.10-1.10","2","0","ua9662navqolqxx","","539.5","","<p>To replay the <u>TARGET SOUND</u>, press P.</p> When you are ready to begin, press SPACEBAR.","","80","","","","","","","","","","","","","","","","","","","","","","","","","","","","","","","",""
"audio-keyboard-response","294","1657610","0.0-8.0-2.0-2.11-0.11","2","0","ua9662navqolqxx","","null","","sounds/syllables/fu_SWS.wav","","null","","","","","","","","","","","","","","","","","","","","","","","","","","","","","","","",""
"html-keyboard-response","295","1658303","0.0-8.0-2.0-2.11-1.11","2","0","ua9662navqolqxx","","691.7000000029802","","<p>To replay the <u>TARGET SOUND</u>, press P.</p> When you are ready to begin, press SPACEBAR.","","32","","","","","","","","","","","","","","","","","","","","","","","","","","","","","","","",""
"audio-keyboard-response","296","1673269","0.0-8.0-2.0-3.4","2","0","ua9662navqolqxx","","1480","","sounds/B/TD/FU_03_TD.mp3","","32","","","TD_SUMMARY","","","","","","","","","","FU","","3600,5400,9000,11700","1","3600","5400","9000","11700","968.7999999970198","1010.8999999910593","null","null","___________________1482.8999999910593_4568.79999999702_6094.5_6410.899999991059_6980.899999991059_7626.79999999702_10556.89999999106_11248.199999988079_13984.699999988079","2","","","","","",""
"html-button-response","297","1674982","0.0-8.0-2.0-0.5","2","0","ua9662navqolqxx","","1709.7000000029802","","<p>Trial 6 of 36</p>","0","","","","","","","","","","","","","","NI","sounds/syllables/ni_SWS.wav","3000,4800,11100,12900","2","","","","","","","","","","","","","","","",""
"html-keyboard-response","298","1676788","0.0-8.0-2.0-1.5","2","0","ua9662navqolqxx","","1804.5999999940395","","","","80","","","","","","","","","","","","","NI","","3000,4800,11100,12900","2","","","","","","","","","","","","","","","",""
"audio-keyboard-response","299","1677099","0.0-8.0-2.0-2.12-0.12","2","0","ua9662navqolqxx","","null","","sounds/syllables/ni_SWS.wav","","null","","","","","","","","","","","","","","","","","","","","","","","","","","","","","","","",""
"html-keyboard-response","300","1678134","0.0-8.0-2.0-2.12-1.12","2","0","ua9662navqolqxx","","1033.800000011921","","<p>To replay the <u>TARGET SOUND</u>, press P.</p> When you are ready to begin, press SPACEBAR.","","80","","","","","","","","","","","","","","","","","","","","","","","","","","","","","","","",""
"audio-keyboard-response","301","1678948","0.0-8.0-2.0-2.13-0.13","2","0","ua9662navqolqxx","","null","","sounds/syllables/ni_SWS.wav","","null","","","","","","","","","","","","","","","","","","","","","","","","","","","","","","","",""
"html-keyboard-response","302","1680116","0.0-8.0-2.0-2.13-1.13","2","0","ua9662navqolqxx","","1166","","<p>To replay the <u>TARGET SOUND</u>, press P.</p> When you are ready to begin, press SPACEBAR.","","32","","","","","","","","","","","","","","","","","","","","","","","","","","","","","","","",""
"audio-keyboard-response","303","1695079","0.0-8.0-2.0-3.5","2","0","ua9662navqolqxx","","2259","","sounds/B/TD/NI_07_TD.mp3","","32","","","TD_SUMMARY","","","","","","","","","","NI","","3000,4800,11100,12900","2","3000","4800","11100","12900","null","1081.6000000089407","343.6000000089407","null","____________________________2264.800000011921_5881.600000008941_11443.60000000894","2","","","","","",""
"html-button-response","304","1696844","0.0-8.0-2.0-0.6","2","0","ua9662navqolqxx","","1761.4000000059605","","<p>Trial 7 of 36</p>","0","","","","","","","","","","","","","","ME","sounds/syllables/me_SWS.wav","1200,5700,7500,9300","2","","","","","","","","","","","","","","","",""
"html-keyboard-response","305","1699071","0.0-8.0-2.0-1.6","2","0","ua9662navqolqxx","","2225.2999999970198","","","","80","","","","","","","","","","","","","ME","","1200,5700,7500,9300","2","","","","","","","","","","","","","","","",""
"audio-keyboard-response","306","1699378","0.0-8.0-2.0-2.14-0.14","2","0","ua9662navqolqxx","","null","","sounds/syllables/me_SWS.wav","","null","","","","","","","","","","","","","","","","","","","","","","","","","","","","","","","",""
"html-keyboard-response","307","1699751","0.0-8.0-2.0-2.14-1.14","2","0","ua9662navqolqxx","","371.79999999701977","","<p>To replay the <u>TARGET SOUND</u>, press P.</p> When you are ready to begin, press SPACEBAR.","","80","","","","","","","","","","","","","","","","","","","","","","","","","","","","","","","",""
"audio-keyboard-response","308","1700578","0.0-8.0-2.0-2.15-0.15","2","0","ua9662navqolqxx","","null","","sounds/syllables/me_SWS.wav","","null","","","","","","","","","","","","","","","","","","","","","","","","","","","","","","","",""
"html-keyboard-response","309","1700899","0.0-8.0-2.0-2.15-1.15","2","0","ua9662navqolqxx","","320","","<p>To replay the <u>TARGET SOUND</u>, press P.</p> When you are ready to begin, press SPACEBAR.","","32","","","","","","","","","","","","","","","","","","","","","","","","","","","","","","","",""
"audio-keyboard-response","310","1715858","0.0-8.0-2.0-3.6","2","0","ua9662navqolqxx","","1891","","sounds/B/TD/ME_07_TD.mp3","","32","","","TD_SUMMARY","","","","","","","","","","ME","","1200,5700,7500,9300","2","1200","5700","7500","9300","688","870.6000000089407","null","null","_______________________________1888_4234.79999999702_6570.600000008941_9410.70000000298_13330.60000000894","2","","","","","",""
"html-button-response","311","1717202","0.0-8.0-2.0-0.7","2","0","ua9662navqolqxx","","1340.800000011921","","<p>Trial 8 of 36</p>","0","","","","","","","","","","","","","","RU","sounds/syllables/ru_SWS.wav","5100,6900,10500,12300","3","","","","","","","","","","","","","","","",""
"html-keyboard-response","312","1719027","0.0-8.0-2.0-1.7","2","0","ua9662navqolqxx","","1823.5999999940395","","","","80","","","","","","","","","","","","","RU","","5100,6900,10500,12300","3","","","","","","","","","","","","","","","",""
"audio-keyboard-response","313","1719328","0.0-8.0-2.0-2.16-0.16","2","0","ua9662navqolqxx","","null","","sounds/syllables/ru_SWS.wav","","null","","","","","","","","","","","","","","","","","","","","","","","","","","","","","","","",""
"html-keyboard-response","314","1719779","0.0-8.0-2.0-2.16-1.16","2","0","ua9662navqolqxx","","449.70000000298023","","<p>To replay the <u>TARGET SOUND</u>, press P.</p> When you are ready to begin, press SPACEBAR.","","80","","","","","","","","","","","","","","","","","","","","","","","","","","","","","","","",""
"audio-keyboard-response","315","1720578","0.0-8.0-2.0-2.17-0.17","2","0","ua9662navqolqxx","","null","","sounds/syllables/ru_SWS.wav","","null","","","","","","","","","","","","","","","","","","","","","","","","","","","","","","","",""
"html-keyboard-response","316","1720863","0.0-8.0-2.0-2.17-1.17","2","0","ua9662navqolqxx","","283.5","","<p>To replay the <u>TARGET SOUND</u>, press P.</p> When you are ready to begin, press SPACEBAR.","","32","","","","","","","","","","","","","","","","","","","","","","","","","","","","","","","",""
"audio-keyboard-response","317","1735819","0.0-8.0-2.0-3.7","2","0","ua9662navqolqxx","","3101","","sounds/B/TD/RU_08_TD.mp3","","32","","","TD_SUMMARY","","","","","","","","","","RU","","5100,6900,10500,12300","3","5100","6900","10500","12300","null","968","null","663.8999999910593","____________________________________3103.5_6868.699999988079_7868_10485_12963.89999999106","2","","","","","",""
"html-button-response","318","1737077","0.0-8.0-2.0-0.8","2","0","ua9662navqolqxx","","1255.4000000059605","","<p>Trial 9 of 36</p>","0","","","","","","","","","","","","","","TI","sounds/syllables/ti_SWS.wav","900,7200,9000,11700","1","","","","","","","","","","","","","","","",""
"html-keyboard-response","319","1738473","0.0-8.0-2.0-1.8","2","0","ua9662navqolqxx","","1394.7999999970198","","","","80","","","","","","","","","","","","","TI","","900,7200,9000,11700","1","","","","","","","","","","","","","","","",""
"audio-keyboard-response","320","1738779","0.0-8.0-2.0-2.18-0.18","2","0","ua9662navqolqxx","","null","","sounds/syllables/ti_SWS.wav","","null","","","","","","","","","","","","","","","","","","","","","","","","","","","","","","","",""
"html-keyboard-response","321","1740080","0.0-8.0-2.0-2.18-1.18","2","0","ua9662navqolqxx","","1299.300000011921","","<p>To replay the <u>TARGET SOUND</u>, press P.</p> When you are ready to begin, press SPACEBAR.","","80","","","","","","","","","","","","","","","","","","","","","","","","","","","","","","","",""
"audio-keyboard-response","322","1740889","0.0-8.0-2.0-2.19-0.19","2","0","ua9662navqolqxx","","null","","sounds/syllables/ti_SWS.wav","","null","","","","","","","","","","","","","","","","","","","","","","","","","","","","","","","",""
"html-keyboard-response","323","1741963","0.0-8.0-2.0-2.19-1.19","2","0","ua9662navqolqxx","","1072.2999999970198","","<p>To replay the <u>TARGET SOUND</u>, press P.</p> When you are ready to begin, press SPACEBAR.","","32","","","","","","","","","","","","","","","","","","","","","","","","","","","","","","","",""
"audio-keyboard-response","324","1756919","0.0-8.0-2.0-3.8","2","0","ua9662navqolqxx","","2029","","sounds/B/TD/TI_04_TD.mp3","","32","","","TD_SUMMARY","","","","","","","","","","TI","","900,7200,9000,11700","1","900","7200","9000","11700","1134.699999988079","224.29999999701977","null","null","_________________________________________2034.699999988079_4571.5999999940395_7424.29999999702_8869.09999999404_10351.5_13103.89999999106","2","","","","","",""
"html-button-response","325","1758267","0.0-8.0-2.0-0.9","2","0","ua9662navqolqxx","","1345.2000000029802","","<p>Trial 10 of 36</p>","0","","","","","","","","","","","","","","SU","sounds/syllables/su_SWS.wav","3900,8400,10200,12000","2","","","","","","","","","","","","","","","",""
"html-keyboard-response","326","1759443","0.0-8.0-2.0-1.9","2","0","ua9662navqolqxx","","1174.6000000089407","","","","80","","","","","","","","","","","","","SU","","3900,8400,10200,12000","2","","","","","","","","","","","","","","","",""
"audio-keyboard-response","327","1759739","0.0-8.0-2.0-2.20-0.20","2","0","ua9662navqolqxx","","null","","sounds/syllables/su_SWS.wav","","null","","","","","","","","","","","","","","","","","","","","","","","","","","","","","","","",""
"html-keyboard-response","328","1761467","0.0-8.0-2.0-2.20-1.20","2","0","ua9662navqolqxx","","1726.5","","<p>To replay the <u>TARGET SOUND</u>, press P.</p> When you are ready to begin, press SPACEBAR.","","80","","","","","","","","","","","","","","","","","","","","","","","","","","","","","","","",""
"audio-keyboard-response","329","1762269","0.0-8.0-2.0-2.21-0.21","2","0","ua9662navqolqxx","","null","","sounds/syllables/su_SWS.wav","","null","","","","","","","","","","","","","","","","","","","","","","","","","","","","","","","",""
"html-keyboard-response","330","1762562","0.0-8.0-2.0-2.21-1.21","2","0","ua9662navqolqxx","","292.40000000596046","","<p>To replay the <u>TARGET SOUND</u>, press P.</p> When you are ready to begin, press SPACEBAR.","","32","","","","","","","","","","","","","","","","","","","","","","","","","","","","","","","",""
"audio-keyboard-response","331","1777529","0.0-8.0-2.0-3.9","2","0","ua9662navqolqxx","","3651","","sounds/B/TD/SU_06_TD.mp3","","32","","","TD_SUMMARY","","","","","","","","","","SU","","3900,8400,10200,12000","2","3900","8400","10200","12000","null","null","null","985.6999999880791","_______________________________________________3654.2999999970198_7240.0999999940395_9960.79999999702_12985.699999988079","2","","","","","",""
"html-button-response","332","1778967","0.0-8.0-2.0-0.10","2","0","ua9662navqolqxx","","1434.5","","<p>Trial 11 of 36</p>","0","","","","","","","","","","","","","","RE","sounds/syllables/re_SWS.wav","6000,7800,9600,13200","3","","","","","","","","","","","","","","","",""
"html-keyboard-response","333","1781388","0.0-8.0-2.0-1.10","2","0","ua9662navqolqxx","","2419.7000000029802","","","","80","","","","","","","","","","","","","RE","","6000,7800,9600,13200","3","","","","","","","","","","","","","","","",""
"audio-keyboard-response","334","1781699","0.0-8.0-2.0-2.22-0.22","2","0","ua9662navqolqxx","","null","","sounds/syllables/re_SWS.wav","","null","","","","","","","","","","","","","","","","","","","","","","","","","","","","","","","",""
"html-keyboard-response","335","1782613","0.0-8.0-2.0-2.22-1.22","2","0","ua9662navqolqxx","","913.4000000059605","","<p>To replay the <u>TARGET SOUND</u>, press P.</p> When you are ready to begin, press SPACEBAR.","","80","","","","","","","","","","","","","","","","","","","","","","","","","","","","","","","",""
"audio-keyboard-response","336","1783419","0.0-8.0-2.0-2.23-0.23","2","0","ua9662navqolqxx","","null","","sounds/syllables/re_SWS.wav","","null","","","","","","","","","","","","","","","","","","","","","","","","","","","","","","","",""
"html-keyboard-response","337","1783712","0.0-8.0-2.0-2.23-1.23","2","0","ua9662navqolqxx","","291.79999999701977","","<p>To replay the <u>TARGET SOUND</u>, press P.</p> When you are ready to begin, press SPACEBAR.","","32","","","","","","","","","","","","","","","","","","","","","","","","","","","","","","","",""
