"trial_type","trial_index","time_elapsed","internal_node_id","counterbalance","lang_instruct","ParticipantID","view_history","rt","url","stimulus","button_pressed","key_press","correctRESP","correct","designation","location","correctanswer","timeouts","pause_rt01","pause_rt02","train_file","numKeyPress","sound","fam_type","SYLLABLE","EXEMPLAR","TD_LOCS","TD_TYPE","TDLOC_01","TDLOC_02","TDLOC_03","TDLOC_04","TD_RT_01","TD_RT_02","TD_RT_03","TD_RT_04","TD_SUBJ_RTs","number_of_plays","responses","slider_start","response","question_order","syllable","syllable_type"
"pavlovia","0","2","0.0-0.0","3","0","15eelkcf6287mft","","","","","","","","","","","","","","","","","","","","","","","","","","","","","","","","","","","","","",""
"instructions","1","102875","0.0-1.0","3","0","15eelkcf6287mft","[{""page_index"":0,""viewing_time"":3543.1000000089407},{""page_index"":1,""viewing_time"":99325.89999999106}]","102871.70000000298","","","","","","","","","","","","","","","","","","","","","","","","","","","","","","","","","","","",""
"external-html","2","107681","0.0-2.0","3","0","15eelkcf6287mft","","4461.399999991059","consent/consent.html","","","","","","","","","","","","","","","","","","","","","","","","","","","","","","","","","","",""
"html-button-response","3","113453","0.0-3.0-0.0-0.0","3","0","15eelkcf6287mft","","5768.5","","<p>Welcome to the study. You will first complete a short volume calibration and headphone check.</p><p>Please make sure you are in a quiet listening environment, that you are wearing headphones, and that your computer's volume is turned on.<p></p>","0","","","","","","","","","","","","","","","","","","","","","","","","","","","","","","","","",""
"html-button-response","4","118987","0.0-3.0-0.0-1.0","3","0","15eelkcf6287mft","","5280.100000008941","","<p>The volume calibration will be first.</p><p>You will hear a thirty-second noise. Please adjust your computer's volume so that this noise is being presented at a comfortable level.<p></p>","0","","","","","","","","","","","","","","","","","","","","","","","","","","","","","","","","",""
"audio-button-response","5","124957","0.0-3.0-0.0-2.0","3","0","15eelkcf6287mft","","5637","","audCalib/volumetest.mp3","0","","","","","","","","","","","","","","","","","","","","","","","","","","","","","","","","",""
"html-button-response","6","139898","0.0-3.0-1.0-0.0","3","0","15eelkcf6287mft","","14938.5","","<p>You will now complete a short headphone check.</p><p>On each trial, you will hear three tones. One of these tones will be quieter than the others. Your task is to identify whether the quiet tone occured first, second, or third.</p><p>There are six trials in total.<p></p>","0","","","","","","","","","","","","","","","","","","","","","","","","","","","","","","","","",""
"html-keyboard-response","7","140656","0.0-3.0-1.0-1.0-0.0","3","0","15eelkcf6287mft","","null","","<div style=""font-size:60px;"">+</div>","","null","","","","","","","","","","","","","","","","","","","","","","","","","","","","","","","",""
"audio-button-response","8","145852","0.0-3.0-1.0-1.0-1.0","3","0","15eelkcf6287mft","","5195","","audCalib/t2_2.mp3","1","","1","1","headphone-test","","","","","","","","","","","","","","","","","","","","","","","","","","","","",""
"html-keyboard-response","9","146613","0.0-3.0-1.0-1.0-0.1","3","0","15eelkcf6287mft","","null","","<div style=""font-size:60px;"">+</div>","","null","","","","","","","","","","","","","","","","","","","","","","","","","","","","","","","",""
"audio-button-response","10","151367","0.0-3.0-1.0-1.0-1.1","3","0","15eelkcf6287mft","","4752","","audCalib/t1_1.mp3","0","","0","1","headphone-test","","","","","","","","","","","","","","","","","","","","","","","","","","","","",""
"html-keyboard-response","11","152122","0.0-3.0-1.0-1.0-0.2","3","0","15eelkcf6287mft","","null","","<div style=""font-size:60px;"">+</div>","","null","","","","","","","","","","","","","","","","","","","","","","","","","","","","","","","",""
"audio-button-response","12","156912","0.0-3.0-1.0-1.0-1.2","3","0","15eelkcf6287mft","","4789","","audCalib/t2_1.mp3","1","","1","1","headphone-test","","","","","","","","","","","","","","","","","","","","","","","","","","","","",""
"html-keyboard-response","13","157669","0.0-3.0-1.0-1.0-0.3","3","0","15eelkcf6287mft","","null","","<div style=""font-size:60px;"">+</div>","","null","","","","","","","","","","","","","","","","","","","","","","","","","","","","","","","",""
"audio-button-response","14","162345","0.0-3.0-1.0-1.0-1.3","3","0","15eelkcf6287mft","","4672","","audCalib/t1_2.mp3","0","","0","1","headphone-test","","","","","","","","","","","","","","","","","","","","","","","","","","","","",""
"html-keyboard-response","15","163099","0.0-3.0-1.0-1.0-0.4","3","0","15eelkcf6287mft","","null","","<div style=""font-size:60px;"">+</div>","","null","","","","","","","","","","","","","","","","","","","","","","","","","","","","","","","",""
"audio-button-response","16","168040","0.0-3.0-1.0-1.0-1.4","3","0","15eelkcf6287mft","","4939","","audCalib/t3_2.mp3","2","","2","1","headphone-test","","","","","","","","","","","","","","","","","","","","","","","","","","","","",""
"html-keyboard-response","17","168799","0.0-3.0-1.0-1.0-0.5","3","0","15eelkcf6287mft","","null","","<div style=""font-size:60px;"">+</div>","","null","","","","","","","","","","","","","","","","","","","","","","","","","","","","","","","",""
"audio-button-response","18","173201","0.0-3.0-1.0-1.0-1.5","3","0","15eelkcf6287mft","","4400","","audCalib/t3_1.mp3","2","","2","1","headphone-test","","","","","","","","","","","","","","","","","","","","","","","","","","","","",""
"html-button-response","19","175704","0.0-3.0-2.0","3","0","15eelkcf6287mft","","2248.7000000029802","","<p>The volume calibration and headphone check are now complete.</p>","0","","","","","","","","","","","","","","","","","","","","","","","","","","","","","","","","",""
"instructions","20","218863","0.0-4.0-0.0","3","0","15eelkcf6287mft","[{""page_index"":0,""viewing_time"":21535.20000000298},{""page_index"":1,""viewing_time"":12443},{""page_index"":2,""viewing_time"":9178.40000000596}]","43157.10000000894","","","","","","","","","","","","","","","","","","","","","","","","","","","","","","","","","","","",""
"audio-keyboard-response","21","219236","0.0-4.0-1.0-0.0","3","0","15eelkcf6287mft","","null","","sounds/induction/left_rev/re_SWS.wav","","null","","","","","","","","","","","","","","","","","","","","","","","","","","","","","","","",""
"html-button-response","22","220670","0.0-4.0-1.0-1.0","3","0","15eelkcf6287mft","","1432","","Was the sound coming from the left or the right?","0","","","1","INDUCTION-JUDGMENT","left","0","","","","","","","","","","","","","","","","","","","","","","","","","","",""
"html-keyboard-response","23","221677","0.0-4.0-1.0-2.0","3","0","15eelkcf6287mft","","null","","<p style=""color:#054d00;""><b>Correct!</b></p>","","null","","","","","","","","","","","","","","","","","","","","","","","","","","","","","","","",""
"audio-keyboard-response","24","222484","0.0-4.0-1.0-0.1","3","0","15eelkcf6287mft","","null","","sounds/induction/right_rev/fe_SWS.wav","","null","","","","","","","","","","","","","","","","","","","","","","","","","","","","","","","",""
"html-button-response","25","223215","0.0-4.0-1.0-1.1","3","0","15eelkcf6287mft","","729","","Was the sound coming from the left or the right?","1","","","1","INDUCTION-JUDGMENT","right","1","","","","","","","","","","","","","","","","","","","","","","","","","","",""
"html-keyboard-response","26","224217","0.0-4.0-1.0-2.1","3","0","15eelkcf6287mft","","null","","<p style=""color:#054d00;""><b>Correct!</b></p>","","null","","","","","","","","","","","","","","","","","","","","","","","","","","","","","","","",""
"audio-keyboard-response","27","225023","0.0-4.0-1.0-0.2","3","0","15eelkcf6287mft","","null","","sounds/induction/right_rev/ko_SWS.wav","","null","","","","","","","","","","","","","","","","","","","","","","","","","","","","","","","",""
"html-button-response","28","225888","0.0-4.0-1.0-1.2","3","0","15eelkcf6287mft","","864.2000000029802","","Was the sound coming from the left or the right?","1","","","1","INDUCTION-JUDGMENT","right","1","","","","","","","","","","","","","","","","","","","","","","","","","","",""
"html-keyboard-response","29","226890","0.0-4.0-1.0-2.2","3","0","15eelkcf6287mft","","null","","<p style=""color:#054d00;""><b>Correct!</b></p>","","null","","","","","","","","","","","","","","","","","","","","","","","","","","","","","","","",""
"audio-keyboard-response","30","227695","0.0-4.0-1.0-0.3","3","0","15eelkcf6287mft","","null","","sounds/induction/right_rev/ru_SWS.wav","","null","","","","","","","","","","","","","","","","","","","","","","","","","","","","","","","",""
"html-button-response","31","228408","0.0-4.0-1.0-1.3","3","0","15eelkcf6287mft","","711.7999999970198","","Was the sound coming from the left or the right?","1","","","1","INDUCTION-JUDGMENT","right","1","","","","","","","","","","","","","","","","","","","","","","","","","","",""
"html-keyboard-response","32","229412","0.0-4.0-1.0-2.3","3","0","15eelkcf6287mft","","null","","<p style=""color:#054d00;""><b>Correct!</b></p>","","null","","","","","","","","","","","","","","","","","","","","","","","","","","","","","","","",""
"audio-keyboard-response","33","230217","0.0-4.0-1.0-0.4","3","0","15eelkcf6287mft","","null","","sounds/induction/left_rev/me_SWS.wav","","null","","","","","","","","","","","","","","","","","","","","","","","","","","","","","","","",""
"html-button-response","34","230751","0.0-4.0-1.0-1.4","3","0","15eelkcf6287mft","","530","","Was the sound coming from the left or the right?","0","","","1","INDUCTION-JUDGMENT","left","0","","","","","","","","","","","","","","","","","","","","","","","","","","",""
"html-keyboard-response","35","231757","0.0-4.0-1.0-2.4","3","0","15eelkcf6287mft","","null","","<p style=""color:#054d00;""><b>Correct!</b></p>","","null","","","","","","","","","","","","","","","","","","","","","","","","","","","","","","","",""
"audio-keyboard-response","36","232559","0.0-4.0-1.0-0.5","3","0","15eelkcf6287mft","","null","","sounds/induction/right_rev/ni_SWS.wav","","null","","","","","","","","","","","","","","","","","","","","","","","","","","","","","","","",""
"html-button-response","37","233067","0.0-4.0-1.0-1.5","3","0","15eelkcf6287mft","","506.90000000596046","","Was the sound coming from the left or the right?","1","","","1","INDUCTION-JUDGMENT","right","1","","","","","","","","","","","","","","","","","","","","","","","","","","",""
"html-keyboard-response","38","234069","0.0-4.0-1.0-2.5","3","0","15eelkcf6287mft","","null","","<p style=""color:#054d00;""><b>Correct!</b></p>","","null","","","","","","","","","","","","","","","","","","","","","","","","","","","","","","","",""
"audio-keyboard-response","39","234873","0.0-4.0-1.0-0.6","3","0","15eelkcf6287mft","","null","","sounds/induction/right_rev/re_SWS.wav","","null","","","","","","","","","","","","","","","","","","","","","","","","","","","","","","","",""
"html-button-response","40","235782","0.0-4.0-1.0-1.6","3","0","15eelkcf6287mft","","906.7999999970198","","Was the sound coming from the left or the right?","1","","","1","INDUCTION-JUDGMENT","right","1","","","","","","","","","","","","","","","","","","","","","","","","","","",""
"html-keyboard-response","41","236784","0.0-4.0-1.0-2.6","3","0","15eelkcf6287mft","","null","","<p style=""color:#054d00;""><b>Correct!</b></p>","","null","","","","","","","","","","","","","","","","","","","","","","","","","","","","","","","",""
"audio-keyboard-response","42","237593","0.0-4.0-1.0-0.7","3","0","15eelkcf6287mft","","null","","sounds/induction/right_rev/ge_SWS.wav","","null","","","","","","","","","","","","","","","","","","","","","","","","","","","","","","","",""
"html-button-response","43","238197","0.0-4.0-1.0-1.7","3","0","15eelkcf6287mft","","602.0999999940395","","Was the sound coming from the left or the right?","1","","","1","INDUCTION-JUDGMENT","right","1","","","","","","","","","","","","","","","","","","","","","","","","","","",""
"html-keyboard-response","44","239199","0.0-4.0-1.0-2.7","3","0","15eelkcf6287mft","","null","","<p style=""color:#054d00;""><b>Correct!</b></p>","","null","","","","","","","","","","","","","","","","","","","","","","","","","","","","","","","",""
"audio-keyboard-response","45","240004","0.0-4.0-1.0-0.8","3","0","15eelkcf6287mft","","null","","sounds/induction/right_rev/pu_SWS.wav","","null","","","","","","","","","","","","","","","","","","","","","","","","","","","","","","","",""
"html-button-response","46","240878","0.0-4.0-1.0-1.8","3","0","15eelkcf6287mft","","872.7000000029802","","Was the sound coming from the left or the right?","1","","","1","INDUCTION-JUDGMENT","right","1","","","","","","","","","","","","","","","","","","","","","","","","","","",""
"html-keyboard-response","47","241880","0.0-4.0-1.0-2.8","3","0","15eelkcf6287mft","","null","","<p style=""color:#054d00;""><b>Correct!</b></p>","","null","","","","","","","","","","","","","","","","","","","","","","","","","","","","","","","",""
"audio-keyboard-response","48","242687","0.0-4.0-1.0-0.9","3","0","15eelkcf6287mft","","null","","sounds/induction/right_rev/ko_SWS.wav","","null","","","","","","","","","","","","","","","","","","","","","","","","","","","","","","","",""
"html-button-response","49","243188","0.0-4.0-1.0-1.9","3","0","15eelkcf6287mft","","499.30000001192093","","Was the sound coming from the left or the right?","1","","","1","INDUCTION-JUDGMENT","right","1","","","","","","","","","","","","","","","","","","","","","","","","","","",""
"html-keyboard-response","50","244191","0.0-4.0-1.0-2.9","3","0","15eelkcf6287mft","","null","","<p style=""color:#054d00;""><b>Correct!</b></p>","","null","","","","","","","","","","","","","","","","","","","","","","","","","","","","","","","",""
"audio-keyboard-response","51","244996","0.0-4.0-1.0-0.10","3","0","15eelkcf6287mft","","null","","sounds/induction/left_rev/ti_SWS.wav","","null","","","","","","","","","","","","","","","","","","","","","","","","","","","","","","","",""
"html-button-response","52","245594","0.0-4.0-1.0-1.10","3","0","15eelkcf6287mft","","596.5999999940395","","Was the sound coming from the left or the right?","0","","","1","INDUCTION-JUDGMENT","left","0","","","","","","","","","","","","","","","","","","","","","","","","","","",""
"html-keyboard-response","53","246597","0.0-4.0-1.0-2.10","3","0","15eelkcf6287mft","","null","","<p style=""color:#054d00;""><b>Correct!</b></p>","","null","","","","","","","","","","","","","","","","","","","","","","","","","","","","","","","",""
"audio-keyboard-response","54","247401","0.0-4.0-1.0-0.11","3","0","15eelkcf6287mft","","null","","sounds/induction/left_rev/pu_SWS.wav","","null","","","","","","","","","","","","","","","","","","","","","","","","","","","","","","","",""
"html-button-response","55","247993","0.0-4.0-1.0-1.11","3","0","15eelkcf6287mft","","589.7999999970198","","Was the sound coming from the left or the right?","0","","","1","INDUCTION-JUDGMENT","left","0","","","","","","","","","","","","","","","","","","","","","","","","","","",""
"html-keyboard-response","56","248999","0.0-4.0-1.0-2.11","3","0","15eelkcf6287mft","","null","","<p style=""color:#054d00;""><b>Correct!</b></p>","","null","","","","","","","","","","","","","","","","","","","","","","","","","","","","","","","",""
"audio-keyboard-response","57","249806","0.0-4.0-1.0-0.12","3","0","15eelkcf6287mft","","null","","sounds/induction/left_rev/fu_SWS.wav","","null","","","","","","","","","","","","","","","","","","","","","","","","","","","","","","","",""
"html-button-response","58","250327","0.0-4.0-1.0-1.12","3","0","15eelkcf6287mft","","519.1999999880791","","Was the sound coming from the left or the right?","0","","","1","INDUCTION-JUDGMENT","left","0","","","","","","","","","","","","","","","","","","","","","","","","","","",""
"html-keyboard-response","59","251334","0.0-4.0-1.0-2.12","3","0","15eelkcf6287mft","","null","","<p style=""color:#054d00;""><b>Correct!</b></p>","","null","","","","","","","","","","","","","","","","","","","","","","","","","","","","","","","",""
"audio-keyboard-response","60","252142","0.0-4.0-1.0-0.13","3","0","15eelkcf6287mft","","null","","sounds/induction/left_rev/ni_SWS.wav","","null","","","","","","","","","","","","","","","","","","","","","","","","","","","","","","","",""
"html-button-response","61","252588","0.0-4.0-1.0-1.13","3","0","15eelkcf6287mft","","443.69999998807907","","Was the sound coming from the left or the right?","0","","","1","INDUCTION-JUDGMENT","left","0","","","","","","","","","","","","","","","","","","","","","","","","","","",""
"html-keyboard-response","62","253590","0.0-4.0-1.0-2.13","3","0","15eelkcf6287mft","","null","","<p style=""color:#054d00;""><b>Correct!</b></p>","","null","","","","","","","","","","","","","","","","","","","","","","","","","","","","","","","",""
"audio-keyboard-response","63","254398","0.0-4.0-1.0-0.14","3","0","15eelkcf6287mft","","null","","sounds/induction/right_rev/fu_SWS.wav","","null","","","","","","","","","","","","","","","","","","","","","","","","","","","","","","","",""
"html-button-response","64","254994","0.0-4.0-1.0-1.14","3","0","15eelkcf6287mft","","593.3999999910593","","Was the sound coming from the left or the right?","1","","","1","INDUCTION-JUDGMENT","right","1","","","","","","","","","","","","","","","","","","","","","","","","","","",""
"html-keyboard-response","65","256000","0.0-4.0-1.0-2.14","3","0","15eelkcf6287mft","","null","","<p style=""color:#054d00;""><b>Correct!</b></p>","","null","","","","","","","","","","","","","","","","","","","","","","","","","","","","","","","",""
"audio-keyboard-response","66","256809","0.0-4.0-1.0-0.15","3","0","15eelkcf6287mft","","null","","sounds/induction/right_rev/me_SWS.wav","","null","","","","","","","","","","","","","","","","","","","","","","","","","","","","","","","",""
"html-button-response","67","257295","0.0-4.0-1.0-1.15","3","0","15eelkcf6287mft","","483.79999999701977","","Was the sound coming from the left or the right?","1","","","1","INDUCTION-JUDGMENT","right","1","","","","","","","","","","","","","","","","","","","","","","","","","","",""
"html-keyboard-response","68","258300","0.0-4.0-1.0-2.15","3","0","15eelkcf6287mft","","null","","<p style=""color:#054d00;""><b>Correct!</b></p>","","null","","","","","","","","","","","","","","","","","","","","","","","","","","","","","","","",""
"audio-keyboard-response","69","259108","0.0-4.0-1.0-0.16","3","0","15eelkcf6287mft","","null","","sounds/induction/left_rev/su_SWS.wav","","null","","","","","","","","","","","","","","","","","","","","","","","","","","","","","","","",""
"html-button-response","70","259717","0.0-4.0-1.0-1.16","3","0","15eelkcf6287mft","","605.2999999970198","","Was the sound coming from the left or the right?","0","","","1","INDUCTION-JUDGMENT","left","0","","","","","","","","","","","","","","","","","","","","","","","","","","",""
"html-keyboard-response","71","260723","0.0-4.0-1.0-2.16","3","0","15eelkcf6287mft","","null","","<p style=""color:#054d00;""><b>Correct!</b></p>","","null","","","","","","","","","","","","","","","","","","","","","","","","","","","","","","","",""
"audio-keyboard-response","72","261529","0.0-4.0-1.0-0.17","3","0","15eelkcf6287mft","","null","","sounds/induction/left_rev/ta_SWS.wav","","null","","","","","","","","","","","","","","","","","","","","","","","","","","","","","","","",""
"html-button-response","73","262083","0.0-4.0-1.0-1.17","3","0","15eelkcf6287mft","","552.1999999880791","","Was the sound coming from the left or the right?","0","","","1","INDUCTION-JUDGMENT","left","0","","","","","","","","","","","","","","","","","","","","","","","","","","",""
"html-keyboard-response","74","263087","0.0-4.0-1.0-2.17","3","0","15eelkcf6287mft","","null","","<p style=""color:#054d00;""><b>Correct!</b></p>","","null","","","","","","","","","","","","","","","","","","","","","","","","","","","","","","","",""
"audio-keyboard-response","75","263892","0.0-4.0-1.0-0.18","3","0","15eelkcf6287mft","","null","","sounds/induction/right_rev/ta_SWS.wav","","null","","","","","","","","","","","","","","","","","","","","","","","","","","","","","","","",""
"html-button-response","76","264481","0.0-4.0-1.0-1.18","3","0","15eelkcf6287mft","","588.2999999970198","","Was the sound coming from the left or the right?","1","","","1","INDUCTION-JUDGMENT","right","1","","","","","","","","","","","","","","","","","","","","","","","","","","",""
"html-keyboard-response","77","265485","0.0-4.0-1.0-2.18","3","0","15eelkcf6287mft","","null","","<p style=""color:#054d00;""><b>Correct!</b></p>","","null","","","","","","","","","","","","","","","","","","","","","","","","","","","","","","","",""
"audio-keyboard-response","78","266286","0.0-4.0-1.0-0.19","3","0","15eelkcf6287mft","","null","","sounds/induction/left_rev/su_SWS.wav","","null","","","","","","","","","","","","","","","","","","","","","","","","","","","","","","","",""
"html-button-response","79","266709","0.0-4.0-1.0-1.19","3","0","15eelkcf6287mft","","422.20000000298023","","Was the sound coming from the left or the right?","0","","","1","INDUCTION-JUDGMENT","left","0","","","","","","","","","","","","","","","","","","","","","","","","","","",""
"html-keyboard-response","80","267716","0.0-4.0-1.0-2.19","3","0","15eelkcf6287mft","","null","","<p style=""color:#054d00;""><b>Correct!</b></p>","","null","","","","","","","","","","","","","","","","","","","","","","","","","","","","","","","",""
"audio-keyboard-response","81","268516","0.0-4.0-1.0-0.20","3","0","15eelkcf6287mft","","null","","sounds/induction/right_rev/su_SWS.wav","","null","","","","","","","","","","","","","","","","","","","","","","","","","","","","","","","",""
"html-button-response","82","268897","0.0-4.0-1.0-1.20","3","0","15eelkcf6287mft","","380.40000000596046","","Was the sound coming from the left or the right?","1","","","1","INDUCTION-JUDGMENT","right","1","","","","","","","","","","","","","","","","","","","","","","","","","","",""
"html-keyboard-response","83","269899","0.0-4.0-1.0-2.20","3","0","15eelkcf6287mft","","null","","<p style=""color:#054d00;""><b>Correct!</b></p>","","null","","","","","","","","","","","","","","","","","","","","","","","","","","","","","","","",""
"audio-keyboard-response","84","270707","0.0-4.0-1.0-0.21","3","0","15eelkcf6287mft","","null","","sounds/induction/right_rev/ni_SWS.wav","","null","","","","","","","","","","","","","","","","","","","","","","","","","","","","","","","",""
"html-button-response","85","271255","0.0-4.0-1.0-1.21","3","0","15eelkcf6287mft","","546.2000000029802","","Was the sound coming from the left or the right?","1","","","1","INDUCTION-JUDGMENT","right","1","","","","","","","","","","","","","","","","","","","","","","","","","","",""
"html-keyboard-response","86","272256","0.0-4.0-1.0-2.21","3","0","15eelkcf6287mft","","null","","<p style=""color:#054d00;""><b>Correct!</b></p>","","null","","","","","","","","","","","","","","","","","","","","","","","","","","","","","","","",""
"audio-keyboard-response","87","273060","0.0-4.0-1.0-0.22","3","0","15eelkcf6287mft","","null","","sounds/induction/left_rev/me_SWS.wav","","null","","","","","","","","","","","","","","","","","","","","","","","","","","","","","","","",""
"html-button-response","88","273808","0.0-4.0-1.0-1.22","3","0","15eelkcf6287mft","","747","","Was the sound coming from the left or the right?","0","","","1","INDUCTION-JUDGMENT","left","0","","","","","","","","","","","","","","","","","","","","","","","","","","",""
"html-keyboard-response","89","274810","0.0-4.0-1.0-2.22","3","0","15eelkcf6287mft","","null","","<p style=""color:#054d00;""><b>Correct!</b></p>","","null","","","","","","","","","","","","","","","","","","","","","","","","","","","","","","","",""
"audio-keyboard-response","90","275619","0.0-4.0-1.0-0.23","3","0","15eelkcf6287mft","","null","","sounds/induction/left_rev/re_SWS.wav","","null","","","","","","","","","","","","","","","","","","","","","","","","","","","","","","","",""
"html-button-response","91","276133","0.0-4.0-1.0-1.23","3","0","15eelkcf6287mft","","513.3000000119209","","Was the sound coming from the left or the right?","0","","","1","INDUCTION-JUDGMENT","left","0","","","","","","","","","","","","","","","","","","","","","","","","","","",""
"html-keyboard-response","92","277138","0.0-4.0-1.0-2.23","3","0","15eelkcf6287mft","","null","","<p style=""color:#054d00;""><b>Correct!</b></p>","","null","","","","","","","","","","","","","","","","","","","","","","","","","","","","","","","",""
"audio-keyboard-response","93","277945","0.0-4.0-1.0-0.24","3","0","15eelkcf6287mft","","null","","sounds/induction/left_rev/ta_SWS.wav","","null","","","","","","","","","","","","","","","","","","","","","","","","","","","","","","","",""
"html-button-response","94","278516","0.0-4.0-1.0-1.24","3","0","15eelkcf6287mft","","570","","Was the sound coming from the left or the right?","0","","","1","INDUCTION-JUDGMENT","left","0","","","","","","","","","","","","","","","","","","","","","","","","","","",""
"html-keyboard-response","95","279519","0.0-4.0-1.0-2.24","3","0","15eelkcf6287mft","","null","","<p style=""color:#054d00;""><b>Correct!</b></p>","","null","","","","","","","","","","","","","","","","","","","","","","","","","","","","","","","",""
"audio-keyboard-response","96","280324","0.0-4.0-1.0-0.25","3","0","15eelkcf6287mft","","null","","sounds/induction/right_rev/ti_SWS.wav","","null","","","","","","","","","","","","","","","","","","","","","","","","","","","","","","","",""
"html-button-response","97","284849","0.0-4.0-1.0-1.25","3","0","15eelkcf6287mft","","4524","","Was the sound coming from the left or the right?","0","","","0","INDUCTION-JUDGMENT","right","1","","","","","","","","","","","","","","","","","","","","","","","","","","",""
"html-keyboard-response","98","285853","0.0-4.0-1.0-2.25","3","0","15eelkcf6287mft","","null","","<p style=""color:#690000;""><b>Incorrect!</b></p>","","null","","","","","","","","","","","","","","","","","","","","","","","","","","","","","","","",""
"audio-keyboard-response","99","286659","0.0-4.0-1.0-0.26","3","0","15eelkcf6287mft","","null","","sounds/induction/left_rev/ge_SWS.wav","","null","","","","","","","","","","","","","","","","","","","","","","","","","","","","","","","",""
"html-button-response","100","287199","0.0-4.0-1.0-1.26","3","0","15eelkcf6287mft","","538.2000000029802","","Was the sound coming from the left or the right?","0","","","1","INDUCTION-JUDGMENT","left","0","","","","","","","","","","","","","","","","","","","","","","","","","","",""
"html-keyboard-response","101","288202","0.0-4.0-1.0-2.26","3","0","15eelkcf6287mft","","null","","<p style=""color:#054d00;""><b>Correct!</b></p>","","null","","","","","","","","","","","","","","","","","","","","","","","","","","","","","","","",""
"audio-keyboard-response","102","289011","0.0-4.0-1.0-0.27","3","0","15eelkcf6287mft","","null","","sounds/induction/right_rev/ru_SWS.wav","","null","","","","","","","","","","","","","","","","","","","","","","","","","","","","","","","",""
"html-button-response","103","291377","0.0-4.0-1.0-1.27","3","0","15eelkcf6287mft","","2364","","Was the sound coming from the left or the right?","0","","","0","INDUCTION-JUDGMENT","right","1","","","","","","","","","","","","","","","","","","","","","","","","","","",""
"html-keyboard-response","104","292381","0.0-4.0-1.0-2.27","3","0","15eelkcf6287mft","","null","","<p style=""color:#690000;""><b>Incorrect!</b></p>","","null","","","","","","","","","","","","","","","","","","","","","","","","","","","","","","","",""
"audio-keyboard-response","105","293187","0.0-4.0-1.0-0.28","3","0","15eelkcf6287mft","","null","","sounds/induction/left_rev/ru_SWS.wav","","null","","","","","","","","","","","","","","","","","","","","","","","","","","","","","","","",""
"html-button-response","106","293710","0.0-4.0-1.0-1.28","3","0","15eelkcf6287mft","","521.0999999940395","","Was the sound coming from the left or the right?","0","","","1","INDUCTION-JUDGMENT","left","0","","","","","","","","","","","","","","","","","","","","","","","","","","",""
"html-keyboard-response","107","294716","0.0-4.0-1.0-2.28","3","0","15eelkcf6287mft","","null","","<p style=""color:#054d00;""><b>Correct!</b></p>","","null","","","","","","","","","","","","","","","","","","","","","","","","","","","","","","","",""
"audio-keyboard-response","108","295518","0.0-4.0-1.0-0.29","3","0","15eelkcf6287mft","","null","","sounds/induction/left_rev/ru_SWS.wav","","null","","","","","","","","","","","","","","","","","","","","","","","","","","","","","","","",""
"html-button-response","109","296133","0.0-4.0-1.0-1.29","3","0","15eelkcf6287mft","","613.5999999940395","","Was the sound coming from the left or the right?","0","","","1","INDUCTION-JUDGMENT","left","0","","","","","","","","","","","","","","","","","","","","","","","","","","",""
"html-keyboard-response","110","297138","0.0-4.0-1.0-2.29","3","0","15eelkcf6287mft","","null","","<p style=""color:#054d00;""><b>Correct!</b></p>","","null","","","","","","","","","","","","","","","","","","","","","","","","","","","","","","","",""
"audio-keyboard-response","111","297939","0.0-4.0-1.0-0.30","3","0","15eelkcf6287mft","","null","","sounds/induction/right_rev/re_SWS.wav","","null","","","","","","","","","","","","","","","","","","","","","","","","","","","","","","","",""
"html-button-response","112","298644","0.0-4.0-1.0-1.30","3","0","15eelkcf6287mft","","703.9000000059605","","Was the sound coming from the left or the right?","1","","","1","INDUCTION-JUDGMENT","right","1","","","","","","","","","","","","","","","","","","","","","","","","","","",""
"html-keyboard-response","113","299651","0.0-4.0-1.0-2.30","3","0","15eelkcf6287mft","","null","","<p style=""color:#054d00;""><b>Correct!</b></p>","","null","","","","","","","","","","","","","","","","","","","","","","","","","","","","","","","",""
"audio-keyboard-response","114","300457","0.0-4.0-1.0-0.31","3","0","15eelkcf6287mft","","null","","sounds/induction/left_rev/ni_SWS.wav","","null","","","","","","","","","","","","","","","","","","","","","","","","","","","","","","","",""
"html-button-response","115","301034","0.0-4.0-1.0-1.31","3","0","15eelkcf6287mft","","576.2999999970198","","Was the sound coming from the left or the right?","0","","","1","INDUCTION-JUDGMENT","left","0","","","","","","","","","","","","","","","","","","","","","","","","","","",""
"html-keyboard-response","116","302036","0.0-4.0-1.0-2.31","3","0","15eelkcf6287mft","","null","","<p style=""color:#054d00;""><b>Correct!</b></p>","","null","","","","","","","","","","","","","","","","","","","","","","","","","","","","","","","",""
"audio-keyboard-response","117","302841","0.0-4.0-1.0-0.32","3","0","15eelkcf6287mft","","null","","sounds/induction/left_rev/fe_SWS.wav","","null","","","","","","","","","","","","","","","","","","","","","","","","","","","","","","","",""
"html-button-response","118","303359","0.0-4.0-1.0-1.32","3","0","15eelkcf6287mft","","517.5","","Was the sound coming from the left or the right?","0","","","1","INDUCTION-JUDGMENT","left","0","","","","","","","","","","","","","","","","","","","","","","","","","","",""
"html-keyboard-response","119","304366","0.0-4.0-1.0-2.32","3","0","15eelkcf6287mft","","null","","<p style=""color:#054d00;""><b>Correct!</b></p>","","null","","","","","","","","","","","","","","","","","","","","","","","","","","","","","","","",""
"audio-keyboard-response","120","305171","0.0-4.0-1.0-0.33","3","0","15eelkcf6287mft","","null","","sounds/induction/right_rev/ge_SWS.wav","","null","","","","","","","","","","","","","","","","","","","","","","","","","","","","","","","",""
"html-button-response","121","305700","0.0-4.0-1.0-1.33","3","0","15eelkcf6287mft","","527.7000000029802","","Was the sound coming from the left or the right?","1","","","1","INDUCTION-JUDGMENT","right","1","","","","","","","","","","","","","","","","","","","","","","","","","","",""
"html-keyboard-response","122","306702","0.0-4.0-1.0-2.33","3","0","15eelkcf6287mft","","null","","<p style=""color:#054d00;""><b>Correct!</b></p>","","null","","","","","","","","","","","","","","","","","","","","","","","","","","","","","","","",""
"audio-keyboard-response","123","307507","0.0-4.0-1.0-0.34","3","0","15eelkcf6287mft","","null","","sounds/induction/right_rev/fe_SWS.wav","","null","","","","","","","","","","","","","","","","","","","","","","","","","","","","","","","",""
"html-button-response","124","308001","0.0-4.0-1.0-1.34","3","0","15eelkcf6287mft","","492.5","","Was the sound coming from the left or the right?","1","","","1","INDUCTION-JUDGMENT","right","1","","","","","","","","","","","","","","","","","","","","","","","","","","",""
"html-keyboard-response","125","309007","0.0-4.0-1.0-2.34","3","0","15eelkcf6287mft","","null","","<p style=""color:#054d00;""><b>Correct!</b></p>","","null","","","","","","","","","","","","","","","","","","","","","","","","","","","","","","","",""
"audio-keyboard-response","126","309817","0.0-4.0-1.0-0.35","3","0","15eelkcf6287mft","","null","","sounds/induction/right_rev/fu_SWS.wav","","null","","","","","","","","","","","","","","","","","","","","","","","","","","","","","","","",""
"html-button-response","127","310384","0.0-4.0-1.0-1.35","3","0","15eelkcf6287mft","","566.0999999940395","","Was the sound coming from the left or the right?","1","","","1","INDUCTION-JUDGMENT","right","1","","","","","","","","","","","","","","","","","","","","","","","","","","",""
"html-keyboard-response","128","311388","0.0-4.0-1.0-2.35","3","0","15eelkcf6287mft","","null","","<p style=""color:#054d00;""><b>Correct!</b></p>","","null","","","","","","","","","","","","","","","","","","","","","","","","","","","","","","","",""
"audio-keyboard-response","129","312195","0.0-4.0-1.0-0.36","3","0","15eelkcf6287mft","","null","","sounds/induction/right_rev/su_SWS.wav","","null","","","","","","","","","","","","","","","","","","","","","","","","","","","","","","","",""
"html-button-response","130","312654","0.0-4.0-1.0-1.36","3","0","15eelkcf6287mft","","457","","Was the sound coming from the left or the right?","1","","","1","INDUCTION-JUDGMENT","right","1","","","","","","","","","","","","","","","","","","","","","","","","","","",""
"html-keyboard-response","131","313655","0.0-4.0-1.0-2.36","3","0","15eelkcf6287mft","","null","","<p style=""color:#054d00;""><b>Correct!</b></p>","","null","","","","","","","","","","","","","","","","","","","","","","","","","","","","","","","",""
"audio-keyboard-response","132","314457","0.0-4.0-1.0-0.37","3","0","15eelkcf6287mft","","null","","sounds/induction/left_rev/fe_SWS.wav","","null","","","","","","","","","","","","","","","","","","","","","","","","","","","","","","","",""
"html-button-response","133","314979","0.0-4.0-1.0-1.37","3","0","15eelkcf6287mft","","520.8999999910593","","Was the sound coming from the left or the right?","0","","","1","INDUCTION-JUDGMENT","left","0","","","","","","","","","","","","","","","","","","","","","","","","","","",""
"html-keyboard-response","134","315982","0.0-4.0-1.0-2.37","3","0","15eelkcf6287mft","","null","","<p style=""color:#054d00;""><b>Correct!</b></p>","","null","","","","","","","","","","","","","","","","","","","","","","","","","","","","","","","",""
"audio-keyboard-response","135","316782","0.0-4.0-1.0-0.38","3","0","15eelkcf6287mft","","null","","sounds/induction/right_rev/ti_SWS.wav","","null","","","","","","","","","","","","","","","","","","","","","","","","","","","","","","","",""
"html-button-response","136","317272","0.0-4.0-1.0-1.38","3","0","15eelkcf6287mft","","488.70000000298023","","Was the sound coming from the left or the right?","1","","","1","INDUCTION-JUDGMENT","right","1","","","","","","","","","","","","","","","","","","","","","","","","","","",""
"html-keyboard-response","137","318278","0.0-4.0-1.0-2.38","3","0","15eelkcf6287mft","","null","","<p style=""color:#054d00;""><b>Correct!</b></p>","","null","","","","","","","","","","","","","","","","","","","","","","","","","","","","","","","",""
"audio-keyboard-response","138","319080","0.0-4.0-1.0-0.39","3","0","15eelkcf6287mft","","null","","sounds/induction/left_rev/pu_SWS.wav","","null","","","","","","","","","","","","","","","","","","","","","","","","","","","","","","","",""
"html-button-response","139","320108","0.0-4.0-1.0-1.39","3","0","15eelkcf6287mft","","1026.2999999970198","","Was the sound coming from the left or the right?","0","","","1","INDUCTION-JUDGMENT","left","0","","","","","","","","","","","","","","","","","","","","","","","","","","",""
"html-keyboard-response","140","321111","0.0-4.0-1.0-2.39","3","0","15eelkcf6287mft","","null","","<p style=""color:#054d00;""><b>Correct!</b></p>","","null","","","","","","","","","","","","","","","","","","","","","","","","","","","","","","","",""
"audio-keyboard-response","141","321918","0.0-4.0-1.0-0.40","3","0","15eelkcf6287mft","","null","","sounds/induction/left_rev/ko_SWS.wav","","null","","","","","","","","","","","","","","","","","","","","","","","","","","","","","","","",""
"html-button-response","142","322628","0.0-4.0-1.0-1.40","3","0","15eelkcf6287mft","","708.9000000059605","","Was the sound coming from the left or the right?","0","","","1","INDUCTION-JUDGMENT","left","0","","","","","","","","","","","","","","","","","","","","","","","","","","",""
"html-keyboard-response","143","323634","0.0-4.0-1.0-2.40","3","0","15eelkcf6287mft","","null","","<p style=""color:#054d00;""><b>Correct!</b></p>","","null","","","","","","","","","","","","","","","","","","","","","","","","","","","","","","","",""
"audio-keyboard-response","144","324440","0.0-4.0-1.0-0.41","3","0","15eelkcf6287mft","","null","","sounds/induction/left_rev/ko_SWS.wav","","null","","","","","","","","","","","","","","","","","","","","","","","","","","","","","","","",""
"html-button-response","145","324922","0.0-4.0-1.0-1.41","3","0","15eelkcf6287mft","","479.8999999910593","","Was the sound coming from the left or the right?","0","","","1","INDUCTION-JUDGMENT","left","0","","","","","","","","","","","","","","","","","","","","","","","","","","",""
"html-keyboard-response","146","325923","0.0-4.0-1.0-2.41","3","0","15eelkcf6287mft","","null","","<p style=""color:#054d00;""><b>Correct!</b></p>","","null","","","","","","","","","","","","","","","","","","","","","","","","","","","","","","","",""
"audio-keyboard-response","147","326728","0.0-4.0-1.0-0.42","3","0","15eelkcf6287mft","","null","","sounds/induction/left_rev/fu_SWS.wav","","null","","","","","","","","","","","","","","","","","","","","","","","","","","","","","","","",""
"html-button-response","148","327231","0.0-4.0-1.0-1.42","3","0","15eelkcf6287mft","","501","","Was the sound coming from the left or the right?","0","","","1","INDUCTION-JUDGMENT","left","0","","","","","","","","","","","","","","","","","","","","","","","","","","",""
"html-keyboard-response","149","328232","0.0-4.0-1.0-2.42","3","0","15eelkcf6287mft","","null","","<p style=""color:#054d00;""><b>Correct!</b></p>","","null","","","","","","","","","","","","","","","","","","","","","","","","","","","","","","","",""
"audio-keyboard-response","150","329038","0.0-4.0-1.0-0.43","3","0","15eelkcf6287mft","","null","","sounds/induction/right_rev/pu_SWS.wav","","null","","","","","","","","","","","","","","","","","","","","","","","","","","","","","","","",""
"html-button-response","151","329612","0.0-4.0-1.0-1.43","3","0","15eelkcf6287mft","","572.8999999910593","","Was the sound coming from the left or the right?","1","","","1","INDUCTION-JUDGMENT","right","1","","","","","","","","","","","","","","","","","","","","","","","","","","",""
"html-keyboard-response","152","330614","0.0-4.0-1.0-2.43","3","0","15eelkcf6287mft","","null","","<p style=""color:#054d00;""><b>Correct!</b></p>","","null","","","","","","","","","","","","","","","","","","","","","","","","","","","","","","","",""
"audio-keyboard-response","153","331422","0.0-4.0-1.0-0.44","3","0","15eelkcf6287mft","","null","","sounds/induction/right_rev/me_SWS.wav","","null","","","","","","","","","","","","","","","","","","","","","","","","","","","","","","","",""
"html-button-response","154","331946","0.0-4.0-1.0-1.44","3","0","15eelkcf6287mft","","523","","Was the sound coming from the left or the right?","1","","","1","INDUCTION-JUDGMENT","right","1","","","","","","","","","","","","","","","","","","","","","","","","","","",""
"html-keyboard-response","155","332952","0.0-4.0-1.0-2.44","3","0","15eelkcf6287mft","","null","","<p style=""color:#054d00;""><b>Correct!</b></p>","","null","","","","","","","","","","","","","","","","","","","","","","","","","","","","","","","",""
"audio-keyboard-response","156","333758","0.0-4.0-1.0-0.45","3","0","15eelkcf6287mft","","null","","sounds/induction/left_rev/ge_SWS.wav","","null","","","","","","","","","","","","","","","","","","","","","","","","","","","","","","","",""
"html-button-response","157","334310","0.0-4.0-1.0-1.45","3","0","15eelkcf6287mft","","551.1999999880791","","Was the sound coming from the left or the right?","0","","","1","INDUCTION-JUDGMENT","left","0","","","","","","","","","","","","","","","","","","","","","","","","","","",""
"html-keyboard-response","158","335312","0.0-4.0-1.0-2.45","3","0","15eelkcf6287mft","","null","","<p style=""color:#054d00;""><b>Correct!</b></p>","","null","","","","","","","","","","","","","","","","","","","","","","","","","","","","","","","",""
"audio-keyboard-response","159","336115","0.0-4.0-1.0-0.46","3","0","15eelkcf6287mft","","null","","sounds/induction/right_rev/ta_SWS.wav","","null","","","","","","","","","","","","","","","","","","","","","","","","","","","","","","","",""
"html-button-response","160","336539","0.0-4.0-1.0-1.46","3","0","15eelkcf6287mft","","422.70000000298023","","Was the sound coming from the left or the right?","1","","","1","INDUCTION-JUDGMENT","right","1","","","","","","","","","","","","","","","","","","","","","","","","","","",""
"html-keyboard-response","161","337542","0.0-4.0-1.0-2.46","3","0","15eelkcf6287mft","","null","","<p style=""color:#054d00;""><b>Correct!</b></p>","","null","","","","","","","","","","","","","","","","","","","","","","","","","","","","","","","",""
"audio-keyboard-response","162","338350","0.0-4.0-1.0-0.47","3","0","15eelkcf6287mft","","null","","sounds/induction/left_rev/ti_SWS.wav","","null","","","","","","","","","","","","","","","","","","","","","","","","","","","","","","","",""
"html-button-response","163","338824","0.0-4.0-1.0-1.47","3","0","15eelkcf6287mft","","472.59999999403954","","Was the sound coming from the left or the right?","0","","","1","INDUCTION-JUDGMENT","left","0","","","","","","","","","","","","","","","","","","","","","","","","","","",""
"html-keyboard-response","164","339827","0.0-4.0-1.0-2.47","3","0","15eelkcf6287mft","","null","","<p style=""color:#054d00;""><b>Correct!</b></p>","","null","","","","","","","","","","","","","","","","","","","","","","","","","","","","","","","",""
"html-button-response","165","354786","0.0-5.0-0.0","3","0","15eelkcf6287mft","","14456.800000011921","","<p>Thank you for your answers.</p><p>You will now listen to similar sounds. The main difference is that the sounds will be longer.</p><p>Just as before, you will be asked to judge whether the sound was coming from the left or the right.</p><p>There are 10 of these longer sounds in total.","0","","","","","","","","","","","","","","","","","","","","","","","","","","","","","","","","",""
"audio-keyboard-response","166","357901","0.0-5.0-1.0-0.0","3","0","15eelkcf6287mft","","null","","sounds/sentences/left_rev/14_01_cfSWS.wav","","null","","","","","","","","","","","","","","","","","","","","","","","","","","","","","","","",""
"html-button-response","167","358832","0.0-5.0-1.0-1.0","3","0","15eelkcf6287mft","","928.8000000119209","","Was the sound coming from the left or the right?","0","","","1","INDUCTION-JUDGMENT","left","0","","","","","","","","","","","","","","","","","","","","","","","","","","",""
"html-keyboard-response","168","359838","0.0-5.0-1.0-2.0","3","0","15eelkcf6287mft","","null","","<p style=""color:#054d00;""><b>Correct!</b></p>","","null","","","","","","","","","","","","","","","","","","","","","","","","","","","","","","","",""
"html-button-response","169","362002","0.0-5.0-1.0-3.0","3","0","15eelkcf6287mft","","1658.0999999940395","","<p>Press the button below when you are ready to continue.</p>","0","","","","","","","","","","","","","","","","","","","","","","","","","","","","","","","","",""
"audio-keyboard-response","170","364824","0.0-5.0-1.0-0.1","3","0","15eelkcf6287mft","","null","","sounds/sentences/left_rev/14_02_cfSWS.wav","","null","","","","","","","","","","","","","","","","","","","","","","","","","","","","","","","",""
"html-button-response","171","365720","0.0-5.0-1.0-1.1","3","0","15eelkcf6287mft","","895.2000000029802","","Was the sound coming from the left or the right?","0","","","1","INDUCTION-JUDGMENT","left","0","","","","","","","","","","","","","","","","","","","","","","","","","","",""
"html-keyboard-response","172","366724","0.0-5.0-1.0-2.1","3","0","15eelkcf6287mft","","null","","<p style=""color:#054d00;""><b>Correct!</b></p>","","null","","","","","","","","","","","","","","","","","","","","","","","","","","","","","","","",""
"html-button-response","173","368491","0.0-5.0-1.0-3.1","3","0","15eelkcf6287mft","","1263.3999999910593","","<p>Press the button below when you are ready to continue.</p>","0","","","","","","","","","","","","","","","","","","","","","","","","","","","","","","","","",""
"audio-keyboard-response","174","371235","0.0-5.0-1.0-0.2","3","0","15eelkcf6287mft","","null","","sounds/sentences/right_rev/14_06_cfSWS.wav","","null","","","","","","","","","","","","","","","","","","","","","","","","","","","","","","","",""
"html-button-response","175","371943","0.0-5.0-1.0-1.2","3","0","15eelkcf6287mft","","706.2000000029802","","Was the sound coming from the left or the right?","1","","","1","INDUCTION-JUDGMENT","right","1","","","","","","","","","","","","","","","","","","","","","","","","","","",""
"html-keyboard-response","176","372947","0.0-5.0-1.0-2.2","3","0","15eelkcf6287mft","","null","","<p style=""color:#054d00;""><b>Correct!</b></p>","","null","","","","","","","","","","","","","","","","","","","","","","","","","","","","","","","",""
"html-button-response","177","374617","0.0-5.0-1.0-3.2","3","0","15eelkcf6287mft","","1163.2000000029802","","<p>Press the button below when you are ready to continue.</p>","0","","","","","","","","","","","","","","","","","","","","","","","","","","","","","","","","",""
"audio-keyboard-response","178","377347","0.0-5.0-1.0-0.3","3","0","15eelkcf6287mft","","null","","sounds/sentences/right_rev/14_09_cfSWS.wav","","null","","","","","","","","","","","","","","","","","","","","","","","","","","","","","","","",""
"html-button-response","179","378417","0.0-5.0-1.0-1.3","3","0","15eelkcf6287mft","","1068.3999999910593","","Was the sound coming from the left or the right?","1","","","1","INDUCTION-JUDGMENT","right","1","","","","","","","","","","","","","","","","","","","","","","","","","","",""
"html-keyboard-response","180","379421","0.0-5.0-1.0-2.3","3","0","15eelkcf6287mft","","null","","<p style=""color:#054d00;""><b>Correct!</b></p>","","null","","","","","","","","","","","","","","","","","","","","","","","","","","","","","","","",""
"html-button-response","181","381172","0.0-5.0-1.0-3.3","3","0","15eelkcf6287mft","","1248.699999988079","","<p>Press the button below when you are ready to continue.</p>","0","","","","","","","","","","","","","","","","","","","","","","","","","","","","","","","","",""
"audio-keyboard-response","182","384195","0.0-5.0-1.0-0.4","3","0","15eelkcf6287mft","","null","","sounds/sentences/right_rev/14_10_cfSWS.wav","","null","","","","","","","","","","","","","","","","","","","","","","","","","","","","","","","",""
"html-button-response","183","385661","0.0-5.0-1.0-1.4","3","0","15eelkcf6287mft","","1464.7999999970198","","Was the sound coming from the left or the right?","1","","","1","INDUCTION-JUDGMENT","right","1","","","","","","","","","","","","","","","","","","","","","","","","","","",""
"html-keyboard-response","184","386667","0.0-5.0-1.0-2.4","3","0","15eelkcf6287mft","","null","","<p style=""color:#054d00;""><b>Correct!</b></p>","","null","","","","","","","","","","","","","","","","","","","","","","","","","","","","","","","",""
"html-button-response","185","388083","0.0-5.0-1.0-3.4","3","0","15eelkcf6287mft","","909.9000000059605","","<p>Press the button below when you are ready to continue.</p>","0","","","","","","","","","","","","","","","","","","","","","","","","","","","","","","","","",""
"audio-keyboard-response","186","390840","0.0-5.0-1.0-0.5","3","0","15eelkcf6287mft","","null","","sounds/sentences/right_rev/14_08_cfSWS.wav","","null","","","","","","","","","","","","","","","","","","","","","","","","","","","","","","","",""
"html-button-response","187","391616","0.0-5.0-1.0-1.5","3","0","15eelkcf6287mft","","774.7000000029802","","Was the sound coming from the left or the right?","1","","","1","INDUCTION-JUDGMENT","right","1","","","","","","","","","","","","","","","","","","","","","","","","","","",""
"html-keyboard-response","188","392619","0.0-5.0-1.0-2.5","3","0","15eelkcf6287mft","","null","","<p style=""color:#054d00;""><b>Correct!</b></p>","","null","","","","","","","","","","","","","","","","","","","","","","","","","","","","","","","",""
"html-button-response","189","394744","0.0-5.0-1.0-3.5","3","0","15eelkcf6287mft","","1620.4000000059605","","<p>Press the button below when you are ready to continue.</p>","0","","","","","","","","","","","","","","","","","","","","","","","","","","","","","","","","",""
"audio-keyboard-response","190","397634","0.0-5.0-1.0-0.6","3","0","15eelkcf6287mft","","null","","sounds/sentences/right_rev/14_07_cfSWS.wav","","null","","","","","","","","","","","","","","","","","","","","","","","","","","","","","","","",""
"html-button-response","191","398269","0.0-5.0-1.0-1.6","3","0","15eelkcf6287mft","","632.0999999940395","","Was the sound coming from the left or the right?","1","","","1","INDUCTION-JUDGMENT","right","1","","","","","","","","","","","","","","","","","","","","","","","","","","",""
"html-keyboard-response","192","399272","0.0-5.0-1.0-2.6","3","0","15eelkcf6287mft","","null","","<p style=""color:#054d00;""><b>Correct!</b></p>","","null","","","","","","","","","","","","","","","","","","","","","","","","","","","","","","","",""
"html-button-response","193","401007","0.0-5.0-1.0-3.6","3","0","15eelkcf6287mft","","1229","","<p>Press the button below when you are ready to continue.</p>","0","","","","","","","","","","","","","","","","","","","","","","","","","","","","","","","","",""
"audio-keyboard-response","194","404002","0.0-5.0-1.0-0.7","3","0","15eelkcf6287mft","","null","","sounds/sentences/left_rev/14_05_cfSWS.wav","","null","","","","","","","","","","","","","","","","","","","","","","","","","","","","","","","",""
"html-button-response","195","404824","0.0-5.0-1.0-1.7","3","0","15eelkcf6287mft","","820.2000000029802","","Was the sound coming from the left or the right?","0","","","1","INDUCTION-JUDGMENT","left","0","","","","","","","","","","","","","","","","","","","","","","","","","","",""
"html-keyboard-response","196","405830","0.0-5.0-1.0-2.7","3","0","15eelkcf6287mft","","null","","<p style=""color:#054d00;""><b>Correct!</b></p>","","null","","","","","","","","","","","","","","","","","","","","","","","","","","","","","","","",""
"html-button-response","197","407783","0.0-5.0-1.0-3.7","3","0","15eelkcf6287mft","","1451","","<p>Press the button below when you are ready to continue.</p>","0","","","","","","","","","","","","","","","","","","","","","","","","","","","","","","","","",""
"audio-keyboard-response","198","410338","0.0-5.0-1.0-0.8","3","0","15eelkcf6287mft","","null","","sounds/sentences/left_rev/14_04_cfSWS.wav","","null","","","","","","","","","","","","","","","","","","","","","","","","","","","","","","","",""
"html-button-response","199","411153","0.0-5.0-1.0-1.8","3","0","15eelkcf6287mft","","813","","Was the sound coming from the left or the right?","0","","","1","INDUCTION-JUDGMENT","left","0","","","","","","","","","","","","","","","","","","","","","","","","","","",""
"html-keyboard-response","200","412156","0.0-5.0-1.0-2.8","3","0","15eelkcf6287mft","","null","","<p style=""color:#054d00;""><b>Correct!</b></p>","","null","","","","","","","","","","","","","","","","","","","","","","","","","","","","","","","",""
"html-button-response","201","413179","0.0-5.0-1.0-3.8","3","0","15eelkcf6287mft","","519.9000000059605","","<p>Press the button below when you are ready to continue.</p>","0","","","","","","","","","","","","","","","","","","","","","","","","","","","","","","","","",""
"audio-keyboard-response","202","415762","0.0-5.0-1.0-0.9","3","0","15eelkcf6287mft","","null","","sounds/sentences/left_rev/14_03_cfSWS.wav","","null","","","","","","","","","","","","","","","","","","","","","","","","","","","","","","","",""
"html-button-response","203","416404","0.0-5.0-1.0-1.9","3","0","15eelkcf6287mft","","639.5999999940395","","Was the sound coming from the left or the right?","0","","","1","INDUCTION-JUDGMENT","left","0","","","","","","","","","","","","","","","","","","","","","","","","","","",""
"html-keyboard-response","204","417409","0.0-5.0-1.0-2.9","3","0","15eelkcf6287mft","","null","","<p style=""color:#054d00;""><b>Correct!</b></p>","","null","","","","","","","","","","","","","","","","","","","","","","","","","","","","","","","",""
"html-button-response","205","418551","0.0-5.0-1.0-3.9","3","0","15eelkcf6287mft","","638.0999999940395","","<p>Press the button below when you are ready to continue.</p>","0","","","","","","","","","","","","","","","","","","","","","","","","","","","","","","","","",""
"html-keyboard-response","206","437922","0.0-6.0-0.0","3","0","15eelkcf6287mft","","18866.29999999702","","<p>In this part of the study, you will hear sounds similar to those you just heard.</p><p>Please focus on these sounds, as you may be asked questions about them later.</p><p>Occasionally, the sounds will pause for up to two seconds. When this happens, please press SPACEBAR as quickly as you can.</br>This helps ensure that you are paying attention to the sounds.</p><p>This part of the study will take about 12 minutes to complete, and you will be given the opportunity to take a couple of short breaks every few minutes.</p><p><strong>Press SPACEBAR to begin</strong></p>","","32","","","","","","","","","","","","","","","","","","","","","","","","","","","","","","","",""
"html-keyboard-response","207","438925","0.0-6.0-1.0-0.0","3","0","15eelkcf6287mft","","null","","<p style=""font-size: 40px;"">+</p>","","null","","","","","","","","","","","","","","","","","","","","","","","","","","","","","","","",""
"html-keyboard-response","208","623947","0.0-6.0-1.0-1.0","3","0","15eelkcf6287mft","","null","","","","null","","","SL-TRAIN","","","0","974.7000000029802","1343.3999999910593","sounds/C/TRAIN/SEQ__02.mp3","2","","","","","","","","","","","","","","","","","","","","","",""
"html-button-response","209","629597","0.0-6.0-1.0-2.0","3","0","15eelkcf6287mft","","5647","","<p>You may take a short break if you wish.</p>","0","","","","","","","","","","","","","","","","","","","","","","","","","","","","","","","","",""
"html-keyboard-response","210","630603","0.0-6.0-1.0-3.0","3","0","15eelkcf6287mft","","null","","<p style=""font-size: 40px;"">+</p>","","null","","","","","","","","","","","","","","","","","","","","","","","","","","","","","","","",""
"html-keyboard-response","211","815613","0.0-6.0-1.0-4.0","3","0","15eelkcf6287mft","","null","","","","null","","","SL-TRAIN","","","0","1539.5","1275.7000000029802","sounds/C/TRAIN/SEQ__03.mp3","4","","","","","","","","","","","","","","","","","","","","","",""
"html-button-response","212","821682","0.0-6.0-1.0-5.0","3","0","15eelkcf6287mft","","6067.5","","<p>You may take a short break if you wish.</p>","0","","","","","","","","","","","","","","","","","","","","","","","","","","","","","","","","",""
"html-keyboard-response","213","822685","0.0-6.0-1.0-6.0","3","0","15eelkcf6287mft","","null","","<p style=""font-size: 40px;"">+</p>","","null","","","","","","","","","","","","","","","","","","","","","","","","","","","","","","","",""
"html-keyboard-response","214","1007696","0.0-6.0-1.0-7.0","3","0","15eelkcf6287mft","","null","","","","null","","","SL-TRAIN","","","0","1047.5999999940395","1360.9000000059605","sounds/C/TRAIN/SEQ__08.mp3","6","","","","","","","","","","","","","","","","","","","","","",""
"html-button-response","215","1013710","0.0-6.0-1.0-8.0","3","0","15eelkcf6287mft","","6012.79999999702","","<p>You may take a short break if you wish.</p>","0","","","","","","","","","","","","","","","","","","","","","","","","","","","","","","","","",""
"html-keyboard-response","216","1014714","0.0-6.0-1.0-9.0","3","0","15eelkcf6287mft","","null","","<p style=""font-size: 40px;"">+</p>","","null","","","","","","","","","","","","","","","","","","","","","","","","","","","","","","","",""
"html-keyboard-response","217","1199721","0.0-6.0-1.0-10.0","3","0","15eelkcf6287mft","","null","","","","null","","","SL-TRAIN","","","0","1149.6000000089407","1400.7000000029802","sounds/C/TRAIN/SEQ__04.mp3","8","","","","","","","","","","","","","","","","","","","","","",""
"html-button-response","218","1207954","0.0-6.0-1.0-11.0","3","0","15eelkcf6287mft","","8231.5","","<p>You may take a short break if you wish.</p>","0","","","","","","","","","","","","","","","","","","","","","","","","","","","","","","","","",""
"html-button-response","219","1215989","0.0-7.0-0.0","3","0","15eelkcf6287mft","","8033.800000011921","","<p>Welcome to the second part of the study. This is a <u>familiarity task</u>.</p><p>You will now hear short sounds and will be asked to rate how familiar they sound to you <b>based on what you heard in the previous part of the study</b>.</p><p>You will rate 12 sounds in total.</p>","0","","","","","","","","","","","","","","","","","","","","","","","","","","","","","","","","",""
"html-keyboard-response","220","1216994","0.0-7.0-1.0-0.0","3","0","15eelkcf6287mft","","null","","","","null","","","","","","","","","","","","","","","","","","","","","","","","","","","","","","","",""
"audio-keyboard-response","221","1218008","0.0-7.0-1.0-1.0","3","0","15eelkcf6287mft","","null","","sounds/C/FAM/W002.mp3","","null","","","","","","","","","","","","","","","","","","","","","","","","","","","","","","","",""
"html-keyboard-response","222","1222361","0.0-7.0-1.0-2.0","3","0","15eelkcf6287mft","","3848","","<p>How familiar did this sound to you?</p><p>1&nbsp;&nbsp;&nbsp;&nbsp;&nbsp;&nbsp;&nbsp;&nbsp;&nbsp;&nbsp;&nbsp;&nbsp;&nbsp;&nbsp;&nbsp;&nbsp;&nbsp;&nbsp;&nbsp;2&nbsp;&nbsp;&nbsp;&nbsp;&nbsp;&nbsp;&nbsp;&nbsp;&nbsp;&nbsp;&nbsp;&nbsp;&nbsp;&nbsp;&nbsp;&nbsp;&nbsp;&nbsp;&nbsp;3&nbsp;&nbsp;&nbsp;&nbsp;&nbsp;&nbsp;&nbsp;&nbsp;&nbsp;&nbsp;&nbsp;&nbsp;&nbsp;&nbsp;&nbsp;&nbsp;&nbsp;&nbsp;&nbsp;4</p><p style=""font-size:14px"">Not at all familiar&nbsp;&nbsp;&nbsp;&nbsp;A little familiar&nbsp;&nbsp;&nbsp;Moderately familiar&nbsp;&nbsp;&nbsp;Extremely familiar</p><p>(press the corresponding number on your keyboard)</p>","","52","","","FAM-RESPONSE","","","","","","","","sounds/C/FAM/W002.mp3","word","","","","","","","","","","","","","","","","","","","",""
"html-keyboard-response","223","1224363","0.0-7.0-1.0-0.1","3","0","15eelkcf6287mft","","null","","","","null","","","","","","","","","","","","","","","","","","","","","","","","","","","","","","","",""
"audio-keyboard-response","224","1225309","0.0-7.0-1.0-1.1","3","0","15eelkcf6287mft","","null","","sounds/C/FAM/P002.mp3","","null","","","","","","","","","","","","","","","","","","","","","","","","","","","","","","","",""
"html-keyboard-response","225","1231451","0.0-7.0-1.0-2.1","3","0","15eelkcf6287mft","","5638","","<p>How familiar did this sound to you?</p><p>1&nbsp;&nbsp;&nbsp;&nbsp;&nbsp;&nbsp;&nbsp;&nbsp;&nbsp;&nbsp;&nbsp;&nbsp;&nbsp;&nbsp;&nbsp;&nbsp;&nbsp;&nbsp;&nbsp;2&nbsp;&nbsp;&nbsp;&nbsp;&nbsp;&nbsp;&nbsp;&nbsp;&nbsp;&nbsp;&nbsp;&nbsp;&nbsp;&nbsp;&nbsp;&nbsp;&nbsp;&nbsp;&nbsp;3&nbsp;&nbsp;&nbsp;&nbsp;&nbsp;&nbsp;&nbsp;&nbsp;&nbsp;&nbsp;&nbsp;&nbsp;&nbsp;&nbsp;&nbsp;&nbsp;&nbsp;&nbsp;&nbsp;4</p><p style=""font-size:14px"">Not at all familiar&nbsp;&nbsp;&nbsp;&nbsp;A little familiar&nbsp;&nbsp;&nbsp;Moderately familiar&nbsp;&nbsp;&nbsp;Extremely familiar</p><p>(press the corresponding number on your keyboard)</p>","","52","","","FAM-RESPONSE","","","","","","","","sounds/C/FAM/P002.mp3","partword","","","","","","","","","","","","","","","","","","","",""
"html-keyboard-response","226","1233457","0.0-7.0-1.0-0.2","3","0","15eelkcf6287mft","","null","","","","null","","","","","","","","","","","","","","","","","","","","","","","","","","","","","","","",""
"audio-keyboard-response","227","1234403","0.0-7.0-1.0-1.2","3","0","15eelkcf6287mft","","null","","sounds/C/FAM/P003.mp3","","null","","","","","","","","","","","","","","","","","","","","","","","","","","","","","","","",""
"html-keyboard-response","228","1236326","0.0-7.0-1.0-2.2","3","0","15eelkcf6287mft","","1416.8999999910593","","<p>How familiar did this sound to you?</p><p>1&nbsp;&nbsp;&nbsp;&nbsp;&nbsp;&nbsp;&nbsp;&nbsp;&nbsp;&nbsp;&nbsp;&nbsp;&nbsp;&nbsp;&nbsp;&nbsp;&nbsp;&nbsp;&nbsp;2&nbsp;&nbsp;&nbsp;&nbsp;&nbsp;&nbsp;&nbsp;&nbsp;&nbsp;&nbsp;&nbsp;&nbsp;&nbsp;&nbsp;&nbsp;&nbsp;&nbsp;&nbsp;&nbsp;3&nbsp;&nbsp;&nbsp;&nbsp;&nbsp;&nbsp;&nbsp;&nbsp;&nbsp;&nbsp;&nbsp;&nbsp;&nbsp;&nbsp;&nbsp;&nbsp;&nbsp;&nbsp;&nbsp;4</p><p style=""font-size:14px"">Not at all familiar&nbsp;&nbsp;&nbsp;&nbsp;A little familiar&nbsp;&nbsp;&nbsp;Moderately familiar&nbsp;&nbsp;&nbsp;Extremely familiar</p><p>(press the corresponding number on your keyboard)</p>","","51","","","FAM-RESPONSE","","","","","","","","sounds/C/FAM/P003.mp3","partword","","","","","","","","","","","","","","","","","","","",""
"html-keyboard-response","229","1238332","0.0-7.0-1.0-0.3","3","0","15eelkcf6287mft","","null","","","","null","","","","","","","","","","","","","","","","","","","","","","","","","","","","","","","",""
"audio-keyboard-response","230","1239277","0.0-7.0-1.0-1.3","3","0","15eelkcf6287mft","","null","","sounds/C/FAM/P004.mp3","","null","","","","","","","","","","","","","","","","","","","","","","","","","","","","","","","",""
"html-keyboard-response","231","1240329","0.0-7.0-1.0-2.3","3","0","15eelkcf6287mft","","547.1000000089407","","<p>How familiar did this sound to you?</p><p>1&nbsp;&nbsp;&nbsp;&nbsp;&nbsp;&nbsp;&nbsp;&nbsp;&nbsp;&nbsp;&nbsp;&nbsp;&nbsp;&nbsp;&nbsp;&nbsp;&nbsp;&nbsp;&nbsp;2&nbsp;&nbsp;&nbsp;&nbsp;&nbsp;&nbsp;&nbsp;&nbsp;&nbsp;&nbsp;&nbsp;&nbsp;&nbsp;&nbsp;&nbsp;&nbsp;&nbsp;&nbsp;&nbsp;3&nbsp;&nbsp;&nbsp;&nbsp;&nbsp;&nbsp;&nbsp;&nbsp;&nbsp;&nbsp;&nbsp;&nbsp;&nbsp;&nbsp;&nbsp;&nbsp;&nbsp;&nbsp;&nbsp;4</p><p style=""font-size:14px"">Not at all familiar&nbsp;&nbsp;&nbsp;&nbsp;A little familiar&nbsp;&nbsp;&nbsp;Moderately familiar&nbsp;&nbsp;&nbsp;Extremely familiar</p><p>(press the corresponding number on your keyboard)</p>","","52","","","FAM-RESPONSE","","","","","","","","sounds/C/FAM/P004.mp3","partword","","","","","","","","","","","","","","","","","","","",""
"html-keyboard-response","232","1242334","0.0-7.0-1.0-0.4","3","0","15eelkcf6287mft","","null","","","","null","","","","","","","","","","","","","","","","","","","","","","","","","","","","","","","",""
"audio-keyboard-response","233","1243277","0.0-7.0-1.0-1.4","3","0","15eelkcf6287mft","","null","","sounds/C/FAM/W004.mp3","","null","","","","","","","","","","","","","","","","","","","","","","","","","","","","","","","",""
"html-keyboard-response","234","1244236","0.0-7.0-1.0-2.4","3","0","15eelkcf6287mft","","452.70000000298023","","<p>How familiar did this sound to you?</p><p>1&nbsp;&nbsp;&nbsp;&nbsp;&nbsp;&nbsp;&nbsp;&nbsp;&nbsp;&nbsp;&nbsp;&nbsp;&nbsp;&nbsp;&nbsp;&nbsp;&nbsp;&nbsp;&nbsp;2&nbsp;&nbsp;&nbsp;&nbsp;&nbsp;&nbsp;&nbsp;&nbsp;&nbsp;&nbsp;&nbsp;&nbsp;&nbsp;&nbsp;&nbsp;&nbsp;&nbsp;&nbsp;&nbsp;3&nbsp;&nbsp;&nbsp;&nbsp;&nbsp;&nbsp;&nbsp;&nbsp;&nbsp;&nbsp;&nbsp;&nbsp;&nbsp;&nbsp;&nbsp;&nbsp;&nbsp;&nbsp;&nbsp;4</p><p style=""font-size:14px"">Not at all familiar&nbsp;&nbsp;&nbsp;&nbsp;A little familiar&nbsp;&nbsp;&nbsp;Moderately familiar&nbsp;&nbsp;&nbsp;Extremely familiar</p><p>(press the corresponding number on your keyboard)</p>","","52","","","FAM-RESPONSE","","","","","","","","sounds/C/FAM/W004.mp3","word","","","","","","","","","","","","","","","","","","","",""
"html-keyboard-response","235","1246239","0.0-7.0-1.0-0.5","3","0","15eelkcf6287mft","","null","","","","null","","","","","","","","","","","","","","","","","","","","","","","","","","","","","","","",""
"audio-keyboard-response","236","1247181","0.0-7.0-1.0-1.5","3","0","15eelkcf6287mft","","null","","sounds/C/FAM/P001.mp3","","null","","","","","","","","","","","","","","","","","","","","","","","","","","","","","","","",""
"html-keyboard-response","237","1248325","0.0-7.0-1.0-2.5","3","0","15eelkcf6287mft","","640.1000000089407","","<p>How familiar did this sound to you?</p><p>1&nbsp;&nbsp;&nbsp;&nbsp;&nbsp;&nbsp;&nbsp;&nbsp;&nbsp;&nbsp;&nbsp;&nbsp;&nbsp;&nbsp;&nbsp;&nbsp;&nbsp;&nbsp;&nbsp;2&nbsp;&nbsp;&nbsp;&nbsp;&nbsp;&nbsp;&nbsp;&nbsp;&nbsp;&nbsp;&nbsp;&nbsp;&nbsp;&nbsp;&nbsp;&nbsp;&nbsp;&nbsp;&nbsp;3&nbsp;&nbsp;&nbsp;&nbsp;&nbsp;&nbsp;&nbsp;&nbsp;&nbsp;&nbsp;&nbsp;&nbsp;&nbsp;&nbsp;&nbsp;&nbsp;&nbsp;&nbsp;&nbsp;4</p><p style=""font-size:14px"">Not at all familiar&nbsp;&nbsp;&nbsp;&nbsp;A little familiar&nbsp;&nbsp;&nbsp;Moderately familiar&nbsp;&nbsp;&nbsp;Extremely familiar</p><p>(press the corresponding number on your keyboard)</p>","","50","","","FAM-RESPONSE","","","","","","","","sounds/C/FAM/P001.mp3","partword","","","","","","","","","","","","","","","","","","","",""
"html-keyboard-response","238","1250328","0.0-7.0-1.0-0.6","3","0","15eelkcf6287mft","","null","","","","null","","","","","","","","","","","","","","","","","","","","","","","","","","","","","","","",""
"audio-keyboard-response","239","1251271","0.0-7.0-1.0-1.6","3","0","15eelkcf6287mft","","null","","sounds/C/FAM/W001.mp3","","null","","","","","","","","","","","","","","","","","","","","","","","","","","","","","","","",""
"html-keyboard-response","240","1252188","0.0-7.0-1.0-2.6","3","0","15eelkcf6287mft","","412.1000000089407","","<p>How familiar did this sound to you?</p><p>1&nbsp;&nbsp;&nbsp;&nbsp;&nbsp;&nbsp;&nbsp;&nbsp;&nbsp;&nbsp;&nbsp;&nbsp;&nbsp;&nbsp;&nbsp;&nbsp;&nbsp;&nbsp;&nbsp;2&nbsp;&nbsp;&nbsp;&nbsp;&nbsp;&nbsp;&nbsp;&nbsp;&nbsp;&nbsp;&nbsp;&nbsp;&nbsp;&nbsp;&nbsp;&nbsp;&nbsp;&nbsp;&nbsp;3&nbsp;&nbsp;&nbsp;&nbsp;&nbsp;&nbsp;&nbsp;&nbsp;&nbsp;&nbsp;&nbsp;&nbsp;&nbsp;&nbsp;&nbsp;&nbsp;&nbsp;&nbsp;&nbsp;4</p><p style=""font-size:14px"">Not at all familiar&nbsp;&nbsp;&nbsp;&nbsp;A little familiar&nbsp;&nbsp;&nbsp;Moderately familiar&nbsp;&nbsp;&nbsp;Extremely familiar</p><p>(press the corresponding number on your keyboard)</p>","","51","","","FAM-RESPONSE","","","","","","","","sounds/C/FAM/W001.mp3","word","","","","","","","","","","","","","","","","","","","",""
"html-keyboard-response","241","1254195","0.0-7.0-1.0-0.7","3","0","15eelkcf6287mft","","null","","","","null","","","","","","","","","","","","","","","","","","","","","","","","","","","","","","","",""
"audio-keyboard-response","242","1255138","0.0-7.0-1.0-1.7","3","0","15eelkcf6287mft","","null","","sounds/C/FAM/N002.mp3","","null","","","","","","","","","","","","","","","","","","","","","","","","","","","","","","","",""
"html-keyboard-response","243","1256983","0.0-7.0-1.0-2.7","3","0","15eelkcf6287mft","","1340.2000000029802","","<p>How familiar did this sound to you?</p><p>1&nbsp;&nbsp;&nbsp;&nbsp;&nbsp;&nbsp;&nbsp;&nbsp;&nbsp;&nbsp;&nbsp;&nbsp;&nbsp;&nbsp;&nbsp;&nbsp;&nbsp;&nbsp;&nbsp;2&nbsp;&nbsp;&nbsp;&nbsp;&nbsp;&nbsp;&nbsp;&nbsp;&nbsp;&nbsp;&nbsp;&nbsp;&nbsp;&nbsp;&nbsp;&nbsp;&nbsp;&nbsp;&nbsp;3&nbsp;&nbsp;&nbsp;&nbsp;&nbsp;&nbsp;&nbsp;&nbsp;&nbsp;&nbsp;&nbsp;&nbsp;&nbsp;&nbsp;&nbsp;&nbsp;&nbsp;&nbsp;&nbsp;4</p><p style=""font-size:14px"">Not at all familiar&nbsp;&nbsp;&nbsp;&nbsp;A little familiar&nbsp;&nbsp;&nbsp;Moderately familiar&nbsp;&nbsp;&nbsp;Extremely familiar</p><p>(press the corresponding number on your keyboard)</p>","","51","","","FAM-RESPONSE","","","","","","","","sounds/C/FAM/N002.mp3","nonword","","","","","","","","","","","","","","","","","","","",""
"html-keyboard-response","244","1258989","0.0-7.0-1.0-0.8","3","0","15eelkcf6287mft","","null","","","","null","","","","","","","","","","","","","","","","","","","","","","","","","","","","","","","",""
"audio-keyboard-response","245","1259933","0.0-7.0-1.0-1.8","3","0","15eelkcf6287mft","","null","","sounds/C/FAM/W003.mp3","","null","","","","","","","","","","","","","","","","","","","","","","","","","","","","","","","",""
"html-keyboard-response","246","1261014","0.0-7.0-1.0-2.8","3","0","15eelkcf6287mft","","579.0999999940395","","<p>How familiar did this sound to you?</p><p>1&nbsp;&nbsp;&nbsp;&nbsp;&nbsp;&nbsp;&nbsp;&nbsp;&nbsp;&nbsp;&nbsp;&nbsp;&nbsp;&nbsp;&nbsp;&nbsp;&nbsp;&nbsp;&nbsp;2&nbsp;&nbsp;&nbsp;&nbsp;&nbsp;&nbsp;&nbsp;&nbsp;&nbsp;&nbsp;&nbsp;&nbsp;&nbsp;&nbsp;&nbsp;&nbsp;&nbsp;&nbsp;&nbsp;3&nbsp;&nbsp;&nbsp;&nbsp;&nbsp;&nbsp;&nbsp;&nbsp;&nbsp;&nbsp;&nbsp;&nbsp;&nbsp;&nbsp;&nbsp;&nbsp;&nbsp;&nbsp;&nbsp;4</p><p style=""font-size:14px"">Not at all familiar&nbsp;&nbsp;&nbsp;&nbsp;A little familiar&nbsp;&nbsp;&nbsp;Moderately familiar&nbsp;&nbsp;&nbsp;Extremely familiar</p><p>(press the corresponding number on your keyboard)</p>","","51","","","FAM-RESPONSE","","","","","","","","sounds/C/FAM/W003.mp3","word","","","","","","","","","","","","","","","","","","","",""
"html-keyboard-response","247","1263020","0.0-7.0-1.0-0.9","3","0","15eelkcf6287mft","","null","","","","null","","","","","","","","","","","","","","","","","","","","","","","","","","","","","","","",""
"audio-keyboard-response","248","1263965","0.0-7.0-1.0-1.9","3","0","15eelkcf6287mft","","null","","sounds/C/FAM/N004.mp3","","null","","","","","","","","","","","","","","","","","","","","","","","","","","","","","","","",""
"html-keyboard-response","249","1264797","0.0-7.0-1.0-2.9","3","0","15eelkcf6287mft","","330.59999999403954","","<p>How familiar did this sound to you?</p><p>1&nbsp;&nbsp;&nbsp;&nbsp;&nbsp;&nbsp;&nbsp;&nbsp;&nbsp;&nbsp;&nbsp;&nbsp;&nbsp;&nbsp;&nbsp;&nbsp;&nbsp;&nbsp;&nbsp;2&nbsp;&nbsp;&nbsp;&nbsp;&nbsp;&nbsp;&nbsp;&nbsp;&nbsp;&nbsp;&nbsp;&nbsp;&nbsp;&nbsp;&nbsp;&nbsp;&nbsp;&nbsp;&nbsp;3&nbsp;&nbsp;&nbsp;&nbsp;&nbsp;&nbsp;&nbsp;&nbsp;&nbsp;&nbsp;&nbsp;&nbsp;&nbsp;&nbsp;&nbsp;&nbsp;&nbsp;&nbsp;&nbsp;4</p><p style=""font-size:14px"">Not at all familiar&nbsp;&nbsp;&nbsp;&nbsp;A little familiar&nbsp;&nbsp;&nbsp;Moderately familiar&nbsp;&nbsp;&nbsp;Extremely familiar</p><p>(press the corresponding number on your keyboard)</p>","","52","","","FAM-RESPONSE","","","","","","","","sounds/C/FAM/N004.mp3","nonword","","","","","","","","","","","","","","","","","","","",""
"html-keyboard-response","250","1266804","0.0-7.0-1.0-0.10","3","0","15eelkcf6287mft","","null","","","","null","","","","","","","","","","","","","","","","","","","","","","","","","","","","","","","",""
"audio-keyboard-response","251","1267746","0.0-7.0-1.0-1.10","3","0","15eelkcf6287mft","","null","","sounds/C/FAM/N003.mp3","","null","","","","","","","","","","","","","","","","","","","","","","","","","","","","","","","",""
"html-keyboard-response","252","1268898","0.0-7.0-1.0-2.10","3","0","15eelkcf6287mft","","650.7000000029802","","<p>How familiar did this sound to you?</p><p>1&nbsp;&nbsp;&nbsp;&nbsp;&nbsp;&nbsp;&nbsp;&nbsp;&nbsp;&nbsp;&nbsp;&nbsp;&nbsp;&nbsp;&nbsp;&nbsp;&nbsp;&nbsp;&nbsp;2&nbsp;&nbsp;&nbsp;&nbsp;&nbsp;&nbsp;&nbsp;&nbsp;&nbsp;&nbsp;&nbsp;&nbsp;&nbsp;&nbsp;&nbsp;&nbsp;&nbsp;&nbsp;&nbsp;3&nbsp;&nbsp;&nbsp;&nbsp;&nbsp;&nbsp;&nbsp;&nbsp;&nbsp;&nbsp;&nbsp;&nbsp;&nbsp;&nbsp;&nbsp;&nbsp;&nbsp;&nbsp;&nbsp;4</p><p style=""font-size:14px"">Not at all familiar&nbsp;&nbsp;&nbsp;&nbsp;A little familiar&nbsp;&nbsp;&nbsp;Moderately familiar&nbsp;&nbsp;&nbsp;Extremely familiar</p><p>(press the corresponding number on your keyboard)</p>","","49","","","FAM-RESPONSE","","","","","","","","sounds/C/FAM/N003.mp3","nonword","","","","","","","","","","","","","","","","","","","",""
"html-keyboard-response","253","1270905","0.0-7.0-1.0-0.11","3","0","15eelkcf6287mft","","null","","","","null","","","","","","","","","","","","","","","","","","","","","","","","","","","","","","","",""
"audio-keyboard-response","254","1271847","0.0-7.0-1.0-1.11","3","0","15eelkcf6287mft","","null","","sounds/C/FAM/N001.mp3","","null","","","","","","","","","","","","","","","","","","","","","","","","","","","","","","","",""
"html-keyboard-response","255","1273634","0.0-7.0-1.0-2.11","3","0","15eelkcf6287mft","","1283.5","","<p>How familiar did this sound to you?</p><p>1&nbsp;&nbsp;&nbsp;&nbsp;&nbsp;&nbsp;&nbsp;&nbsp;&nbsp;&nbsp;&nbsp;&nbsp;&nbsp;&nbsp;&nbsp;&nbsp;&nbsp;&nbsp;&nbsp;2&nbsp;&nbsp;&nbsp;&nbsp;&nbsp;&nbsp;&nbsp;&nbsp;&nbsp;&nbsp;&nbsp;&nbsp;&nbsp;&nbsp;&nbsp;&nbsp;&nbsp;&nbsp;&nbsp;3&nbsp;&nbsp;&nbsp;&nbsp;&nbsp;&nbsp;&nbsp;&nbsp;&nbsp;&nbsp;&nbsp;&nbsp;&nbsp;&nbsp;&nbsp;&nbsp;&nbsp;&nbsp;&nbsp;4</p><p style=""font-size:14px"">Not at all familiar&nbsp;&nbsp;&nbsp;&nbsp;A little familiar&nbsp;&nbsp;&nbsp;Moderately familiar&nbsp;&nbsp;&nbsp;Extremely familiar</p><p>(press the corresponding number on your keyboard)</p>","","50","","","FAM-RESPONSE","","","","","","","","sounds/C/FAM/N001.mp3","nonword","","","","","","","","","","","","","","","","","","","",""
"html-button-response","256","1287845","0.0-8.0-0.0","3","0","15eelkcf6287mft","","13206.89999999106","","<p>You will now listen to longer sound sequences.</p><p>Each sound sequence will last about 16 seconds.</p><p>On each trial, you will be given a <u>TARGET SOUND</u>. Your task is to listen very carefully for this sound.</p><p>Every time you hear the <u>TARGET SOUND</u>, you will press the <b>SPACEBAR</b> as quickly and accurately as you can.</p>","0","","","","","","","","","","","","","","","","","","","","","","","","","","","","","","","","",""
"html-button-response","257","1298437","0.0-8.0-1.0","3","0","15eelkcf6287mft","","10336.60000000894","","<p>It is very important that you make your responses as quickly and accurately as possible.</p><p>To help you make your responses, you will be able to listen to the <u>TARGET SOUND</u> at the beginning of each trial.</p><p>There will be 36 total trials.</p><p><b>Note: This is meant to be a difficult task. We simply want you to try your best.</p>","0","","","","","","","","","","","","","","","","","","","","","","","","","","","","","","","","",""
"html-button-response","258","1299985","0.0-8.0-2.0-0.0","3","0","15eelkcf6287mft","","1289.7000000029802","","<p>Trial 1 of 36</p>","0","","","","","","","","","","","","","","FE","sounds/syllables/fe_SWS.wav","2100,8400,10200,12900","2","","","","","","","","","","","","","","","",""
"html-keyboard-response","259","1302085","0.0-8.0-2.0-1.0","3","0","15eelkcf6287mft","","2097.7999999970198","","","","80","","","","","","","","","","","","","FE","","2100,8400,10200,12900","2","","","","","","","","","","","","","","","",""
"audio-keyboard-response","260","1302446","0.0-8.0-2.0-2.0-0.0","3","0","15eelkcf6287mft","","null","","sounds/syllables/fe_SWS.wav","","null","","","","","","","","","","","","","","","","","","","","","","","","","","","","","","","",""
"html-keyboard-response","261","1304551","0.0-8.0-2.0-2.0-1.0","3","0","15eelkcf6287mft","","2103.5999999940395","","<p>To replay the <u>TARGET SOUND</u>, press P.</p> When you are ready to begin, press SPACEBAR.","","80","","","","","","","","","","","","","","","","","","","","","","","","","","","","","","","",""
"audio-keyboard-response","262","1305353","0.0-8.0-2.0-2.1-0.1","3","0","15eelkcf6287mft","","null","","sounds/syllables/fe_SWS.wav","","null","","","","","","","","","","","","","","","","","","","","","","","","","","","","","","","",""
"html-keyboard-response","263","1306108","0.0-8.0-2.0-2.1-1.1","3","0","15eelkcf6287mft","","754.2999999970198","","<p>To replay the <u>TARGET SOUND</u>, press P.</p> When you are ready to begin, press SPACEBAR.","","32","","","","","","","","","","","","","","","","","","","","","","","","","","","","","","","",""
"audio-keyboard-response","264","1321060","0.0-8.0-2.0-3.0","3","0","15eelkcf6287mft","","3200","","sounds/C/TD/FE_01_TD.mp3","","32","","","TD_SUMMARY","","","","","","","","","","FE","","2100,8400,10200,12900","2","2100","8400","10200","12900","1099.5","538.2000000029802","null","973.2000000029802","3199.5_8938.20000000298_13873.20000000298","2","","","","","",""
"html-button-response","265","1322135","0.0-8.0-2.0-0.1","3","0","15eelkcf6287mft","","1072.5","","<p>Trial 2 of 36</p>","0","","","","","","","","","","","","","","ME","sounds/syllables/me_SWS.wav","1800,4500,6300,9000","1","","","","","","","","","","","","","","","",""
"html-keyboard-response","266","1323443","0.0-8.0-2.0-1.1","3","0","15eelkcf6287mft","","1306.4000000059605","","","","80","","","","","","","","","","","","","ME","","1800,4500,6300,9000","1","","","","","","","","","","","","","","","",""
"audio-keyboard-response","267","1323742","0.0-8.0-2.0-2.2-0.2","3","0","15eelkcf6287mft","","null","","sounds/syllables/me_SWS.wav","","null","","","","","","","","","","","","","","","","","","","","","","","","","","","","","","","",""
"html-keyboard-response","268","1324248","0.0-8.0-2.0-2.2-1.2","3","0","15eelkcf6287mft","","504.40000000596046","","<p>To replay the <u>TARGET SOUND</u>, press P.</p> When you are ready to begin, press SPACEBAR.","","80","","","","","","","","","","","","","","","","","","","","","","","","","","","","","","","",""
"audio-keyboard-response","269","1325049","0.0-8.0-2.0-2.3-0.3","3","0","15eelkcf6287mft","","null","","sounds/syllables/me_SWS.wav","","null","","","","","","","","","","","","","","","","","","","","","","","","","","","","","","","",""
"html-keyboard-response","270","1325936","0.0-8.0-2.0-2.3-1.3","3","0","15eelkcf6287mft","","886","","<p>To replay the <u>TARGET SOUND</u>, press P.</p> When you are ready to begin, press SPACEBAR.","","32","","","","","","","","","","","","","","","","","","","","","","","","","","","","","","","",""
"audio-keyboard-response","271","1340884","0.0-8.0-2.0-3.1","3","0","15eelkcf6287mft","","2187","","sounds/C/TD/ME_06_TD.mp3","","32","","","TD_SUMMARY","","","","","","","","","","ME","","1800,4500,6300,9000","1","1800","4500","6300","9000","386.3999999910593","999.7999999970198","null","251.59999999403954","___2186.3999999910593_4799.29999999702_5499.79999999702_9251.59999999404_11965.59999999404","2","","","","","",""
"html-button-response","272","1341775","0.0-8.0-2.0-0.2","3","0","15eelkcf6287mft","","888","","<p>Trial 3 of 36</p>","0","","","","","","","","","","","","","","RE","sounds/syllables/re_SWS.wav","2100,4800,10200,12900","2","","","","","","","","","","","","","","","",""
"html-keyboard-response","273","1342649","0.0-8.0-2.0-1.2","3","0","15eelkcf6287mft","","871.5999999940395","","","","80","","","","","","","","","","","","","RE","","2100,4800,10200,12900","2","","","","","","","","","","","","","","","",""
"audio-keyboard-response","274","1342949","0.0-8.0-2.0-2.4-0.4","3","0","15eelkcf6287mft","","null","","sounds/syllables/re_SWS.wav","","null","","","","","","","","","","","","","","","","","","","","","","","","","","","","","","","",""
"html-keyboard-response","275","1343324","0.0-8.0-2.0-2.4-1.4","3","0","15eelkcf6287mft","","374.70000000298023","","<p>To replay the <u>TARGET SOUND</u>, press P.</p> When you are ready to begin, press SPACEBAR.","","80","","","","","","","","","","","","","","","","","","","","","","","","","","","","","","","",""
"audio-keyboard-response","276","1344128","0.0-8.0-2.0-2.5-0.5","3","0","15eelkcf6287mft","","null","","sounds/syllables/re_SWS.wav","","null","","","","","","","","","","","","","","","","","","","","","","","","","","","","","","","",""
"html-keyboard-response","277","1344480","0.0-8.0-2.0-2.5-1.5","3","0","15eelkcf6287mft","","351.5","","<p>To replay the <u>TARGET SOUND</u>, press P.</p> When you are ready to begin, press SPACEBAR.","","80","","","","","","","","","","","","","","","","","","","","","","","","","","","","","","","",""
"audio-keyboard-response","278","1345285","0.0-8.0-2.0-2.6-0.6","3","0","15eelkcf6287mft","","null","","sounds/syllables/re_SWS.wav","","null","","","","","","","","","","","","","","","","","","","","","","","","","","","","","","","",""
"html-keyboard-response","279","1345793","0.0-8.0-2.0-2.6-1.6","3","0","15eelkcf6287mft","","507.09999999403954","","<p>To replay the <u>TARGET SOUND</u>, press P.</p> When you are ready to begin, press SPACEBAR.","","32","","","","","","","","","","","","","","","","","","","","","","","","","","","","","","","",""
"audio-keyboard-response","280","1360744","0.0-8.0-2.0-3.2","3","0","15eelkcf6287mft","","2213","","sounds/C/TD/RE_05_TD.mp3","","32","","","TD_SUMMARY","","","","","","","","","","RE","","2100,4800,10200,12900","2","2100","4800","10200","12900","null","413","null","539.2999999970198","________2211.4000000059605_5213_7826.20000000298_10270.90000000596_13439.29999999702","3","","","","","",""
"html-button-response","281","1362137","0.0-8.0-2.0-0.3","3","0","15eelkcf6287mft","","1390.199999988079","","<p>Trial 4 of 36</p>","0","","","","","","","","","","","","","","GE","sounds/syllables/ge_SWS.wav","1500,8700,10500,12300","3","","","","","","","","","","","","","","","",""
"html-keyboard-response","282","1362527","0.0-8.0-2.0-1.3","3","0","15eelkcf6287mft","","388.70000000298023","","","","80","","","","","","","","","","","","","GE","","1500,8700,10500,12300","3","","","","","","","","","","","","","","","",""
"audio-keyboard-response","283","1362829","0.0-8.0-2.0-2.7-0.7","3","0","15eelkcf6287mft","","null","","sounds/syllables/ge_SWS.wav","","null","","","","","","","","","","","","","","","","","","","","","","","","","","","","","","","",""
"html-keyboard-response","284","1363182","0.0-8.0-2.0-2.7-1.7","3","0","15eelkcf6287mft","","352.29999999701977","","<p>To replay the <u>TARGET SOUND</u>, press P.</p> When you are ready to begin, press SPACEBAR.","","80","","","","","","","","","","","","","","","","","","","","","","","","","","","","","","","",""
"audio-keyboard-response","285","1363987","0.0-8.0-2.0-2.8-0.8","3","0","15eelkcf6287mft","","null","","sounds/syllables/ge_SWS.wav","","null","","","","","","","","","","","","","","","","","","","","","","","","","","","","","","","",""
"html-keyboard-response","286","1364342","0.0-8.0-2.0-2.8-1.8","3","0","15eelkcf6287mft","","354.90000000596046","","<p>To replay the <u>TARGET SOUND</u>, press P.</p> When you are ready to begin, press SPACEBAR.","","80","","","","","","","","","","","","","","","","","","","","","","","","","","","","","","","",""
"audio-keyboard-response","287","1365144","0.0-8.0-2.0-2.9-0.9","3","0","15eelkcf6287mft","","null","","sounds/syllables/ge_SWS.wav","","null","","","","","","","","","","","","","","","","","","","","","","","","","","","","","","","",""
"html-keyboard-response","288","1365979","0.0-8.0-2.0-2.9-1.9","3","0","15eelkcf6287mft","","834.5","","<p>To replay the <u>TARGET SOUND</u>, press P.</p> When you are ready to begin, press SPACEBAR.","","32","","","","","","","","","","","","","","","","","","","","","","","","","","","","","","","",""
"audio-keyboard-response","289","1380931","0.0-8.0-2.0-3.3","3","0","15eelkcf6287mft","","1733","","sounds/C/TD/GE_03_TD.mp3","","32","","","TD_SUMMARY","","","","","","","","","","GE","","1500,8700,10500,12300","3","1500","8700","10500","12300","234.29999999701977","null","null","null","_____________1734.2999999970198_8768.09999999404_10655.39999999106_12390.5","3","","","","","",""
"html-button-response","290","1382026","0.0-8.0-2.0-0.4","3","0","15eelkcf6287mft","","1091.800000011921","","<p>Trial 5 of 36</p>","0","","","","","","","","","","","","","","KO","sounds/syllables/ko_SWS.wav","900,2700,8100,10800","1","","","","","","","","","","","","","","","",""
"html-keyboard-response","291","1382721","0.0-8.0-2.0-1.4","3","0","15eelkcf6287mft","","693.7000000029802","","","","80","","","","","","","","","","","","","KO","","900,2700,8100,10800","1","","","","","","","","","","","","","","","",""
"audio-keyboard-response","292","1383022","0.0-8.0-2.0-2.10-0.10","3","0","15eelkcf6287mft","","null","","sounds/syllables/ko_SWS.wav","","null","","","","","","","","","","","","","","","","","","","","","","","","","","","","","","","",""
"html-keyboard-response","293","1383345","0.0-8.0-2.0-2.10-1.10","3","0","15eelkcf6287mft","","321.80000001192093","","<p>To replay the <u>TARGET SOUND</u>, press P.</p> When you are ready to begin, press SPACEBAR.","","80","","","","","","","","","","","","","","","","","","","","","","","","","","","","","","","",""
"audio-keyboard-response","294","1384147","0.0-8.0-2.0-2.11-0.11","3","0","15eelkcf6287mft","","null","","sounds/syllables/ko_SWS.wav","","null","","","","","","","","","","","","","","","","","","","","","","","","","","","","","","","",""
"html-keyboard-response","295","1384375","0.0-8.0-2.0-2.11-1.11","3","0","15eelkcf6287mft","","227","","<p>To replay the <u>TARGET SOUND</u>, press P.</p> When you are ready to begin, press SPACEBAR.","","80","","","","","","","","","","","","","","","","","","","","","","","","","","","","","","","",""
"audio-keyboard-response","296","1385182","0.0-8.0-2.0-2.12-0.12","3","0","15eelkcf6287mft","","null","","sounds/syllables/ko_SWS.wav","","null","","","","","","","","","","","","","","","","","","","","","","","","","","","","","","","",""
"html-keyboard-response","297","1385340","0.0-8.0-2.0-2.12-1.12","3","0","15eelkcf6287mft","","158","","<p>To replay the <u>TARGET SOUND</u>, press P.</p> When you are ready to begin, press SPACEBAR.","","32","","","","","","","","","","","","","","","","","","","","","","","","","","","","","","","",""
"audio-keyboard-response","298","1400292","0.0-8.0-2.0-3.4","3","0","15eelkcf6287mft","","1056","","sounds/C/TD/KO_04_TD.mp3","","32","","","TD_SUMMARY","","","","","","","","","","KO","","900,2700,8100,10800","1","900","2700","8100","10800","null","390.59999999403954","614.0999999940395","723.2999999970198","_________________1058.7999999970198_3090.5999999940395_5740.5_8714.09999999404_11523.29999999702_13485.59999999404","3","","","","","",""
"html-button-response","299","1401278","0.0-8.0-2.0-0.5","3","0","15eelkcf6287mft","","983.4000000059605","","<p>Trial 6 of 36</p>","0","","","","","","","","","","","","","","SU","sounds/syllables/su_SWS.wav","3600,6300,8100,9900","1","","","","","","","","","","","","","","","",""
"html-keyboard-response","300","1401606","0.0-8.0-2.0-1.5","3","0","15eelkcf6287mft","","326.70000000298023","","","","80","","","","","","","","","","","","","SU","","3600,6300,8100,9900","1","","","","","","","","","","","","","","","",""
"audio-keyboard-response","301","1401907","0.0-8.0-2.0-2.13-0.13","3","0","15eelkcf6287mft","","null","","sounds/syllables/su_SWS.wav","","null","","","","","","","","","","","","","","","","","","","","","","","","","","","","","","","",""
"html-keyboard-response","302","1402210","0.0-8.0-2.0-2.13-1.13","3","0","15eelkcf6287mft","","301.20000000298023","","<p>To replay the <u>TARGET SOUND</u>, press P.</p> When you are ready to begin, press SPACEBAR.","","80","","","","","","","","","","","","","","","","","","","","","","","","","","","","","","","",""
"audio-keyboard-response","303","1403017","0.0-8.0-2.0-2.14-0.14","3","0","15eelkcf6287mft","","null","","sounds/syllables/su_SWS.wav","","null","","","","","","","","","","","","","","","","","","","","","","","","","","","","","","","",""
"html-keyboard-response","304","1403956","0.0-8.0-2.0-2.14-1.14","3","0","15eelkcf6287mft","","938.9000000059605","","<p>To replay the <u>TARGET SOUND</u>, press P.</p> When you are ready to begin, press SPACEBAR.","","32","","","","","","","","","","","","","","","","","","","","","","","","","","","","","","","",""
"audio-keyboard-response","305","1418905","0.0-8.0-2.0-3.5","3","0","15eelkcf6287mft","","3989","","sounds/C/TD/SU_10_TD.mp3","","32","","","TD_SUMMARY","","","","","","","","","","SU","","3600,6300,8100,9900","1","3600","6300","8100","9900","391.90000000596046","242.20000000298023","452.5","489.6000000089407","_______________________3991.9000000059605_6542.20000000298_8552.5_10389.60000000894","2","","","","","",""
"html-button-response","306","1419956","0.0-8.0-2.0-0.6","3","0","15eelkcf6287mft","","1048.6000000089407","","<p>Trial 7 of 36</p>","0","","","","","","","","","","","","","","FE","sounds/syllables/fe_SWS.wav","1200,5700,10200,12900","2","","","","","","","","","","","","","","","",""
"html-keyboard-response","307","1420345","0.0-8.0-2.0-1.6","3","0","15eelkcf6287mft","","387.8999999910593","","","","80","","","","","","","","","","","","","FE","","1200,5700,10200,12900","2","","","","","","","","","","","","","","","",""
"audio-keyboard-response","308","1420649","0.0-8.0-2.0-2.15-0.15","3","0","15eelkcf6287mft","","null","","sounds/syllables/fe_SWS.wav","","null","","","","","","","","","","","","","","","","","","","","","","","","","","","","","","","",""
"html-keyboard-response","309","1420954","0.0-8.0-2.0-2.15-1.15","3","0","15eelkcf6287mft","","304.3999999910593","","<p>To replay the <u>TARGET SOUND</u>, press P.</p> When you are ready to begin, press SPACEBAR.","","80","","","","","","","","","","","","","","","","","","","","","","","","","","","","","","","",""
"audio-keyboard-response","310","1421758","0.0-8.0-2.0-2.16-0.16","3","0","15eelkcf6287mft","","null","","sounds/syllables/fe_SWS.wav","","null","","","","","","","","","","","","","","","","","","","","","","","","","","","","","","","",""
"html-keyboard-response","311","1422559","0.0-8.0-2.0-2.16-1.16","3","0","15eelkcf6287mft","","800.4000000059605","","<p>To replay the <u>TARGET SOUND</u>, press P.</p> When you are ready to begin, press SPACEBAR.","","32","","","","","","","","","","","","","","","","","","","","","","","","","","","","","","","",""
"audio-keyboard-response","312","1437507","0.0-8.0-2.0-3.6","3","0","15eelkcf6287mft","","1440","","sounds/C/TD/FE_04_TD.mp3","","32","","","TD_SUMMARY","","","","","","","","","","FE","","1200,5700,10200,12900","2","1200","5700","10200","12900","239.29999999701977","null","null","247.90000000596046","___________________________1439.2999999970198_5834.5_10264.5_13147.90000000596","2","","","","","",""
"html-button-response","313","1438425","0.0-8.0-2.0-0.7","3","0","15eelkcf6287mft","","914.7999999970198","","<p>Trial 8 of 36</p>","0","","","","","","","","","","","","","","KO","sounds/syllables/ko_SWS.wav","900,6300,8100,11700","1","","","","","","","","","","","","","","","",""
"html-keyboard-response","314","1473859","0.0-8.0-2.0-1.7","3","0","15eelkcf6287mft","","35432.10000000894","","","","80","","","","","","","","","","","","","KO","","900,6300,8100,11700","1","","","","","","","","","","","","","","","",""
"audio-keyboard-response","315","1474228","0.0-8.0-2.0-2.17-0.17","3","0","15eelkcf6287mft","","null","","sounds/syllables/ko_SWS.wav","","null","","","","","","","","","","","","","","","","","","","","","","","","","","","","","","","",""
"html-keyboard-response","316","1475813","0.0-8.0-2.0-2.17-1.17","3","0","15eelkcf6287mft","","1583.7000000029802","","<p>To replay the <u>TARGET SOUND</u>, press P.</p> When you are ready to begin, press SPACEBAR.","","80","","","","","","","","","","","","","","","","","","","","","","","","","","","","","","","",""
"audio-keyboard-response","317","1476618","0.0-8.0-2.0-2.18-0.18","3","0","15eelkcf6287mft","","null","","sounds/syllables/ko_SWS.wav","","null","","","","","","","","","","","","","","","","","","","","","","","","","","","","","","","",""
"html-keyboard-response","318","1477285","0.0-8.0-2.0-2.18-1.18","3","0","15eelkcf6287mft","","666","","<p>To replay the <u>TARGET SOUND</u>, press P.</p> When you are ready to begin, press SPACEBAR.","","80","","","","","","","","","","","","","","","","","","","","","","","","","","","","","","","",""
"audio-keyboard-response","319","1478090","0.0-8.0-2.0-2.19-0.19","3","0","15eelkcf6287mft","","null","","sounds/syllables/ko_SWS.wav","","null","","","","","","","","","","","","","","","","","","","","","","","","","","","","","","","",""
"html-keyboard-response","320","1478494","0.0-8.0-2.0-2.19-1.19","3","0","15eelkcf6287mft","","403","","<p>To replay the <u>TARGET SOUND</u>, press P.</p> When you are ready to begin, press SPACEBAR.","","80","","","","","","","","","","","","","","","","","","","","","","","","","","","","","","","",""
"audio-keyboard-response","321","1479301","0.0-8.0-2.0-2.20-0.20","3","0","15eelkcf6287mft","","null","","sounds/syllables/ko_SWS.wav","","null","","","","","","","","","","","","","","","","","","","","","","","","","","","","","","","",""
"html-keyboard-response","322","1479801","0.0-8.0-2.0-2.20-1.20","3","0","15eelkcf6287mft","","499.30000001192093","","<p>To replay the <u>TARGET SOUND</u>, press P.</p> When you are ready to begin, press SPACEBAR.","","32","","","","","","","","","","","","","","","","","","","","","","","","","","","","","","","",""
"audio-keyboard-response","323","1494751","0.0-8.0-2.0-3.7","3","0","15eelkcf6287mft","","789","","sounds/C/TD/KO_06_TD.mp3","","32","","","TD_SUMMARY","","","","","","","","","","KO","","900,6300,8100,11700","1","900","6300","8100","11700","null","null","533","null","_______________________________788.2000000029802_2296.7000000029802_4058.2000000029802_6026.9000000059605_8633_11053.20000000298_13796","4","","","","","",""
"html-button-response","324","1495993","0.0-8.0-2.0-0.8","3","0","15eelkcf6287mft","","1239.2999999970198","","<p>Trial 9 of 36</p>","0","","","","","","","","","","","","","","FU","sounds/syllables/fu_SWS.wav","2400,6000,7800,10500","3","","","","","","","","","","","","","","","",""
"html-keyboard-response","325","1497013","0.0-8.0-2.0-1.8","3","0","15eelkcf6287mft","","1018.2999999970198","","","","80","","","","","","","","","","","","","FU","","2400,6000,7800,10500","3","","","","","","","","","","","","","","","",""
"audio-keyboard-response","326","1497317","0.0-8.0-2.0-2.21-0.21","3","0","15eelkcf6287mft","","null","","sounds/syllables/fu_SWS.wav","","null","","","","","","","","","","","","","","","","","","","","","","","","","","","","","","","",""
"html-keyboard-response","327","1497532","0.0-8.0-2.0-2.21-1.21","3","0","15eelkcf6287mft","","214.5","","<p>To replay the <u>TARGET SOUND</u>, press P.</p> When you are ready to begin, press SPACEBAR.","","80","","","","","","","","","","","","","","","","","","","","","","","","","","","","","","","",""
"audio-keyboard-response","328","1498335","0.0-8.0-2.0-2.22-0.22","3","0","15eelkcf6287mft","","null","","sounds/syllables/fu_SWS.wav","","null","","","","","","","","","","","","","","","","","","","","","","","","","","","","","","","",""
"html-keyboard-response","329","1499071","0.0-8.0-2.0-2.22-1.22","3","0","15eelkcf6287mft","","734.7000000029802","","<p>To replay the <u>TARGET SOUND</u>, press P.</p> When you are ready to begin, press SPACEBAR.","","32","","","","","","","","","","","","","","","","","","","","","","","","","","","","","","","",""
"audio-keyboard-response","330","1514015","0.0-8.0-2.0-3.8","3","0","15eelkcf6287mft","","1595","","sounds/C/TD/FU_08_TD.mp3","","32","","","TD_SUMMARY","","","","","","","","","","FU","","2400,6000,7800,10500","3","2400","6000","7800","10500","null","391.20000000298023","null","null","______________________________________1591.8999999910593_4025.0999999940395_6391.20000000298_9194.59999999404_12557.59999999404","2","","","","","",""
"html-button-response","331","1516171","0.0-8.0-2.0-0.9","3","0","15eelkcf6287mft","","2153.5","","<p>Trial 10 of 36</p>","0","","","","","","","","","","","","","","GE","sounds/syllables/ge_SWS.wav","1500,3300,6900,13200","3","","","","","","","","","","","","","","","",""
"html-keyboard-response","332","1517538","0.0-8.0-2.0-1.9","3","0","15eelkcf6287mft","","1365.6000000089407","","","","80","","","","","","","","","","","","","GE","","1500,3300,6900,13200","3","","","","","","","","","","","","","","","",""
"audio-keyboard-response","333","1517839","0.0-8.0-2.0-2.23-0.23","3","0","15eelkcf6287mft","","null","","sounds/syllables/ge_SWS.wav","","null","","","","","","","","","","","","","","","","","","","","","","","","","","","","","","","",""
"html-keyboard-response","334","1518240","0.0-8.0-2.0-2.23-1.23","3","0","15eelkcf6287mft","","400.70000000298023","","<p>To replay the <u>TARGET SOUND</u>, press P.</p> When you are ready to begin, press SPACEBAR.","","80","","","","","","","","","","","","","","","","","","","","","","","","","","","","","","","",""
"audio-keyboard-response","335","1519044","0.0-8.0-2.0-2.24-0.24","3","0","15eelkcf6287mft","","null","","sounds/syllables/ge_SWS.wav","","null","","","","","","","","","","","","","","","","","","","","","","","","","","","","","","","",""
"html-keyboard-response","336","1519304","0.0-8.0-2.0-2.24-1.24","3","0","15eelkcf6287mft","","259","","<p>To replay the <u>TARGET SOUND</u>, press P.</p> When you are ready to begin, press SPACEBAR.","","80","","","","","","","","","","","","","","","","","","","","","","","","","","","","","","","",""
"audio-keyboard-response","337","1520111","0.0-8.0-2.0-2.25-0.25","3","0","15eelkcf6287mft","","null","","sounds/syllables/ge_SWS.wav","","null","","","","","","","","","","","","","","","","","","","","","","","","","","","","","","","",""
"html-keyboard-response","338","1520356","0.0-8.0-2.0-2.25-1.25","3","0","15eelkcf6287mft","","243.70000000298023","","<p>To replay the <u>TARGET SOUND</u>, press P.</p> When you are ready to begin, press SPACEBAR.","","80","","","","","","","","","","","","","","","","","","","","","","","","","","","","","","","",""
"audio-keyboard-response","339","1521156","0.0-8.0-2.0-2.26-0.26","3","0","15eelkcf6287mft","","null","","sounds/syllables/ge_SWS.wav","","null","","","","","","","","","","","","","","","","","","","","","","","","","","","","","","","",""
"html-keyboard-response","340","1522631","0.0-8.0-2.0-2.26-1.26","3","0","15eelkcf6287mft","","1473.5","","<p>To replay the <u>TARGET SOUND</u>, press P.</p> When you are ready to begin, press SPACEBAR.","","32","","","","","","","","","","","","","","","","","","","","","","","","","","","","","","","",""
