"trial_type","trial_index","time_elapsed","internal_node_id","counterbalance","lang_instruct","ParticipantID","view_history","rt","url","stimulus","button_pressed","key_press","correctRESP","correct","designation","location","correctanswer","timeouts","pause_rt01","pause_rt02","train_file","numKeyPress","sound","fam_type","SYLLABLE","EXEMPLAR","TD_LOCS","TD_TYPE","TDLOC_01","TDLOC_02","TDLOC_03","TDLOC_04","TD_RT_01","TD_RT_02","TD_RT_03","TD_RT_04","TD_SUBJ_RTs","number_of_plays","responses","slider_start","response","question_order","syllable","syllable_type"
"pavlovia","0","5","0.0-0.0","1","0","f2rl18god1nzyxj","","","","","","","","","","","","","","","","","","","","","","","","","","","","","","","","","","","","","",""
"instructions","1","4206","0.0-1.0","1","0","f2rl18god1nzyxj","[{""page_index"":0,""viewing_time"":2064},{""page_index"":1,""viewing_time"":2132}]","4201","","","","","","","","","","","","","","","","","","","","","","","","","","","","","","","","","","","",""
"external-html","2","6238","0.0-2.0","1","0","f2rl18god1nzyxj","","2028","consent/consent.html","","","","","","","","","","","","","","","","","","","","","","","","","","","","","","","","","","",""
"html-button-response","3","7053","0.0-3.0-0.0-0.0","1","0","f2rl18god1nzyxj","","814","","<p>Welcome to the study. You will first complete a short volume calibration and headphone check.</p><p>Please make sure you are in a quiet listening environment, that you are wearing headphones, and that your computer's volume is turned on.<p></p>","0","","","","","","","","","","","","","","","","","","","","","","","","","","","","","","","","",""
"html-button-response","4","8136","0.0-3.0-0.0-1.0","1","0","f2rl18god1nzyxj","","830","","<p>The volume calibration will be first.</p><p>You will hear a thirty-second noise. Please adjust your computer's volume so that this noise is being presented at a comfortable level.<p></p>","0","","","","","","","","","","","","","","","","","","","","","","","","","","","","","","","","",""
"audio-button-response","5","9978","0.0-3.0-0.0-2.0","1","0","f2rl18god1nzyxj","","1467","","audCalib/volumetest.mp3","0","","","","","","","","","","","","","","","","","","","","","","","","","","","","","","","","",""
"html-button-response","6","10745","0.0-3.0-1.0-0.0","1","0","f2rl18god1nzyxj","","766","","<p>You will now complete a short headphone check.</p><p>On each trial, you will hear three tones. One of these tones will be quieter than the others. Your task is to identify whether the quiet tone occured first, second, or third.</p><p>There are six trials in total.<p></p>","0","","","","","","","","","","","","","","","","","","","","","","","","","","","","","","","","",""
"html-keyboard-response","7","11499","0.0-3.0-1.0-1.0-0.0","1","0","f2rl18god1nzyxj","","null","","<div style=""font-size:60px;"">+</div>","","null","","","","","","","","","","","","","","","","","","","","","","","","","","","","","","","",""
"audio-button-response","8","15753","0.0-3.0-1.0-1.0-1.0","1","0","f2rl18god1nzyxj","","4253","","audCalib/t2_1.mp3","1","","1","1","headphone-test","","","","","","","","","","","","","","","","","","","","","","","","","","","","",""
"html-keyboard-response","9","16510","0.0-3.0-1.0-1.0-0.1","1","0","f2rl18god1nzyxj","","null","","<div style=""font-size:60px;"">+</div>","","null","","","","","","","","","","","","","","","","","","","","","","","","","","","","","","","",""
"audio-button-response","10","20133","0.0-3.0-1.0-1.0-1.1","1","0","f2rl18god1nzyxj","","3619","","audCalib/t1_1.mp3","0","","0","1","headphone-test","","","","","","","","","","","","","","","","","","","","","","","","","","","","",""
"html-keyboard-response","11","20886","0.0-3.0-1.0-1.0-0.2","1","0","f2rl18god1nzyxj","","null","","<div style=""font-size:60px;"">+</div>","","null","","","","","","","","","","","","","","","","","","","","","","","","","","","","","","","",""
"audio-button-response","12","24580","0.0-3.0-1.0-1.0-1.2","1","0","f2rl18god1nzyxj","","3691","","audCalib/t3_1.mp3","2","","2","1","headphone-test","","","","","","","","","","","","","","","","","","","","","","","","","","","","",""
"html-keyboard-response","13","25333","0.0-3.0-1.0-1.0-0.3","1","0","f2rl18god1nzyxj","","null","","<div style=""font-size:60px;"">+</div>","","null","","","","","","","","","","","","","","","","","","","","","","","","","","","","","","","",""
"audio-button-response","14","28281","0.0-3.0-1.0-1.0-1.3","1","0","f2rl18god1nzyxj","","2947","","audCalib/t2_2.mp3","1","","1","1","headphone-test","","","","","","","","","","","","","","","","","","","","","","","","","","","","",""
"html-keyboard-response","15","29035","0.0-3.0-1.0-1.0-0.4","1","0","f2rl18god1nzyxj","","null","","<div style=""font-size:60px;"">+</div>","","null","","","","","","","","","","","","","","","","","","","","","","","","","","","","","","","",""
"audio-button-response","16","33336","0.0-3.0-1.0-1.0-1.4","1","0","f2rl18god1nzyxj","","4299","","audCalib/t3_2.mp3","2","","2","1","headphone-test","","","","","","","","","","","","","","","","","","","","","","","","","","","","",""
"html-keyboard-response","17","34090","0.0-3.0-1.0-1.0-0.5","1","0","f2rl18god1nzyxj","","null","","<div style=""font-size:60px;"">+</div>","","null","","","","","","","","","","","","","","","","","","","","","","","","","","","","","","","",""
"audio-button-response","18","35615","0.0-3.0-1.0-1.0-1.5","1","0","f2rl18god1nzyxj","","1525","","audCalib/t1_2.mp3","0","","0","1","headphone-test","","","","","","","","","","","","","","","","","","","","","","","","","","","","",""
"html-button-response","19","36802","0.0-3.0-2.0","1","0","f2rl18god1nzyxj","","934.0000000000073","","<p>The volume calibration and headphone check are now complete.</p>","0","","","","","","","","","","","","","","","","","","","","","","","","","","","","","","","","",""
"instructions","20","40380","0.0-4.0-0.0","1","0","f2rl18god1nzyxj","[{""page_index"":0,""viewing_time"":781},{""page_index"":1,""viewing_time"":1301},{""page_index"":2,""viewing_time"":1494}]","3577","","","","","","","","","","","","","","","","","","","","","","","","","","","","","","","","","","","",""
"audio-keyboard-response","21","40681","0.0-4.0-1.0-0.0","1","0","f2rl18god1nzyxj","","null","","sounds/induction/right_rev/ti_SWS.wav","","null","","","","","","","","","","","","","","","","","","","","","","","","","","","","","","","",""
"html-button-response","22","41858","0.0-4.0-1.0-1.0","1","0","f2rl18god1nzyxj","","1174.9999999999927","","Was the sound coming from the left or the right?","1","","","1","INDUCTION-JUDGMENT","right","1","","","","","","","","","","","","","","","","","","","","","","","","","","",""
"html-keyboard-response","23","42860","0.0-4.0-1.0-2.0","1","0","f2rl18god1nzyxj","","null","","<p style=""color:#054d00;""><b>Correct!</b></p>","","null","","","","","","","","","","","","","","","","","","","","","","","","","","","","","","","",""
"audio-keyboard-response","24","43662","0.0-4.0-1.0-0.1","1","0","f2rl18god1nzyxj","","null","","sounds/induction/right_rev/pu_SWS.wav","","null","","","","","","","","","","","","","","","","","","","","","","","","","","","","","","","",""
"html-button-response","25","44194","0.0-4.0-1.0-1.1","1","0","f2rl18god1nzyxj","","530","","Was the sound coming from the left or the right?","1","","","1","INDUCTION-JUDGMENT","right","1","","","","","","","","","","","","","","","","","","","","","","","","","","",""
"html-keyboard-response","26","45196","0.0-4.0-1.0-2.1","1","0","f2rl18god1nzyxj","","null","","<p style=""color:#054d00;""><b>Correct!</b></p>","","null","","","","","","","","","","","","","","","","","","","","","","","","","","","","","","","",""
"audio-keyboard-response","27","45998","0.0-4.0-1.0-0.2","1","0","f2rl18god1nzyxj","","null","","sounds/induction/right_rev/ti_SWS.wav","","null","","","","","","","","","","","","","","","","","","","","","","","","","","","","","","","",""
"html-button-response","28","46740","0.0-4.0-1.0-1.2","1","0","f2rl18god1nzyxj","","739.9999999999927","","Was the sound coming from the left or the right?","0","","","0","INDUCTION-JUDGMENT","right","1","","","","","","","","","","","","","","","","","","","","","","","","","","",""
"html-keyboard-response","29","47742","0.0-4.0-1.0-2.2","1","0","f2rl18god1nzyxj","","null","","<p style=""color:#690000;""><b>Incorrect!</b></p>","","null","","","","","","","","","","","","","","","","","","","","","","","","","","","","","","","",""
"audio-keyboard-response","30","48545","0.0-4.0-1.0-0.3","1","0","f2rl18god1nzyxj","","null","","sounds/induction/right_rev/me_SWS.wav","","null","","","","","","","","","","","","","","","","","","","","","","","","","","","","","","","",""
"html-button-response","31","49298","0.0-4.0-1.0-1.3","1","0","f2rl18god1nzyxj","","751.9999999999927","","Was the sound coming from the left or the right?","1","","","1","INDUCTION-JUDGMENT","right","1","","","","","","","","","","","","","","","","","","","","","","","","","","",""
"html-keyboard-response","32","50301","0.0-4.0-1.0-2.3","1","0","f2rl18god1nzyxj","","null","","<p style=""color:#054d00;""><b>Correct!</b></p>","","null","","","","","","","","","","","","","","","","","","","","","","","","","","","","","","","",""
"audio-keyboard-response","33","51102","0.0-4.0-1.0-0.4","1","0","f2rl18god1nzyxj","","null","","sounds/induction/left_rev/fu_SWS.wav","","null","","","","","","","","","","","","","","","","","","","","","","","","","","","","","","","",""
"html-button-response","34","52190","0.0-4.0-1.0-1.4","1","0","f2rl18god1nzyxj","","1086.9999999999927","","Was the sound coming from the left or the right?","0","","","1","INDUCTION-JUDGMENT","left","0","","","","","","","","","","","","","","","","","","","","","","","","","","",""
"html-keyboard-response","35","53193","0.0-4.0-1.0-2.4","1","0","f2rl18god1nzyxj","","null","","<p style=""color:#054d00;""><b>Correct!</b></p>","","null","","","","","","","","","","","","","","","","","","","","","","","","","","","","","","","",""
"audio-keyboard-response","36","53995","0.0-4.0-1.0-0.5","1","0","f2rl18god1nzyxj","","null","","sounds/induction/left_rev/fe_SWS.wav","","null","","","","","","","","","","","","","","","","","","","","","","","","","","","","","","","",""
"html-button-response","37","54501","0.0-4.0-1.0-1.5","1","0","f2rl18god1nzyxj","","504","","Was the sound coming from the left or the right?","0","","","1","INDUCTION-JUDGMENT","left","0","","","","","","","","","","","","","","","","","","","","","","","","","","",""
"html-keyboard-response","38","55503","0.0-4.0-1.0-2.5","1","0","f2rl18god1nzyxj","","null","","<p style=""color:#054d00;""><b>Correct!</b></p>","","null","","","","","","","","","","","","","","","","","","","","","","","","","","","","","","","",""
"audio-keyboard-response","39","56304","0.0-4.0-1.0-0.6","1","0","f2rl18god1nzyxj","","null","","sounds/induction/right_rev/ko_SWS.wav","","null","","","","","","","","","","","","","","","","","","","","","","","","","","","","","","","",""
"html-button-response","40","56977","0.0-4.0-1.0-1.6","1","0","f2rl18god1nzyxj","","672","","Was the sound coming from the left or the right?","1","","","1","INDUCTION-JUDGMENT","right","1","","","","","","","","","","","","","","","","","","","","","","","","","","",""
"html-keyboard-response","41","57979","0.0-4.0-1.0-2.6","1","0","f2rl18god1nzyxj","","null","","<p style=""color:#054d00;""><b>Correct!</b></p>","","null","","","","","","","","","","","","","","","","","","","","","","","","","","","","","","","",""
"audio-keyboard-response","42","58782","0.0-4.0-1.0-0.7","1","0","f2rl18god1nzyxj","","null","","sounds/induction/right_rev/su_SWS.wav","","null","","","","","","","","","","","","","","","","","","","","","","","","","","","","","","","",""
"html-button-response","43","60152","0.0-4.0-1.0-1.7","1","0","f2rl18god1nzyxj","","1369","","Was the sound coming from the left or the right?","1","","","1","INDUCTION-JUDGMENT","right","1","","","","","","","","","","","","","","","","","","","","","","","","","","",""
"html-keyboard-response","44","61153","0.0-4.0-1.0-2.7","1","0","f2rl18god1nzyxj","","null","","<p style=""color:#054d00;""><b>Correct!</b></p>","","null","","","","","","","","","","","","","","","","","","","","","","","","","","","","","","","",""
"audio-keyboard-response","45","61955","0.0-4.0-1.0-0.8","1","0","f2rl18god1nzyxj","","null","","sounds/induction/right_rev/fu_SWS.wav","","null","","","","","","","","","","","","","","","","","","","","","","","","","","","","","","","",""
"html-button-response","46","62395","0.0-4.0-1.0-1.8","1","0","f2rl18god1nzyxj","","439","","Was the sound coming from the left or the right?","1","","","1","INDUCTION-JUDGMENT","right","1","","","","","","","","","","","","","","","","","","","","","","","","","","",""
"html-keyboard-response","47","63397","0.0-4.0-1.0-2.8","1","0","f2rl18god1nzyxj","","null","","<p style=""color:#054d00;""><b>Correct!</b></p>","","null","","","","","","","","","","","","","","","","","","","","","","","","","","","","","","","",""
"audio-keyboard-response","48","64197","0.0-4.0-1.0-0.9","1","0","f2rl18god1nzyxj","","null","","sounds/induction/left_rev/re_SWS.wav","","null","","","","","","","","","","","","","","","","","","","","","","","","","","","","","","","",""
"html-button-response","49","64883","0.0-4.0-1.0-1.9","1","0","f2rl18god1nzyxj","","685","","Was the sound coming from the left or the right?","0","","","1","INDUCTION-JUDGMENT","left","0","","","","","","","","","","","","","","","","","","","","","","","","","","",""
"html-keyboard-response","50","65885","0.0-4.0-1.0-2.9","1","0","f2rl18god1nzyxj","","null","","<p style=""color:#054d00;""><b>Correct!</b></p>","","null","","","","","","","","","","","","","","","","","","","","","","","","","","","","","","","",""
"audio-keyboard-response","51","66685","0.0-4.0-1.0-0.10","1","0","f2rl18god1nzyxj","","null","","sounds/induction/right_rev/ru_SWS.wav","","null","","","","","","","","","","","","","","","","","","","","","","","","","","","","","","","",""
"html-button-response","52","67118","0.0-4.0-1.0-1.10","1","0","f2rl18god1nzyxj","","431","","Was the sound coming from the left or the right?","1","","","1","INDUCTION-JUDGMENT","right","1","","","","","","","","","","","","","","","","","","","","","","","","","","",""
"html-keyboard-response","53","68119","0.0-4.0-1.0-2.10","1","0","f2rl18god1nzyxj","","null","","<p style=""color:#054d00;""><b>Correct!</b></p>","","null","","","","","","","","","","","","","","","","","","","","","","","","","","","","","","","",""
"audio-keyboard-response","54","68920","0.0-4.0-1.0-0.11","1","0","f2rl18god1nzyxj","","null","","sounds/induction/right_rev/re_SWS.wav","","null","","","","","","","","","","","","","","","","","","","","","","","","","","","","","","","",""
"html-button-response","55","69658","0.0-4.0-1.0-1.11","1","0","f2rl18god1nzyxj","","737","","Was the sound coming from the left or the right?","1","","","1","INDUCTION-JUDGMENT","right","1","","","","","","","","","","","","","","","","","","","","","","","","","","",""
"html-keyboard-response","56","70659","0.0-4.0-1.0-2.11","1","0","f2rl18god1nzyxj","","null","","<p style=""color:#054d00;""><b>Correct!</b></p>","","null","","","","","","","","","","","","","","","","","","","","","","","","","","","","","","","",""
"audio-keyboard-response","57","71461","0.0-4.0-1.0-0.12","1","0","f2rl18god1nzyxj","","null","","sounds/induction/left_rev/me_SWS.wav","","null","","","","","","","","","","","","","","","","","","","","","","","","","","","","","","","",""
"html-button-response","58","72029","0.0-4.0-1.0-1.12","1","0","f2rl18god1nzyxj","","567","","Was the sound coming from the left or the right?","0","","","1","INDUCTION-JUDGMENT","left","0","","","","","","","","","","","","","","","","","","","","","","","","","","",""
"html-keyboard-response","59","73031","0.0-4.0-1.0-2.12","1","0","f2rl18god1nzyxj","","null","","<p style=""color:#054d00;""><b>Correct!</b></p>","","null","","","","","","","","","","","","","","","","","","","","","","","","","","","","","","","",""
"audio-keyboard-response","60","73834","0.0-4.0-1.0-0.13","1","0","f2rl18god1nzyxj","","null","","sounds/induction/left_rev/ta_SWS.wav","","null","","","","","","","","","","","","","","","","","","","","","","","","","","","","","","","",""
"html-button-response","61","74526","0.0-4.0-1.0-1.13","1","0","f2rl18god1nzyxj","","690","","Was the sound coming from the left or the right?","0","","","1","INDUCTION-JUDGMENT","left","0","","","","","","","","","","","","","","","","","","","","","","","","","","",""
"html-keyboard-response","62","75529","0.0-4.0-1.0-2.13","1","0","f2rl18god1nzyxj","","null","","<p style=""color:#054d00;""><b>Correct!</b></p>","","null","","","","","","","","","","","","","","","","","","","","","","","","","","","","","","","",""
"audio-keyboard-response","63","76330","0.0-4.0-1.0-0.14","1","0","f2rl18god1nzyxj","","null","","sounds/induction/left_rev/ti_SWS.wav","","null","","","","","","","","","","","","","","","","","","","","","","","","","","","","","","","",""
"html-button-response","64","76843","0.0-4.0-1.0-1.14","1","0","f2rl18god1nzyxj","","512","","Was the sound coming from the left or the right?","0","","","1","INDUCTION-JUDGMENT","left","0","","","","","","","","","","","","","","","","","","","","","","","","","","",""
"html-keyboard-response","65","77846","0.0-4.0-1.0-2.14","1","0","f2rl18god1nzyxj","","null","","<p style=""color:#054d00;""><b>Correct!</b></p>","","null","","","","","","","","","","","","","","","","","","","","","","","","","","","","","","","",""
"audio-keyboard-response","66","78648","0.0-4.0-1.0-0.15","1","0","f2rl18god1nzyxj","","null","","sounds/induction/right_rev/ko_SWS.wav","","null","","","","","","","","","","","","","","","","","","","","","","","","","","","","","","","",""
"html-button-response","67","79225","0.0-4.0-1.0-1.15","1","0","f2rl18god1nzyxj","","577","","Was the sound coming from the left or the right?","1","","","1","INDUCTION-JUDGMENT","right","1","","","","","","","","","","","","","","","","","","","","","","","","","","",""
"html-keyboard-response","68","80228","0.0-4.0-1.0-2.15","1","0","f2rl18god1nzyxj","","null","","<p style=""color:#054d00;""><b>Correct!</b></p>","","null","","","","","","","","","","","","","","","","","","","","","","","","","","","","","","","",""
"audio-keyboard-response","69","81031","0.0-4.0-1.0-0.16","1","0","f2rl18god1nzyxj","","null","","sounds/induction/left_rev/me_SWS.wav","","null","","","","","","","","","","","","","","","","","","","","","","","","","","","","","","","",""
"html-button-response","70","81520","0.0-4.0-1.0-1.16","1","0","f2rl18god1nzyxj","","488","","Was the sound coming from the left or the right?","0","","","1","INDUCTION-JUDGMENT","left","0","","","","","","","","","","","","","","","","","","","","","","","","","","",""
"html-keyboard-response","71","82522","0.0-4.0-1.0-2.16","1","0","f2rl18god1nzyxj","","null","","<p style=""color:#054d00;""><b>Correct!</b></p>","","null","","","","","","","","","","","","","","","","","","","","","","","","","","","","","","","",""
"audio-keyboard-response","72","83325","0.0-4.0-1.0-0.17","1","0","f2rl18god1nzyxj","","null","","sounds/induction/right_rev/ge_SWS.wav","","null","","","","","","","","","","","","","","","","","","","","","","","","","","","","","","","",""
"html-button-response","73","83815","0.0-4.0-1.0-1.17","1","0","f2rl18god1nzyxj","","488","","Was the sound coming from the left or the right?","1","","","1","INDUCTION-JUDGMENT","right","1","","","","","","","","","","","","","","","","","","","","","","","","","","",""
"html-keyboard-response","74","84817","0.0-4.0-1.0-2.17","1","0","f2rl18god1nzyxj","","null","","<p style=""color:#054d00;""><b>Correct!</b></p>","","null","","","","","","","","","","","","","","","","","","","","","","","","","","","","","","","",""
"audio-keyboard-response","75","85618","0.0-4.0-1.0-0.18","1","0","f2rl18god1nzyxj","","null","","sounds/induction/right_rev/me_SWS.wav","","null","","","","","","","","","","","","","","","","","","","","","","","","","","","","","","","",""
"html-button-response","76","86011","0.0-4.0-1.0-1.18","1","0","f2rl18god1nzyxj","","392","","Was the sound coming from the left or the right?","0","","","0","INDUCTION-JUDGMENT","right","1","","","","","","","","","","","","","","","","","","","","","","","","","","",""
"html-keyboard-response","77","87014","0.0-4.0-1.0-2.18","1","0","f2rl18god1nzyxj","","null","","<p style=""color:#690000;""><b>Incorrect!</b></p>","","null","","","","","","","","","","","","","","","","","","","","","","","","","","","","","","","",""
"audio-keyboard-response","78","87815","0.0-4.0-1.0-0.19","1","0","f2rl18god1nzyxj","","null","","sounds/induction/right_rev/fu_SWS.wav","","null","","","","","","","","","","","","","","","","","","","","","","","","","","","","","","","",""
"html-button-response","79","88967","0.0-4.0-1.0-1.19","1","0","f2rl18god1nzyxj","","1151","","Was the sound coming from the left or the right?","1","","","1","INDUCTION-JUDGMENT","right","1","","","","","","","","","","","","","","","","","","","","","","","","","","",""
"html-keyboard-response","80","89970","0.0-4.0-1.0-2.19","1","0","f2rl18god1nzyxj","","null","","<p style=""color:#054d00;""><b>Correct!</b></p>","","null","","","","","","","","","","","","","","","","","","","","","","","","","","","","","","","",""
"audio-keyboard-response","81","90772","0.0-4.0-1.0-0.20","1","0","f2rl18god1nzyxj","","null","","sounds/induction/left_rev/su_SWS.wav","","null","","","","","","","","","","","","","","","","","","","","","","","","","","","","","","","",""
"html-button-response","82","91358","0.0-4.0-1.0-1.20","1","0","f2rl18god1nzyxj","","583.9999999999854","","Was the sound coming from the left or the right?","0","","","1","INDUCTION-JUDGMENT","left","0","","","","","","","","","","","","","","","","","","","","","","","","","","",""
"html-keyboard-response","83","92360","0.0-4.0-1.0-2.20","1","0","f2rl18god1nzyxj","","null","","<p style=""color:#054d00;""><b>Correct!</b></p>","","null","","","","","","","","","","","","","","","","","","","","","","","","","","","","","","","",""
"audio-keyboard-response","84","93162","0.0-4.0-1.0-0.21","1","0","f2rl18god1nzyxj","","null","","sounds/induction/right_rev/fe_SWS.wav","","null","","","","","","","","","","","","","","","","","","","","","","","","","","","","","","","",""
"html-button-response","85","93676","0.0-4.0-1.0-1.21","1","0","f2rl18god1nzyxj","","514","","Was the sound coming from the left or the right?","1","","","1","INDUCTION-JUDGMENT","right","1","","","","","","","","","","","","","","","","","","","","","","","","","","",""
"html-keyboard-response","86","94678","0.0-4.0-1.0-2.21","1","0","f2rl18god1nzyxj","","null","","<p style=""color:#054d00;""><b>Correct!</b></p>","","null","","","","","","","","","","","","","","","","","","","","","","","","","","","","","","","",""
"audio-keyboard-response","87","95482","0.0-4.0-1.0-0.22","1","0","f2rl18god1nzyxj","","null","","sounds/induction/right_rev/pu_SWS.wav","","null","","","","","","","","","","","","","","","","","","","","","","","","","","","","","","","",""
"html-button-response","88","96197","0.0-4.0-1.0-1.22","1","0","f2rl18god1nzyxj","","713","","Was the sound coming from the left or the right?","1","","","1","INDUCTION-JUDGMENT","right","1","","","","","","","","","","","","","","","","","","","","","","","","","","",""
"html-keyboard-response","89","97200","0.0-4.0-1.0-2.22","1","0","f2rl18god1nzyxj","","null","","<p style=""color:#054d00;""><b>Correct!</b></p>","","null","","","","","","","","","","","","","","","","","","","","","","","","","","","","","","","",""
"audio-keyboard-response","90","98001","0.0-4.0-1.0-0.23","1","0","f2rl18god1nzyxj","","null","","sounds/induction/right_rev/su_SWS.wav","","null","","","","","","","","","","","","","","","","","","","","","","","","","","","","","","","",""
"html-button-response","91","98718","0.0-4.0-1.0-1.23","1","0","f2rl18god1nzyxj","","715","","Was the sound coming from the left or the right?","1","","","1","INDUCTION-JUDGMENT","right","1","","","","","","","","","","","","","","","","","","","","","","","","","","",""
"html-keyboard-response","92","99720","0.0-4.0-1.0-2.23","1","0","f2rl18god1nzyxj","","null","","<p style=""color:#054d00;""><b>Correct!</b></p>","","null","","","","","","","","","","","","","","","","","","","","","","","","","","","","","","","",""
"audio-keyboard-response","93","100524","0.0-4.0-1.0-0.24","1","0","f2rl18god1nzyxj","","null","","sounds/induction/left_rev/fe_SWS.wav","","null","","","","","","","","","","","","","","","","","","","","","","","","","","","","","","","",""
"html-button-response","94","101085","0.0-4.0-1.0-1.24","1","0","f2rl18god1nzyxj","","559","","Was the sound coming from the left or the right?","0","","","1","INDUCTION-JUDGMENT","left","0","","","","","","","","","","","","","","","","","","","","","","","","","","",""
"html-keyboard-response","95","102086","0.0-4.0-1.0-2.24","1","0","f2rl18god1nzyxj","","null","","<p style=""color:#054d00;""><b>Correct!</b></p>","","null","","","","","","","","","","","","","","","","","","","","","","","","","","","","","","","",""
"audio-keyboard-response","96","102889","0.0-4.0-1.0-0.25","1","0","f2rl18god1nzyxj","","null","","sounds/induction/left_rev/ti_SWS.wav","","null","","","","","","","","","","","","","","","","","","","","","","","","","","","","","","","",""
"html-button-response","97","103468","0.0-4.0-1.0-1.25","1","0","f2rl18god1nzyxj","","578","","Was the sound coming from the left or the right?","0","","","1","INDUCTION-JUDGMENT","left","0","","","","","","","","","","","","","","","","","","","","","","","","","","",""
"html-keyboard-response","98","104471","0.0-4.0-1.0-2.25","1","0","f2rl18god1nzyxj","","null","","<p style=""color:#054d00;""><b>Correct!</b></p>","","null","","","","","","","","","","","","","","","","","","","","","","","","","","","","","","","",""
"audio-keyboard-response","99","105273","0.0-4.0-1.0-0.26","1","0","f2rl18god1nzyxj","","null","","sounds/induction/left_rev/ru_SWS.wav","","null","","","","","","","","","","","","","","","","","","","","","","","","","","","","","","","",""
"html-button-response","100","105897","0.0-4.0-1.0-1.26","1","0","f2rl18god1nzyxj","","623","","Was the sound coming from the left or the right?","0","","","1","INDUCTION-JUDGMENT","left","0","","","","","","","","","","","","","","","","","","","","","","","","","","",""
"html-keyboard-response","101","106900","0.0-4.0-1.0-2.26","1","0","f2rl18god1nzyxj","","null","","<p style=""color:#054d00;""><b>Correct!</b></p>","","null","","","","","","","","","","","","","","","","","","","","","","","","","","","","","","","",""
"audio-keyboard-response","102","107702","0.0-4.0-1.0-0.27","1","0","f2rl18god1nzyxj","","null","","sounds/induction/left_rev/re_SWS.wav","","null","","","","","","","","","","","","","","","","","","","","","","","","","","","","","","","",""
"html-button-response","103","108289","0.0-4.0-1.0-1.27","1","0","f2rl18god1nzyxj","","584.0000000000146","","Was the sound coming from the left or the right?","0","","","1","INDUCTION-JUDGMENT","left","0","","","","","","","","","","","","","","","","","","","","","","","","","","",""
"html-keyboard-response","104","109291","0.0-4.0-1.0-2.27","1","0","f2rl18god1nzyxj","","null","","<p style=""color:#054d00;""><b>Correct!</b></p>","","null","","","","","","","","","","","","","","","","","","","","","","","","","","","","","","","",""
"audio-keyboard-response","105","110094","0.0-4.0-1.0-0.28","1","0","f2rl18god1nzyxj","","null","","sounds/induction/right_rev/ta_SWS.wav","","null","","","","","","","","","","","","","","","","","","","","","","","","","","","","","","","",""
"html-button-response","106","110773","0.0-4.0-1.0-1.28","1","0","f2rl18god1nzyxj","","679","","Was the sound coming from the left or the right?","1","","","1","INDUCTION-JUDGMENT","right","1","","","","","","","","","","","","","","","","","","","","","","","","","","",""
"html-keyboard-response","107","111774","0.0-4.0-1.0-2.28","1","0","f2rl18god1nzyxj","","null","","<p style=""color:#054d00;""><b>Correct!</b></p>","","null","","","","","","","","","","","","","","","","","","","","","","","","","","","","","","","",""
"audio-keyboard-response","108","112577","0.0-4.0-1.0-0.29","1","0","f2rl18god1nzyxj","","null","","sounds/induction/right_rev/ni_SWS.wav","","null","","","","","","","","","","","","","","","","","","","","","","","","","","","","","","","",""
"html-button-response","109","113194","0.0-4.0-1.0-1.29","1","0","f2rl18god1nzyxj","","617","","Was the sound coming from the left or the right?","1","","","1","INDUCTION-JUDGMENT","right","1","","","","","","","","","","","","","","","","","","","","","","","","","","",""
"html-keyboard-response","110","114196","0.0-4.0-1.0-2.29","1","0","f2rl18god1nzyxj","","null","","<p style=""color:#054d00;""><b>Correct!</b></p>","","null","","","","","","","","","","","","","","","","","","","","","","","","","","","","","","","",""
"audio-keyboard-response","111","114998","0.0-4.0-1.0-0.30","1","0","f2rl18god1nzyxj","","null","","sounds/induction/left_rev/ko_SWS.wav","","null","","","","","","","","","","","","","","","","","","","","","","","","","","","","","","","",""
"html-button-response","112","116119","0.0-4.0-1.0-1.30","1","0","f2rl18god1nzyxj","","1119","","Was the sound coming from the left or the right?","0","","","1","INDUCTION-JUDGMENT","left","0","","","","","","","","","","","","","","","","","","","","","","","","","","",""
"html-keyboard-response","113","117120","0.0-4.0-1.0-2.30","1","0","f2rl18god1nzyxj","","null","","<p style=""color:#054d00;""><b>Correct!</b></p>","","null","","","","","","","","","","","","","","","","","","","","","","","","","","","","","","","",""
"audio-keyboard-response","114","117923","0.0-4.0-1.0-0.31","1","0","f2rl18god1nzyxj","","null","","sounds/induction/left_rev/ta_SWS.wav","","null","","","","","","","","","","","","","","","","","","","","","","","","","","","","","","","",""
"html-button-response","115","118623","0.0-4.0-1.0-1.31","1","0","f2rl18god1nzyxj","","698.9999999999854","","Was the sound coming from the left or the right?","0","","","1","INDUCTION-JUDGMENT","left","0","","","","","","","","","","","","","","","","","","","","","","","","","","",""
"html-keyboard-response","116","119625","0.0-4.0-1.0-2.31","1","0","f2rl18god1nzyxj","","null","","<p style=""color:#054d00;""><b>Correct!</b></p>","","null","","","","","","","","","","","","","","","","","","","","","","","","","","","","","","","",""
"audio-keyboard-response","117","120427","0.0-4.0-1.0-0.32","1","0","f2rl18god1nzyxj","","null","","sounds/induction/left_rev/fu_SWS.wav","","null","","","","","","","","","","","","","","","","","","","","","","","","","","","","","","","",""
"html-button-response","118","121132","0.0-4.0-1.0-1.32","1","0","f2rl18god1nzyxj","","705","","Was the sound coming from the left or the right?","0","","","1","INDUCTION-JUDGMENT","left","0","","","","","","","","","","","","","","","","","","","","","","","","","","",""
"html-keyboard-response","119","122135","0.0-4.0-1.0-2.32","1","0","f2rl18god1nzyxj","","null","","<p style=""color:#054d00;""><b>Correct!</b></p>","","null","","","","","","","","","","","","","","","","","","","","","","","","","","","","","","","",""
"audio-keyboard-response","120","122936","0.0-4.0-1.0-0.33","1","0","f2rl18god1nzyxj","","null","","sounds/induction/left_rev/ge_SWS.wav","","null","","","","","","","","","","","","","","","","","","","","","","","","","","","","","","","",""
"html-button-response","121","123831","0.0-4.0-1.0-1.33","1","0","f2rl18god1nzyxj","","894","","Was the sound coming from the left or the right?","0","","","1","INDUCTION-JUDGMENT","left","0","","","","","","","","","","","","","","","","","","","","","","","","","","",""
"html-keyboard-response","122","124833","0.0-4.0-1.0-2.33","1","0","f2rl18god1nzyxj","","null","","<p style=""color:#054d00;""><b>Correct!</b></p>","","null","","","","","","","","","","","","","","","","","","","","","","","","","","","","","","","",""
"audio-keyboard-response","123","125635","0.0-4.0-1.0-0.34","1","0","f2rl18god1nzyxj","","null","","sounds/induction/left_rev/pu_SWS.wav","","null","","","","","","","","","","","","","","","","","","","","","","","","","","","","","","","",""
"html-button-response","124","126293","0.0-4.0-1.0-1.34","1","0","f2rl18god1nzyxj","","657","","Was the sound coming from the left or the right?","0","","","1","INDUCTION-JUDGMENT","left","0","","","","","","","","","","","","","","","","","","","","","","","","","","",""
"html-keyboard-response","125","127295","0.0-4.0-1.0-2.34","1","0","f2rl18god1nzyxj","","null","","<p style=""color:#054d00;""><b>Correct!</b></p>","","null","","","","","","","","","","","","","","","","","","","","","","","","","","","","","","","",""
"audio-keyboard-response","126","128096","0.0-4.0-1.0-0.35","1","0","f2rl18god1nzyxj","","null","","sounds/induction/right_rev/ni_SWS.wav","","null","","","","","","","","","","","","","","","","","","","","","","","","","","","","","","","",""
"html-button-response","127","128690","0.0-4.0-1.0-1.35","1","0","f2rl18god1nzyxj","","593","","Was the sound coming from the left or the right?","1","","","1","INDUCTION-JUDGMENT","right","1","","","","","","","","","","","","","","","","","","","","","","","","","","",""
"html-keyboard-response","128","129690","0.0-4.0-1.0-2.35","1","0","f2rl18god1nzyxj","","null","","<p style=""color:#054d00;""><b>Correct!</b></p>","","null","","","","","","","","","","","","","","","","","","","","","","","","","","","","","","","",""
"audio-keyboard-response","129","130493","0.0-4.0-1.0-0.36","1","0","f2rl18god1nzyxj","","null","","sounds/induction/right_rev/re_SWS.wav","","null","","","","","","","","","","","","","","","","","","","","","","","","","","","","","","","",""
"html-button-response","130","131040","0.0-4.0-1.0-1.36","1","0","f2rl18god1nzyxj","","545","","Was the sound coming from the left or the right?","1","","","1","INDUCTION-JUDGMENT","right","1","","","","","","","","","","","","","","","","","","","","","","","","","","",""
"html-keyboard-response","131","132041","0.0-4.0-1.0-2.36","1","0","f2rl18god1nzyxj","","null","","<p style=""color:#054d00;""><b>Correct!</b></p>","","null","","","","","","","","","","","","","","","","","","","","","","","","","","","","","","","",""
"audio-keyboard-response","132","132842","0.0-4.0-1.0-0.37","1","0","f2rl18god1nzyxj","","null","","sounds/induction/left_rev/ko_SWS.wav","","null","","","","","","","","","","","","","","","","","","","","","","","","","","","","","","","",""
"html-button-response","133","133577","0.0-4.0-1.0-1.37","1","0","f2rl18god1nzyxj","","734.0000000000291","","Was the sound coming from the left or the right?","0","","","1","INDUCTION-JUDGMENT","left","0","","","","","","","","","","","","","","","","","","","","","","","","","","",""
"html-keyboard-response","134","134580","0.0-4.0-1.0-2.37","1","0","f2rl18god1nzyxj","","null","","<p style=""color:#054d00;""><b>Correct!</b></p>","","null","","","","","","","","","","","","","","","","","","","","","","","","","","","","","","","",""
"audio-keyboard-response","135","135381","0.0-4.0-1.0-0.38","1","0","f2rl18god1nzyxj","","null","","sounds/induction/left_rev/ru_SWS.wav","","null","","","","","","","","","","","","","","","","","","","","","","","","","","","","","","","",""
"html-button-response","136","136028","0.0-4.0-1.0-1.38","1","0","f2rl18god1nzyxj","","644","","Was the sound coming from the left or the right?","0","","","1","INDUCTION-JUDGMENT","left","0","","","","","","","","","","","","","","","","","","","","","","","","","","",""
"html-keyboard-response","137","137031","0.0-4.0-1.0-2.38","1","0","f2rl18god1nzyxj","","null","","<p style=""color:#054d00;""><b>Correct!</b></p>","","null","","","","","","","","","","","","","","","","","","","","","","","","","","","","","","","",""
"audio-keyboard-response","138","137834","0.0-4.0-1.0-0.39","1","0","f2rl18god1nzyxj","","null","","sounds/induction/right_rev/ru_SWS.wav","","null","","","","","","","","","","","","","","","","","","","","","","","","","","","","","","","",""
"html-button-response","139","138389","0.0-4.0-1.0-1.39","1","0","f2rl18god1nzyxj","","554","","Was the sound coming from the left or the right?","1","","","1","INDUCTION-JUDGMENT","right","1","","","","","","","","","","","","","","","","","","","","","","","","","","",""
"html-keyboard-response","140","139391","0.0-4.0-1.0-2.39","1","0","f2rl18god1nzyxj","","null","","<p style=""color:#054d00;""><b>Correct!</b></p>","","null","","","","","","","","","","","","","","","","","","","","","","","","","","","","","","","",""
"audio-keyboard-response","141","140194","0.0-4.0-1.0-0.40","1","0","f2rl18god1nzyxj","","null","","sounds/induction/left_rev/ni_SWS.wav","","null","","","","","","","","","","","","","","","","","","","","","","","","","","","","","","","",""
"html-button-response","142","140892","0.0-4.0-1.0-1.40","1","0","f2rl18god1nzyxj","","697.0000000000291","","Was the sound coming from the left or the right?","0","","","1","INDUCTION-JUDGMENT","left","0","","","","","","","","","","","","","","","","","","","","","","","","","","",""
"html-keyboard-response","143","141893","0.0-4.0-1.0-2.40","1","0","f2rl18god1nzyxj","","null","","<p style=""color:#054d00;""><b>Correct!</b></p>","","null","","","","","","","","","","","","","","","","","","","","","","","","","","","","","","","",""
"audio-keyboard-response","144","142695","0.0-4.0-1.0-0.41","1","0","f2rl18god1nzyxj","","null","","sounds/induction/right_rev/ge_SWS.wav","","null","","","","","","","","","","","","","","","","","","","","","","","","","","","","","","","",""
"html-button-response","145","143195","0.0-4.0-1.0-1.41","1","0","f2rl18god1nzyxj","","497","","Was the sound coming from the left or the right?","1","","","1","INDUCTION-JUDGMENT","right","1","","","","","","","","","","","","","","","","","","","","","","","","","","",""
"html-keyboard-response","146","144197","0.0-4.0-1.0-2.41","1","0","f2rl18god1nzyxj","","null","","<p style=""color:#054d00;""><b>Correct!</b></p>","","null","","","","","","","","","","","","","","","","","","","","","","","","","","","","","","","",""
"audio-keyboard-response","147","144999","0.0-4.0-1.0-0.42","1","0","f2rl18god1nzyxj","","null","","sounds/induction/left_rev/su_SWS.wav","","null","","","","","","","","","","","","","","","","","","","","","","","","","","","","","","","",""
"html-button-response","148","145600","0.0-4.0-1.0-1.42","1","0","f2rl18god1nzyxj","","599","","Was the sound coming from the left or the right?","0","","","1","INDUCTION-JUDGMENT","left","0","","","","","","","","","","","","","","","","","","","","","","","","","","",""
"html-keyboard-response","149","146601","0.0-4.0-1.0-2.42","1","0","f2rl18god1nzyxj","","null","","<p style=""color:#054d00;""><b>Correct!</b></p>","","null","","","","","","","","","","","","","","","","","","","","","","","","","","","","","","","",""
"audio-keyboard-response","150","147402","0.0-4.0-1.0-0.43","1","0","f2rl18god1nzyxj","","null","","sounds/induction/right_rev/ta_SWS.wav","","null","","","","","","","","","","","","","","","","","","","","","","","","","","","","","","","",""
"html-button-response","151","148673","0.0-4.0-1.0-1.43","1","0","f2rl18god1nzyxj","","1271","","Was the sound coming from the left or the right?","1","","","1","INDUCTION-JUDGMENT","right","1","","","","","","","","","","","","","","","","","","","","","","","","","","",""
"html-keyboard-response","152","149675","0.0-4.0-1.0-2.43","1","0","f2rl18god1nzyxj","","null","","<p style=""color:#054d00;""><b>Correct!</b></p>","","null","","","","","","","","","","","","","","","","","","","","","","","","","","","","","","","",""
"audio-keyboard-response","153","150479","0.0-4.0-1.0-0.44","1","0","f2rl18god1nzyxj","","null","","sounds/induction/left_rev/ge_SWS.wav","","null","","","","","","","","","","","","","","","","","","","","","","","","","","","","","","","",""
"html-button-response","154","151209","0.0-4.0-1.0-1.44","1","0","f2rl18god1nzyxj","","730","","Was the sound coming from the left or the right?","0","","","1","INDUCTION-JUDGMENT","left","0","","","","","","","","","","","","","","","","","","","","","","","","","","",""
"html-keyboard-response","155","152210","0.0-4.0-1.0-2.44","1","0","f2rl18god1nzyxj","","null","","<p style=""color:#054d00;""><b>Correct!</b></p>","","null","","","","","","","","","","","","","","","","","","","","","","","","","","","","","","","",""
"audio-keyboard-response","156","153012","0.0-4.0-1.0-0.45","1","0","f2rl18god1nzyxj","","null","","sounds/induction/left_rev/pu_SWS.wav","","null","","","","","","","","","","","","","","","","","","","","","","","","","","","","","","","",""
"html-button-response","157","153459","0.0-4.0-1.0-1.45","1","0","f2rl18god1nzyxj","","446","","Was the sound coming from the left or the right?","1","","","0","INDUCTION-JUDGMENT","left","0","","","","","","","","","","","","","","","","","","","","","","","","","","",""
"html-keyboard-response","158","154460","0.0-4.0-1.0-2.45","1","0","f2rl18god1nzyxj","","null","","<p style=""color:#690000;""><b>Incorrect!</b></p>","","null","","","","","","","","","","","","","","","","","","","","","","","","","","","","","","","",""
"audio-keyboard-response","159","155263","0.0-4.0-1.0-0.46","1","0","f2rl18god1nzyxj","","null","","sounds/induction/left_rev/ni_SWS.wav","","null","","","","","","","","","","","","","","","","","","","","","","","","","","","","","","","",""
"html-button-response","160","155941","0.0-4.0-1.0-1.46","1","0","f2rl18god1nzyxj","","677","","Was the sound coming from the left or the right?","0","","","1","INDUCTION-JUDGMENT","left","0","","","","","","","","","","","","","","","","","","","","","","","","","","",""
"html-keyboard-response","161","156943","0.0-4.0-1.0-2.46","1","0","f2rl18god1nzyxj","","null","","<p style=""color:#054d00;""><b>Correct!</b></p>","","null","","","","","","","","","","","","","","","","","","","","","","","","","","","","","","","",""
"audio-keyboard-response","162","157745","0.0-4.0-1.0-0.47","1","0","f2rl18god1nzyxj","","null","","sounds/induction/right_rev/fe_SWS.wav","","null","","","","","","","","","","","","","","","","","","","","","","","","","","","","","","","",""
"html-button-response","163","158310","0.0-4.0-1.0-1.47","1","0","f2rl18god1nzyxj","","564","","Was the sound coming from the left or the right?","1","","","1","INDUCTION-JUDGMENT","right","1","","","","","","","","","","","","","","","","","","","","","","","","","","",""
"html-keyboard-response","164","159312","0.0-4.0-1.0-2.47","1","0","f2rl18god1nzyxj","","null","","<p style=""color:#054d00;""><b>Correct!</b></p>","","null","","","","","","","","","","","","","","","","","","","","","","","","","","","","","","","",""
"html-button-response","165","160783","0.0-5.0-0.0","1","0","f2rl18god1nzyxj","","969","","<p>Thank you for your answers.</p><p>You will now listen to similar sounds. The main difference is that the sounds will be longer.</p><p>Just as before, you will be asked to judge whether the sound was coming from the left or the right.</p><p>There are 10 of these longer sounds in total.","0","","","","","","","","","","","","","","","","","","","","","","","","","","","","","","","","",""
"audio-keyboard-response","166","163798","0.0-5.0-1.0-0.0","1","0","f2rl18god1nzyxj","","null","","sounds/sentences/right_rev/14_10_cfSWS.wav","","null","","","","","","","","","","","","","","","","","","","","","","","","","","","","","","","",""
"html-button-response","167","164232","0.0-5.0-1.0-1.0","1","0","f2rl18god1nzyxj","","433","","Was the sound coming from the left or the right?","1","","","1","INDUCTION-JUDGMENT","right","1","","","","","","","","","","","","","","","","","","","","","","","","","","",""
"html-keyboard-response","168","165234","0.0-5.0-1.0-2.0","1","0","f2rl18god1nzyxj","","null","","<p style=""color:#054d00;""><b>Correct!</b></p>","","null","","","","","","","","","","","","","","","","","","","","","","","","","","","","","","","",""
"html-button-response","169","166446","0.0-5.0-1.0-3.0","1","0","f2rl18god1nzyxj","","709.9999999999709","","<p>Press the button below when you are ready to continue.</p>","0","","","","","","","","","","","","","","","","","","","","","","","","","","","","","","","","",""
"audio-keyboard-response","170","169203","0.0-5.0-1.0-0.1","1","0","f2rl18god1nzyxj","","null","","sounds/sentences/right_rev/14_08_cfSWS.wav","","null","","","","","","","","","","","","","","","","","","","","","","","","","","","","","","","",""
"html-button-response","171","169636","0.0-5.0-1.0-1.1","1","0","f2rl18god1nzyxj","","432","","Was the sound coming from the left or the right?","1","","","1","INDUCTION-JUDGMENT","right","1","","","","","","","","","","","","","","","","","","","","","","","","","","",""
"html-keyboard-response","172","170638","0.0-5.0-1.0-2.1","1","0","f2rl18god1nzyxj","","null","","<p style=""color:#054d00;""><b>Correct!</b></p>","","null","","","","","","","","","","","","","","","","","","","","","","","","","","","","","","","",""
"html-button-response","173","171842","0.0-5.0-1.0-3.1","1","0","f2rl18god1nzyxj","","702","","<p>Press the button below when you are ready to continue.</p>","0","","","","","","","","","","","","","","","","","","","","","","","","","","","","","","","","",""
"audio-keyboard-response","174","174425","0.0-5.0-1.0-0.2","1","0","f2rl18god1nzyxj","","null","","sounds/sentences/left_rev/14_03_cfSWS.wav","","null","","","","","","","","","","","","","","","","","","","","","","","","","","","","","","","",""
"html-button-response","175","174815","0.0-5.0-1.0-1.2","1","0","f2rl18god1nzyxj","","388","","Was the sound coming from the left or the right?","0","","","1","INDUCTION-JUDGMENT","left","0","","","","","","","","","","","","","","","","","","","","","","","","","","",""
"html-keyboard-response","176","175817","0.0-5.0-1.0-2.2","1","0","f2rl18god1nzyxj","","null","","<p style=""color:#054d00;""><b>Correct!</b></p>","","null","","","","","","","","","","","","","","","","","","","","","","","","","","","","","","","",""
"html-button-response","177","177045","0.0-5.0-1.0-3.2","1","0","f2rl18god1nzyxj","","726","","<p>Press the button below when you are ready to continue.</p>","0","","","","","","","","","","","","","","","","","","","","","","","","","","","","","","","","",""
"audio-keyboard-response","178","180163","0.0-5.0-1.0-0.3","1","0","f2rl18god1nzyxj","","null","","sounds/sentences/left_rev/14_01_cfSWS.wav","","null","","","","","","","","","","","","","","","","","","","","","","","","","","","","","","","",""
"html-button-response","179","180567","0.0-5.0-1.0-1.3","1","0","f2rl18god1nzyxj","","402","","Was the sound coming from the left or the right?","0","","","1","INDUCTION-JUDGMENT","left","0","","","","","","","","","","","","","","","","","","","","","","","","","","",""
"html-keyboard-response","180","181569","0.0-5.0-1.0-2.3","1","0","f2rl18god1nzyxj","","null","","<p style=""color:#054d00;""><b>Correct!</b></p>","","null","","","","","","","","","","","","","","","","","","","","","","","","","","","","","","","",""
"html-button-response","181","182827","0.0-5.0-1.0-3.3","1","0","f2rl18god1nzyxj","","756","","<p>Press the button below when you are ready to continue.</p>","0","","","","","","","","","","","","","","","","","","","","","","","","","","","","","","","","",""
"audio-keyboard-response","182","185382","0.0-5.0-1.0-0.4","1","0","f2rl18god1nzyxj","","null","","sounds/sentences/left_rev/14_04_cfSWS.wav","","null","","","","","","","","","","","","","","","","","","","","","","","","","","","","","","","",""
"html-button-response","183","186253","0.0-5.0-1.0-1.4","1","0","f2rl18god1nzyxj","","870","","Was the sound coming from the left or the right?","0","","","1","INDUCTION-JUDGMENT","left","0","","","","","","","","","","","","","","","","","","","","","","","","","","",""
"html-keyboard-response","184","187255","0.0-5.0-1.0-2.4","1","0","f2rl18god1nzyxj","","null","","<p style=""color:#054d00;""><b>Correct!</b></p>","","null","","","","","","","","","","","","","","","","","","","","","","","","","","","","","","","",""
"html-button-response","185","188077","0.0-5.0-1.0-3.4","1","0","f2rl18god1nzyxj","","320","","<p>Press the button below when you are ready to continue.</p>","0","","","","","","","","","","","","","","","","","","","","","","","","","","","","","","","","",""
"audio-keyboard-response","186","190805","0.0-5.0-1.0-0.5","1","0","f2rl18god1nzyxj","","null","","sounds/sentences/right_rev/14_09_cfSWS.wav","","null","","","","","","","","","","","","","","","","","","","","","","","","","","","","","","","",""
"html-button-response","187","191252","0.0-5.0-1.0-1.5","1","0","f2rl18god1nzyxj","","445","","Was the sound coming from the left or the right?","1","","","1","INDUCTION-JUDGMENT","right","1","","","","","","","","","","","","","","","","","","","","","","","","","","",""
"html-keyboard-response","188","192254","0.0-5.0-1.0-2.5","1","0","f2rl18god1nzyxj","","null","","<p style=""color:#054d00;""><b>Correct!</b></p>","","null","","","","","","","","","","","","","","","","","","","","","","","","","","","","","","","",""
"html-button-response","189","193482","0.0-5.0-1.0-3.5","1","0","f2rl18god1nzyxj","","725","","<p>Press the button below when you are ready to continue.</p>","0","","","","","","","","","","","","","","","","","","","","","","","","","","","","","","","","",""
"audio-keyboard-response","190","196472","0.0-5.0-1.0-0.6","1","0","f2rl18god1nzyxj","","null","","sounds/sentences/left_rev/14_05_cfSWS.wav","","null","","","","","","","","","","","","","","","","","","","","","","","","","","","","","","","",""
"html-button-response","191","197381","0.0-5.0-1.0-1.6","1","0","f2rl18god1nzyxj","","909","","Was the sound coming from the left or the right?","0","","","1","INDUCTION-JUDGMENT","left","0","","","","","","","","","","","","","","","","","","","","","","","","","","",""
"html-keyboard-response","192","198383","0.0-5.0-1.0-2.6","1","0","f2rl18god1nzyxj","","null","","<p style=""color:#054d00;""><b>Correct!</b></p>","","null","","","","","","","","","","","","","","","","","","","","","","","","","","","","","","","",""
"html-button-response","193","199290","0.0-5.0-1.0-3.6","1","0","f2rl18god1nzyxj","","404","","<p>Press the button below when you are ready to continue.</p>","0","","","","","","","","","","","","","","","","","","","","","","","","","","","","","","","","",""
"audio-keyboard-response","194","202181","0.0-5.0-1.0-0.7","1","0","f2rl18god1nzyxj","","null","","sounds/sentences/right_rev/14_07_cfSWS.wav","","null","","","","","","","","","","","","","","","","","","","","","","","","","","","","","","","",""
"html-button-response","195","203253","0.0-5.0-1.0-1.7","1","0","f2rl18god1nzyxj","","1071.000000000029","","Was the sound coming from the left or the right?","1","","","1","INDUCTION-JUDGMENT","right","1","","","","","","","","","","","","","","","","","","","","","","","","","","",""
"html-keyboard-response","196","204255","0.0-5.0-1.0-2.7","1","0","f2rl18god1nzyxj","","null","","<p style=""color:#054d00;""><b>Correct!</b></p>","","null","","","","","","","","","","","","","","","","","","","","","","","","","","","","","","","",""
"html-button-response","197","205484","0.0-5.0-1.0-3.7","1","0","f2rl18god1nzyxj","","727","","<p>Press the button below when you are ready to continue.</p>","0","","","","","","","","","","","","","","","","","","","","","","","","","","","","","","","","",""
"audio-keyboard-response","198","208301","0.0-5.0-1.0-0.8","1","0","f2rl18god1nzyxj","","null","","sounds/sentences/left_rev/14_02_cfSWS.wav","","null","","","","","","","","","","","","","","","","","","","","","","","","","","","","","","","",""
"html-button-response","199","209379","0.0-5.0-1.0-1.8","1","0","f2rl18god1nzyxj","","1077","","Was the sound coming from the left or the right?","0","","","1","INDUCTION-JUDGMENT","left","0","","","","","","","","","","","","","","","","","","","","","","","","","","",""
"html-keyboard-response","200","210381","0.0-5.0-1.0-2.8","1","0","f2rl18god1nzyxj","","null","","<p style=""color:#054d00;""><b>Correct!</b></p>","","null","","","","","","","","","","","","","","","","","","","","","","","","","","","","","","","",""
"html-button-response","201","211872","0.0-5.0-1.0-3.8","1","0","f2rl18god1nzyxj","","988.9999999999709","","<p>Press the button below when you are ready to continue.</p>","0","","","","","","","","","","","","","","","","","","","","","","","","","","","","","","","","",""
"audio-keyboard-response","202","214615","0.0-5.0-1.0-0.9","1","0","f2rl18god1nzyxj","","null","","sounds/sentences/right_rev/14_06_cfSWS.wav","","null","","","","","","","","","","","","","","","","","","","","","","","","","","","","","","","",""
"html-button-response","203","215495","0.0-5.0-1.0-1.9","1","0","f2rl18god1nzyxj","","878","","Was the sound coming from the left or the right?","1","","","1","INDUCTION-JUDGMENT","right","1","","","","","","","","","","","","","","","","","","","","","","","","","","",""
"html-keyboard-response","204","216498","0.0-5.0-1.0-2.9","1","0","f2rl18god1nzyxj","","null","","<p style=""color:#054d00;""><b>Correct!</b></p>","","null","","","","","","","","","","","","","","","","","","","","","","","","","","","","","","","",""
"html-button-response","205","217953","0.0-5.0-1.0-3.9","1","0","f2rl18god1nzyxj","","953","","<p>Press the button below when you are ready to continue.</p>","0","","","","","","","","","","","","","","","","","","","","","","","","","","","","","","","","",""
"html-keyboard-response","206","230263","0.0-6.0-0.0","1","0","f2rl18god1nzyxj","","11808","","<p>In this part of the study, you will hear sounds similar to those you just heard.</p><p>Please focus on these sounds, as you may be asked questions about them later.</p><p>Occasionally, the sounds will pause for up to two seconds. When this happens, please press SPACEBAR as quickly as you can.</br>This helps ensure that you are paying attention to the sounds.</p><p>This part of the study will take about 12 minutes to complete, and you will be given the opportunity to take a couple of short breaks every few minutes.</p><p><strong>Press SPACEBAR to begin</strong></p>","","32","","","","","","","","","","","","","","","","","","","","","","","","","","","","","","","",""
"html-keyboard-response","207","231265","0.0-6.0-1.0-0.0","1","0","f2rl18god1nzyxj","","null","","<p style=""font-size: 40px;"">+</p>","","null","","","","","","","","","","","","","","","","","","","","","","","","","","","","","","","",""
"html-keyboard-response","208","416261","0.0-6.0-1.0-1.0","1","0","f2rl18god1nzyxj","","null","","","","null","","","SL-TRAIN","","","2","null","null","sounds/A/TRAIN/SEQ__04.mp3","1","","","","","","","","","","","","","","","","","","","","","",""
"html-button-response","209","419193","0.0-6.0-1.0-2.0","1","0","f2rl18god1nzyxj","","2929","","<p>You may take a short break if you wish.</p>","0","","","","","","","","","","","","","","","","","","","","","","","","","","","","","","","","",""
"html-keyboard-response","210","420195","0.0-6.0-1.0-3.0","1","0","f2rl18god1nzyxj","","null","","<p style=""font-size: 40px;"">+</p>","","null","","","","","","","","","","","","","","","","","","","","","","","","","","","","","","","",""
"html-keyboard-response","211","605191","0.0-6.0-1.0-4.0","1","0","f2rl18god1nzyxj","","null","","","","null","","","SL-TRAIN","","","2","null","null","sounds/A/TRAIN/SEQ__11.mp3","2","","","","","","","","","","","","","","","","","","","","","",""
"html-button-response","212","608251","0.0-6.0-1.0-5.0","1","0","f2rl18god1nzyxj","","3057.0000000001164","","<p>You may take a short break if you wish.</p>","0","","","","","","","","","","","","","","","","","","","","","","","","","","","","","","","","",""
"html-keyboard-response","213","609254","0.0-6.0-1.0-6.0","1","0","f2rl18god1nzyxj","","null","","<p style=""font-size: 40px;"">+</p>","","null","","","","","","","","","","","","","","","","","","","","","","","","","","","","","","","",""
"html-keyboard-response","214","794250","0.0-6.0-1.0-7.0","1","0","f2rl18god1nzyxj","","null","","","","null","","","SL-TRAIN","","","2","null","null","sounds/A/TRAIN/SEQ__03.mp3","3","","","","","","","","","","","","","","","","","","","","","",""
"html-button-response","215","796881","0.0-6.0-1.0-8.0","1","0","f2rl18god1nzyxj","","2629.0000000001164","","<p>You may take a short break if you wish.</p>","0","","","","","","","","","","","","","","","","","","","","","","","","","","","","","","","","",""
"html-keyboard-response","216","797883","0.0-6.0-1.0-9.0","1","0","f2rl18god1nzyxj","","null","","<p style=""font-size: 40px;"">+</p>","","null","","","","","","","","","","","","","","","","","","","","","","","","","","","","","","","",""
"html-keyboard-response","217","982878","0.0-6.0-1.0-10.0","1","0","f2rl18god1nzyxj","","null","","","","null","","","SL-TRAIN","","","2","null","null","sounds/A/TRAIN/SEQ__09.mp3","4","","","","","","","","","","","","","","","","","","","","","",""
"html-button-response","218","984757","0.0-6.0-1.0-11.0","1","0","f2rl18god1nzyxj","","1876","","<p>You may take a short break if you wish.</p>","0","","","","","","","","","","","","","","","","","","","","","","","","","","","","","","","","",""
"html-button-response","219","1003011","0.0-7.0-0.0","1","0","f2rl18god1nzyxj","","18253.999999999884","","<p>Welcome to the second part of the study. This is a <u>familiarity task</u>.</p><p>You will now hear short sounds and will be asked to rate how familiar they sound to you <b>based on what you heard in the previous part of the study</b>.</p><p>You will rate 12 sounds in total.</p>","0","","","","","","","","","","","","","","","","","","","","","","","","","","","","","","","","",""
"html-keyboard-response","220","1004015","0.0-7.0-1.0-0.0","1","0","f2rl18god1nzyxj","","null","","","","null","","","","","","","","","","","","","","","","","","","","","","","","","","","","","","","",""
"audio-keyboard-response","221","1004957","0.0-7.0-1.0-1.0","1","0","f2rl18god1nzyxj","","null","","sounds/A/FAM/P003.mp3","","null","","","","","","","","","","","","","","","","","","","","","","","","","","","","","","","",""
"html-keyboard-response","222","1009869","0.0-7.0-1.0-2.0","1","0","f2rl18god1nzyxj","","4409","","<p>How familiar did this sound to you?</p><p>1&nbsp;&nbsp;&nbsp;&nbsp;&nbsp;&nbsp;&nbsp;&nbsp;&nbsp;&nbsp;&nbsp;&nbsp;&nbsp;&nbsp;&nbsp;&nbsp;&nbsp;&nbsp;&nbsp;2&nbsp;&nbsp;&nbsp;&nbsp;&nbsp;&nbsp;&nbsp;&nbsp;&nbsp;&nbsp;&nbsp;&nbsp;&nbsp;&nbsp;&nbsp;&nbsp;&nbsp;&nbsp;&nbsp;3&nbsp;&nbsp;&nbsp;&nbsp;&nbsp;&nbsp;&nbsp;&nbsp;&nbsp;&nbsp;&nbsp;&nbsp;&nbsp;&nbsp;&nbsp;&nbsp;&nbsp;&nbsp;&nbsp;4</p><p style=""font-size:14px"">Not at all familiar&nbsp;&nbsp;&nbsp;&nbsp;A little familiar&nbsp;&nbsp;&nbsp;Moderately familiar&nbsp;&nbsp;&nbsp;Extremely familiar</p><p>(press the corresponding number on your keyboard)</p>","","51","","","FAM-RESPONSE","","","","","","","","sounds/A/FAM/P003.mp3","partword","","","","","","","","","","","","","","","","","","","",""
"html-keyboard-response","223","1011873","0.0-7.0-1.0-0.1","1","0","f2rl18god1nzyxj","","null","","","","null","","","","","","","","","","","","","","","","","","","","","","","","","","","","","","","",""
"audio-keyboard-response","224","1012815","0.0-7.0-1.0-1.1","1","0","f2rl18god1nzyxj","","null","","sounds/A/FAM/W002.mp3","","null","","","","","","","","","","","","","","","","","","","","","","","","","","","","","","","",""
"html-keyboard-response","225","1014282","0.0-7.0-1.0-2.1","1","0","f2rl18god1nzyxj","","964","","<p>How familiar did this sound to you?</p><p>1&nbsp;&nbsp;&nbsp;&nbsp;&nbsp;&nbsp;&nbsp;&nbsp;&nbsp;&nbsp;&nbsp;&nbsp;&nbsp;&nbsp;&nbsp;&nbsp;&nbsp;&nbsp;&nbsp;2&nbsp;&nbsp;&nbsp;&nbsp;&nbsp;&nbsp;&nbsp;&nbsp;&nbsp;&nbsp;&nbsp;&nbsp;&nbsp;&nbsp;&nbsp;&nbsp;&nbsp;&nbsp;&nbsp;3&nbsp;&nbsp;&nbsp;&nbsp;&nbsp;&nbsp;&nbsp;&nbsp;&nbsp;&nbsp;&nbsp;&nbsp;&nbsp;&nbsp;&nbsp;&nbsp;&nbsp;&nbsp;&nbsp;4</p><p style=""font-size:14px"">Not at all familiar&nbsp;&nbsp;&nbsp;&nbsp;A little familiar&nbsp;&nbsp;&nbsp;Moderately familiar&nbsp;&nbsp;&nbsp;Extremely familiar</p><p>(press the corresponding number on your keyboard)</p>","","50","","","FAM-RESPONSE","","","","","","","","sounds/A/FAM/W002.mp3","word","","","","","","","","","","","","","","","","","","","",""
"html-keyboard-response","226","1016286","0.0-7.0-1.0-0.2","1","0","f2rl18god1nzyxj","","null","","","","null","","","","","","","","","","","","","","","","","","","","","","","","","","","","","","","",""
"audio-keyboard-response","227","1017228","0.0-7.0-1.0-1.2","1","0","f2rl18god1nzyxj","","null","","sounds/A/FAM/W003.mp3","","null","","","","","","","","","","","","","","","","","","","","","","","","","","","","","","","",""
"html-keyboard-response","228","1017999","0.0-7.0-1.0-2.2","1","0","f2rl18god1nzyxj","","267.99999999976717","","<p>How familiar did this sound to you?</p><p>1&nbsp;&nbsp;&nbsp;&nbsp;&nbsp;&nbsp;&nbsp;&nbsp;&nbsp;&nbsp;&nbsp;&nbsp;&nbsp;&nbsp;&nbsp;&nbsp;&nbsp;&nbsp;&nbsp;2&nbsp;&nbsp;&nbsp;&nbsp;&nbsp;&nbsp;&nbsp;&nbsp;&nbsp;&nbsp;&nbsp;&nbsp;&nbsp;&nbsp;&nbsp;&nbsp;&nbsp;&nbsp;&nbsp;3&nbsp;&nbsp;&nbsp;&nbsp;&nbsp;&nbsp;&nbsp;&nbsp;&nbsp;&nbsp;&nbsp;&nbsp;&nbsp;&nbsp;&nbsp;&nbsp;&nbsp;&nbsp;&nbsp;4</p><p style=""font-size:14px"">Not at all familiar&nbsp;&nbsp;&nbsp;&nbsp;A little familiar&nbsp;&nbsp;&nbsp;Moderately familiar&nbsp;&nbsp;&nbsp;Extremely familiar</p><p>(press the corresponding number on your keyboard)</p>","","51","","","FAM-RESPONSE","","","","","","","","sounds/A/FAM/W003.mp3","word","","","","","","","","","","","","","","","","","","","",""
"html-keyboard-response","229","1020002","0.0-7.0-1.0-0.3","1","0","f2rl18god1nzyxj","","null","","","","null","","","","","","","","","","","","","","","","","","","","","","","","","","","","","","","",""
"audio-keyboard-response","230","1020943","0.0-7.0-1.0-1.3","1","0","f2rl18god1nzyxj","","null","","sounds/A/FAM/N002.mp3","","null","","","","","","","","","","","","","","","","","","","","","","","","","","","","","","","",""
"html-keyboard-response","231","1023562","0.0-7.0-1.0-2.3","1","0","f2rl18god1nzyxj","","2118","","<p>How familiar did this sound to you?</p><p>1&nbsp;&nbsp;&nbsp;&nbsp;&nbsp;&nbsp;&nbsp;&nbsp;&nbsp;&nbsp;&nbsp;&nbsp;&nbsp;&nbsp;&nbsp;&nbsp;&nbsp;&nbsp;&nbsp;2&nbsp;&nbsp;&nbsp;&nbsp;&nbsp;&nbsp;&nbsp;&nbsp;&nbsp;&nbsp;&nbsp;&nbsp;&nbsp;&nbsp;&nbsp;&nbsp;&nbsp;&nbsp;&nbsp;3&nbsp;&nbsp;&nbsp;&nbsp;&nbsp;&nbsp;&nbsp;&nbsp;&nbsp;&nbsp;&nbsp;&nbsp;&nbsp;&nbsp;&nbsp;&nbsp;&nbsp;&nbsp;&nbsp;4</p><p style=""font-size:14px"">Not at all familiar&nbsp;&nbsp;&nbsp;&nbsp;A little familiar&nbsp;&nbsp;&nbsp;Moderately familiar&nbsp;&nbsp;&nbsp;Extremely familiar</p><p>(press the corresponding number on your keyboard)</p>","","49","","","FAM-RESPONSE","","","","","","","","sounds/A/FAM/N002.mp3","nonword","","","","","","","","","","","","","","","","","","","",""
"html-keyboard-response","232","1025565","0.0-7.0-1.0-0.4","1","0","f2rl18god1nzyxj","","null","","","","null","","","","","","","","","","","","","","","","","","","","","","","","","","","","","","","",""
"audio-keyboard-response","233","1026508","0.0-7.0-1.0-1.4","1","0","f2rl18god1nzyxj","","null","","sounds/A/FAM/W004.mp3","","null","","","","","","","","","","","","","","","","","","","","","","","","","","","","","","","",""
"html-keyboard-response","234","1032081","0.0-7.0-1.0-2.4","1","0","f2rl18god1nzyxj","","5071.999999999884","","<p>How familiar did this sound to you?</p><p>1&nbsp;&nbsp;&nbsp;&nbsp;&nbsp;&nbsp;&nbsp;&nbsp;&nbsp;&nbsp;&nbsp;&nbsp;&nbsp;&nbsp;&nbsp;&nbsp;&nbsp;&nbsp;&nbsp;2&nbsp;&nbsp;&nbsp;&nbsp;&nbsp;&nbsp;&nbsp;&nbsp;&nbsp;&nbsp;&nbsp;&nbsp;&nbsp;&nbsp;&nbsp;&nbsp;&nbsp;&nbsp;&nbsp;3&nbsp;&nbsp;&nbsp;&nbsp;&nbsp;&nbsp;&nbsp;&nbsp;&nbsp;&nbsp;&nbsp;&nbsp;&nbsp;&nbsp;&nbsp;&nbsp;&nbsp;&nbsp;&nbsp;4</p><p style=""font-size:14px"">Not at all familiar&nbsp;&nbsp;&nbsp;&nbsp;A little familiar&nbsp;&nbsp;&nbsp;Moderately familiar&nbsp;&nbsp;&nbsp;Extremely familiar</p><p>(press the corresponding number on your keyboard)</p>","","52","","","FAM-RESPONSE","","","","","","","","sounds/A/FAM/W004.mp3","word","","","","","","","","","","","","","","","","","","","",""
"html-keyboard-response","235","1034084","0.0-7.0-1.0-0.5","1","0","f2rl18god1nzyxj","","null","","","","null","","","","","","","","","","","","","","","","","","","","","","","","","","","","","","","",""
"audio-keyboard-response","236","1035025","0.0-7.0-1.0-1.5","1","0","f2rl18god1nzyxj","","null","","sounds/A/FAM/N003.mp3","","null","","","","","","","","","","","","","","","","","","","","","","","","","","","","","","","",""
"html-keyboard-response","237","1036272","0.0-7.0-1.0-2.5","1","0","f2rl18god1nzyxj","","744.9999999998836","","<p>How familiar did this sound to you?</p><p>1&nbsp;&nbsp;&nbsp;&nbsp;&nbsp;&nbsp;&nbsp;&nbsp;&nbsp;&nbsp;&nbsp;&nbsp;&nbsp;&nbsp;&nbsp;&nbsp;&nbsp;&nbsp;&nbsp;2&nbsp;&nbsp;&nbsp;&nbsp;&nbsp;&nbsp;&nbsp;&nbsp;&nbsp;&nbsp;&nbsp;&nbsp;&nbsp;&nbsp;&nbsp;&nbsp;&nbsp;&nbsp;&nbsp;3&nbsp;&nbsp;&nbsp;&nbsp;&nbsp;&nbsp;&nbsp;&nbsp;&nbsp;&nbsp;&nbsp;&nbsp;&nbsp;&nbsp;&nbsp;&nbsp;&nbsp;&nbsp;&nbsp;4</p><p style=""font-size:14px"">Not at all familiar&nbsp;&nbsp;&nbsp;&nbsp;A little familiar&nbsp;&nbsp;&nbsp;Moderately familiar&nbsp;&nbsp;&nbsp;Extremely familiar</p><p>(press the corresponding number on your keyboard)</p>","","50","","","FAM-RESPONSE","","","","","","","","sounds/A/FAM/N003.mp3","nonword","","","","","","","","","","","","","","","","","","","",""
"html-keyboard-response","238","1038274","0.0-7.0-1.0-0.6","1","0","f2rl18god1nzyxj","","null","","","","null","","","","","","","","","","","","","","","","","","","","","","","","","","","","","","","",""
"audio-keyboard-response","239","1039216","0.0-7.0-1.0-1.6","1","0","f2rl18god1nzyxj","","null","","sounds/A/FAM/N004.mp3","","null","","","","","","","","","","","","","","","","","","","","","","","","","","","","","","","",""
"html-keyboard-response","240","1049721","0.0-7.0-1.0-2.6","1","0","f2rl18god1nzyxj","","10007.000000000116","","<p>How familiar did this sound to you?</p><p>1&nbsp;&nbsp;&nbsp;&nbsp;&nbsp;&nbsp;&nbsp;&nbsp;&nbsp;&nbsp;&nbsp;&nbsp;&nbsp;&nbsp;&nbsp;&nbsp;&nbsp;&nbsp;&nbsp;2&nbsp;&nbsp;&nbsp;&nbsp;&nbsp;&nbsp;&nbsp;&nbsp;&nbsp;&nbsp;&nbsp;&nbsp;&nbsp;&nbsp;&nbsp;&nbsp;&nbsp;&nbsp;&nbsp;3&nbsp;&nbsp;&nbsp;&nbsp;&nbsp;&nbsp;&nbsp;&nbsp;&nbsp;&nbsp;&nbsp;&nbsp;&nbsp;&nbsp;&nbsp;&nbsp;&nbsp;&nbsp;&nbsp;4</p><p style=""font-size:14px"">Not at all familiar&nbsp;&nbsp;&nbsp;&nbsp;A little familiar&nbsp;&nbsp;&nbsp;Moderately familiar&nbsp;&nbsp;&nbsp;Extremely familiar</p><p>(press the corresponding number on your keyboard)</p>","","51","","","FAM-RESPONSE","","","","","","","","sounds/A/FAM/N004.mp3","nonword","","","","","","","","","","","","","","","","","","","",""
"html-keyboard-response","241","1051724","0.0-7.0-1.0-0.7","1","0","f2rl18god1nzyxj","","null","","","","null","","","","","","","","","","","","","","","","","","","","","","","","","","","","","","","",""
"audio-keyboard-response","242","1052666","0.0-7.0-1.0-1.7","1","0","f2rl18god1nzyxj","","null","","sounds/A/FAM/P001.mp3","","null","","","","","","","","","","","","","","","","","","","","","","","","","","","","","","","",""
"html-keyboard-response","243","1053696","0.0-7.0-1.0-2.7","1","0","f2rl18god1nzyxj","","527","","<p>How familiar did this sound to you?</p><p>1&nbsp;&nbsp;&nbsp;&nbsp;&nbsp;&nbsp;&nbsp;&nbsp;&nbsp;&nbsp;&nbsp;&nbsp;&nbsp;&nbsp;&nbsp;&nbsp;&nbsp;&nbsp;&nbsp;2&nbsp;&nbsp;&nbsp;&nbsp;&nbsp;&nbsp;&nbsp;&nbsp;&nbsp;&nbsp;&nbsp;&nbsp;&nbsp;&nbsp;&nbsp;&nbsp;&nbsp;&nbsp;&nbsp;3&nbsp;&nbsp;&nbsp;&nbsp;&nbsp;&nbsp;&nbsp;&nbsp;&nbsp;&nbsp;&nbsp;&nbsp;&nbsp;&nbsp;&nbsp;&nbsp;&nbsp;&nbsp;&nbsp;4</p><p style=""font-size:14px"">Not at all familiar&nbsp;&nbsp;&nbsp;&nbsp;A little familiar&nbsp;&nbsp;&nbsp;Moderately familiar&nbsp;&nbsp;&nbsp;Extremely familiar</p><p>(press the corresponding number on your keyboard)</p>","","50","","","FAM-RESPONSE","","","","","","","","sounds/A/FAM/P001.mp3","partword","","","","","","","","","","","","","","","","","","","",""
"html-keyboard-response","244","1055699","0.0-7.0-1.0-0.8","1","0","f2rl18god1nzyxj","","null","","","","null","","","","","","","","","","","","","","","","","","","","","","","","","","","","","","","",""
"audio-keyboard-response","245","1056641","0.0-7.0-1.0-1.8","1","0","f2rl18god1nzyxj","","null","","sounds/A/FAM/P004.mp3","","null","","","","","","","","","","","","","","","","","","","","","","","","","","","","","","","",""
"html-keyboard-response","246","1059758","0.0-7.0-1.0-2.8","1","0","f2rl18god1nzyxj","","2615","","<p>How familiar did this sound to you?</p><p>1&nbsp;&nbsp;&nbsp;&nbsp;&nbsp;&nbsp;&nbsp;&nbsp;&nbsp;&nbsp;&nbsp;&nbsp;&nbsp;&nbsp;&nbsp;&nbsp;&nbsp;&nbsp;&nbsp;2&nbsp;&nbsp;&nbsp;&nbsp;&nbsp;&nbsp;&nbsp;&nbsp;&nbsp;&nbsp;&nbsp;&nbsp;&nbsp;&nbsp;&nbsp;&nbsp;&nbsp;&nbsp;&nbsp;3&nbsp;&nbsp;&nbsp;&nbsp;&nbsp;&nbsp;&nbsp;&nbsp;&nbsp;&nbsp;&nbsp;&nbsp;&nbsp;&nbsp;&nbsp;&nbsp;&nbsp;&nbsp;&nbsp;4</p><p style=""font-size:14px"">Not at all familiar&nbsp;&nbsp;&nbsp;&nbsp;A little familiar&nbsp;&nbsp;&nbsp;Moderately familiar&nbsp;&nbsp;&nbsp;Extremely familiar</p><p>(press the corresponding number on your keyboard)</p>","","52","","","FAM-RESPONSE","","","","","","","","sounds/A/FAM/P004.mp3","partword","","","","","","","","","","","","","","","","","","","",""
"html-keyboard-response","247","1061761","0.0-7.0-1.0-0.9","1","0","f2rl18god1nzyxj","","null","","","","null","","","","","","","","","","","","","","","","","","","","","","","","","","","","","","","",""
"audio-keyboard-response","248","1062579","0.0-7.0-1.0-1.9","1","0","f2rl18god1nzyxj","","816","","sounds/A/FAM/P002.mp3","","50","","","","","","","","","","","","","","","","","","","","","","","","","","","","","","","",""
"html-keyboard-response","249","1066936","0.0-7.0-1.0-2.9","1","0","f2rl18god1nzyxj","","3855","","<p>How familiar did this sound to you?</p><p>1&nbsp;&nbsp;&nbsp;&nbsp;&nbsp;&nbsp;&nbsp;&nbsp;&nbsp;&nbsp;&nbsp;&nbsp;&nbsp;&nbsp;&nbsp;&nbsp;&nbsp;&nbsp;&nbsp;2&nbsp;&nbsp;&nbsp;&nbsp;&nbsp;&nbsp;&nbsp;&nbsp;&nbsp;&nbsp;&nbsp;&nbsp;&nbsp;&nbsp;&nbsp;&nbsp;&nbsp;&nbsp;&nbsp;3&nbsp;&nbsp;&nbsp;&nbsp;&nbsp;&nbsp;&nbsp;&nbsp;&nbsp;&nbsp;&nbsp;&nbsp;&nbsp;&nbsp;&nbsp;&nbsp;&nbsp;&nbsp;&nbsp;4</p><p style=""font-size:14px"">Not at all familiar&nbsp;&nbsp;&nbsp;&nbsp;A little familiar&nbsp;&nbsp;&nbsp;Moderately familiar&nbsp;&nbsp;&nbsp;Extremely familiar</p><p>(press the corresponding number on your keyboard)</p>","","50","","","FAM-RESPONSE","","","","","","","","sounds/A/FAM/P002.mp3","partword","","","","","","","","","","","","","","","","","","","",""
"html-keyboard-response","250","1068939","0.0-7.0-1.0-0.10","1","0","f2rl18god1nzyxj","","null","","","","null","","","","","","","","","","","","","","","","","","","","","","","","","","","","","","","",""
"audio-keyboard-response","251","1069882","0.0-7.0-1.0-1.10","1","0","f2rl18god1nzyxj","","null","","sounds/A/FAM/W001.mp3","","null","","","","","","","","","","","","","","","","","","","","","","","","","","","","","","","",""
"html-keyboard-response","252","1075267","0.0-7.0-1.0-2.10","1","0","f2rl18god1nzyxj","","4883","","<p>How familiar did this sound to you?</p><p>1&nbsp;&nbsp;&nbsp;&nbsp;&nbsp;&nbsp;&nbsp;&nbsp;&nbsp;&nbsp;&nbsp;&nbsp;&nbsp;&nbsp;&nbsp;&nbsp;&nbsp;&nbsp;&nbsp;2&nbsp;&nbsp;&nbsp;&nbsp;&nbsp;&nbsp;&nbsp;&nbsp;&nbsp;&nbsp;&nbsp;&nbsp;&nbsp;&nbsp;&nbsp;&nbsp;&nbsp;&nbsp;&nbsp;3&nbsp;&nbsp;&nbsp;&nbsp;&nbsp;&nbsp;&nbsp;&nbsp;&nbsp;&nbsp;&nbsp;&nbsp;&nbsp;&nbsp;&nbsp;&nbsp;&nbsp;&nbsp;&nbsp;4</p><p style=""font-size:14px"">Not at all familiar&nbsp;&nbsp;&nbsp;&nbsp;A little familiar&nbsp;&nbsp;&nbsp;Moderately familiar&nbsp;&nbsp;&nbsp;Extremely familiar</p><p>(press the corresponding number on your keyboard)</p>","","51","","","FAM-RESPONSE","","","","","","","","sounds/A/FAM/W001.mp3","word","","","","","","","","","","","","","","","","","","","",""
"html-keyboard-response","253","1077270","0.0-7.0-1.0-0.11","1","0","f2rl18god1nzyxj","","null","","","","null","","","","","","","","","","","","","","","","","","","","","","","","","","","","","","","",""
"audio-keyboard-response","254","1078175","0.0-7.0-1.0-1.11","1","0","f2rl18god1nzyxj","","904","","sounds/A/FAM/N001.mp3","","52","","","","","","","","","","","","","","","","","","","","","","","","","","","","","","","",""
"html-keyboard-response","255","1081096","0.0-7.0-1.0-2.11","1","0","f2rl18god1nzyxj","","2418.999999999767","","<p>How familiar did this sound to you?</p><p>1&nbsp;&nbsp;&nbsp;&nbsp;&nbsp;&nbsp;&nbsp;&nbsp;&nbsp;&nbsp;&nbsp;&nbsp;&nbsp;&nbsp;&nbsp;&nbsp;&nbsp;&nbsp;&nbsp;2&nbsp;&nbsp;&nbsp;&nbsp;&nbsp;&nbsp;&nbsp;&nbsp;&nbsp;&nbsp;&nbsp;&nbsp;&nbsp;&nbsp;&nbsp;&nbsp;&nbsp;&nbsp;&nbsp;3&nbsp;&nbsp;&nbsp;&nbsp;&nbsp;&nbsp;&nbsp;&nbsp;&nbsp;&nbsp;&nbsp;&nbsp;&nbsp;&nbsp;&nbsp;&nbsp;&nbsp;&nbsp;&nbsp;4</p><p style=""font-size:14px"">Not at all familiar&nbsp;&nbsp;&nbsp;&nbsp;A little familiar&nbsp;&nbsp;&nbsp;Moderately familiar&nbsp;&nbsp;&nbsp;Extremely familiar</p><p>(press the corresponding number on your keyboard)</p>","","52","","","FAM-RESPONSE","","","","","","","","sounds/A/FAM/N001.mp3","nonword","","","","","","","","","","","","","","","","","","","",""
"html-button-response","256","1090090","0.0-8.0-0.0","1","0","f2rl18god1nzyxj","","7992","","<p>You will now listen to longer sound sequences.</p><p>Each sound sequence will last about 16 seconds.</p><p>On each trial, you will be given a <u>TARGET SOUND</u>. Your task is to listen very carefully for this sound.</p><p>Every time you hear the <u>TARGET SOUND</u>, you will press the <b>SPACEBAR</b> as quickly and accurately as you can.</p>","0","","","","","","","","","","","","","","","","","","","","","","","","","","","","","","","","",""
"html-button-response","257","1098493","0.0-8.0-1.0","1","0","f2rl18god1nzyxj","","8151.000000000233","","<p>It is very important that you make your responses as quickly and accurately as possible.</p><p>To help you make your responses, you will be able to listen to the <u>TARGET SOUND</u> at the beginning of each trial.</p><p>There will be 36 total trials.</p><p><b>Note: This is meant to be a difficult task. We simply want you to try your best.</p>","0","","","","","","","","","","","","","","","","","","","","","","","","","","","","","","","","",""
"html-button-response","258","1100569","0.0-8.0-2.0-0.0","1","0","f2rl18god1nzyxj","","1823","","<p>Trial 1 of 36</p>","0","","","","","","","","","","","","","","NI","sounds/syllables/ni_SWS.wav","2400,4200,6000,10500","3","","","","","","","","","","","","","","","",""
"html-keyboard-response","259","1103373","0.0-8.0-2.0-1.0","1","0","f2rl18god1nzyxj","","2802","","","","80","","","","","","","","","","","","","NI","","2400,4200,6000,10500","3","","","","","","","","","","","","","","","",""
"audio-keyboard-response","260","1103674","0.0-8.0-2.0-2.0-0.0","1","0","f2rl18god1nzyxj","","null","","sounds/syllables/ni_SWS.wav","","null","","","","","","","","","","","","","","","","","","","","","","","","","","","","","","","",""
"html-keyboard-response","261","1106578","0.0-8.0-2.0-2.0-1.0","1","0","f2rl18god1nzyxj","","2904","","<p>To replay the <u>TARGET SOUND</u>, press P.</p> When you are ready to begin, press SPACEBAR.","","80","","","","","","","","","","","","","","","","","","","","","","","","","","","","","","","",""
"audio-keyboard-response","262","1107383","0.0-8.0-2.0-2.1-0.1","1","0","f2rl18god1nzyxj","","null","","sounds/syllables/ni_SWS.wav","","null","","","","","","","","","","","","","","","","","","","","","","","","","","","","","","","",""
"html-keyboard-response","263","1107909","0.0-8.0-2.0-2.1-1.1","1","0","f2rl18god1nzyxj","","525","","<p>To replay the <u>TARGET SOUND</u>, press P.</p> When you are ready to begin, press SPACEBAR.","","32","","","","","","","","","","","","","","","","","","","","","","","","","","","","","","","",""
"audio-keyboard-response","264","1122857","0.0-8.0-2.0-3.0","1","0","f2rl18god1nzyxj","","1941","","sounds/A/TD/NI_09_TD.mp3","","32","","","TD_SUMMARY","","","","","","","","","","NI","","2400,4200,6000,10500","3","2400","4200","6000","10500","755","322","535","null","1940_3155_4522_6535_7516_8698_10486_12058","2","","","","","",""
"html-button-response","265","1125144","0.0-8.0-2.0-0.1","1","0","f2rl18god1nzyxj","","2285","","<p>Trial 2 of 36</p>","0","","","","","","","","","","","","","","SU","sounds/syllables/su_SWS.wav","2400,5100,6900,8700","3","","","","","","","","","","","","","","","",""
"html-keyboard-response","266","1127423","0.0-8.0-2.0-1.1","1","0","f2rl18god1nzyxj","","2276","","","","80","","","","","","","","","","","","","SU","","2400,5100,6900,8700","3","","","","","","","","","","","","","","","",""
"audio-keyboard-response","267","1127723","0.0-8.0-2.0-2.2-0.2","1","0","f2rl18god1nzyxj","","null","","sounds/syllables/su_SWS.wav","","null","","","","","","","","","","","","","","","","","","","","","","","","","","","","","","","",""
"html-keyboard-response","268","1128948","0.0-8.0-2.0-2.2-1.2","1","0","f2rl18god1nzyxj","","1224","","<p>To replay the <u>TARGET SOUND</u>, press P.</p> When you are ready to begin, press SPACEBAR.","","32","","","","","","","","","","","","","","","","","","","","","","","","","","","","","","","",""
"audio-keyboard-response","269","1143898","0.0-8.0-2.0-3.1","1","0","f2rl18god1nzyxj","","592","","sounds/A/TD/SU_01_TD.mp3","","32","","","TD_SUMMARY","","","","","","","","","","SU","","2400,5100,6900,8700","3","2400","5100","6900","8700","497","568","797","null","________594_2897_5023_5668_7697_8751_11064_13472","1","","","","","",""
"html-button-response","270","1145739","0.0-8.0-2.0-0.2","1","0","f2rl18god1nzyxj","","1839","","<p>Trial 3 of 36</p>","0","","","","","","","","","","","","","","NI","sounds/syllables/ni_SWS.wav","1500,8700,10500,13200","3","","","","","","","","","","","","","","","",""
"html-keyboard-response","271","1150109","0.0-8.0-2.0-1.2","1","0","f2rl18god1nzyxj","","4368.999999999767","","","","80","","","","","","","","","","","","","NI","","1500,8700,10500,13200","3","","","","","","","","","","","","","","","",""
"audio-keyboard-response","272","1150410","0.0-8.0-2.0-2.3-0.3","1","0","f2rl18god1nzyxj","","null","","sounds/syllables/ni_SWS.wav","","null","","","","","","","","","","","","","","","","","","","","","","","","","","","","","","","",""
"html-keyboard-response","273","1151101","0.0-8.0-2.0-2.3-1.3","1","0","f2rl18god1nzyxj","","690","","<p>To replay the <u>TARGET SOUND</u>, press P.</p> When you are ready to begin, press SPACEBAR.","","80","","","","","","","","","","","","","","","","","","","","","","","","","","","","","","","",""
"audio-keyboard-response","274","1151903","0.0-8.0-2.0-2.4-0.4","1","0","f2rl18god1nzyxj","","null","","sounds/syllables/ni_SWS.wav","","null","","","","","","","","","","","","","","","","","","","","","","","","","","","","","","","",""
"html-keyboard-response","275","1152346","0.0-8.0-2.0-2.4-1.4","1","0","f2rl18god1nzyxj","","442.00000000023283","","<p>To replay the <u>TARGET SOUND</u>, press P.</p> When you are ready to begin, press SPACEBAR.","","32","","","","","","","","","","","","","","","","","","","","","","","","","","","","","","","",""
"audio-keyboard-response","276","1167295","0.0-8.0-2.0-3.2","1","0","f2rl18god1nzyxj","","2256","","sounds/A/TD/NI_01_TD.mp3","","32","","","TD_SUMMARY","","","","","","","","","","NI","","1500,8700,10500,13200","3","1500","8700","10500","13200","757.0000000002328","510","809","598","________________2257.000000000233_2971_5996_7723_9210_10220_11309_13798","2","","","","","",""
"html-button-response","277","1169203","0.0-8.0-2.0-0.3","1","0","f2rl18god1nzyxj","","1906","","<p>Trial 4 of 36</p>","0","","","","","","","","","","","","","","PU","sounds/syllables/pu_SWS.wav","1200,5700,7500,10200","2","","","","","","","","","","","","","","","",""
"html-keyboard-response","278","1170648","0.0-8.0-2.0-1.3","1","0","f2rl18god1nzyxj","","1444","","","","80","","","","","","","","","","","","","PU","","1200,5700,7500,10200","2","","","","","","","","","","","","","","","",""
"audio-keyboard-response","279","1170950","0.0-8.0-2.0-2.5-0.5","1","0","f2rl18god1nzyxj","","null","","sounds/syllables/pu_SWS.wav","","null","","","","","","","","","","","","","","","","","","","","","","","","","","","","","","","",""
"html-keyboard-response","280","1172036","0.0-8.0-2.0-2.5-1.5","1","0","f2rl18god1nzyxj","","1084","","<p>To replay the <u>TARGET SOUND</u>, press P.</p> When you are ready to begin, press SPACEBAR.","","80","","","","","","","","","","","","","","","","","","","","","","","","","","","","","","","",""
"audio-keyboard-response","281","1172838","0.0-8.0-2.0-2.6-0.6","1","0","f2rl18god1nzyxj","","null","","sounds/syllables/pu_SWS.wav","","null","","","","","","","","","","","","","","","","","","","","","","","","","","","","","","","",""
"html-keyboard-response","282","1173777","0.0-8.0-2.0-2.6-1.6","1","0","f2rl18god1nzyxj","","938.0000000002328","","<p>To replay the <u>TARGET SOUND</u>, press P.</p> When you are ready to begin, press SPACEBAR.","","32","","","","","","","","","","","","","","","","","","","","","","","","","","","","","","","",""
"audio-keyboard-response","283","1188726","0.0-8.0-2.0-3.3","1","0","f2rl18god1nzyxj","","2056","","sounds/A/TD/PU_08_TD.mp3","","32","","","TD_SUMMARY","","","","","","","","","","PU","","1200,5700,7500,10200","2","1200","5700","7500","10200","856","null","613.0000000002328","null","________________________2056_3500_4537_5599_8113.000000000233_9616_12235_13699.000000000233","2","","","","","",""
"html-button-response","284","1191950","0.0-8.0-2.0-0.4","1","0","f2rl18god1nzyxj","","3222","","<p>Trial 5 of 36</p>","0","","","","","","","","","","","","","","SU","sounds/syllables/su_SWS.wav","1500,5100,8700,11400","3","","","","","","","","","","","","","","","",""
"html-keyboard-response","285","1193156","0.0-8.0-2.0-1.4","1","0","f2rl18god1nzyxj","","1205","","","","80","","","","","","","","","","","","","SU","","1500,5100,8700,11400","3","","","","","","","","","","","","","","","",""
"audio-keyboard-response","286","1193459","0.0-8.0-2.0-2.7-0.7","1","0","f2rl18god1nzyxj","","null","","sounds/syllables/su_SWS.wav","","null","","","","","","","","","","","","","","","","","","","","","","","","","","","","","","","",""
"html-keyboard-response","287","1194381","0.0-8.0-2.0-2.7-1.7","1","0","f2rl18god1nzyxj","","921.9999999997672","","<p>To replay the <u>TARGET SOUND</u>, press P.</p> When you are ready to begin, press SPACEBAR.","","32","","","","","","","","","","","","","","","","","","","","","","","","","","","","","","","",""
"audio-keyboard-response","288","1209330","0.0-8.0-2.0-3.4","1","0","f2rl18god1nzyxj","","565","","sounds/A/TD/SU_03_TD.mp3","","32","","","TD_SUMMARY","","","","","","","","","","SU","","1500,5100,8700,11400","3","1500","5100","8700","11400","null","null","null","null","________________________________564_2987_4629_7597_11312","1","","","","","",""
"html-button-response","289","1211508","0.0-8.0-2.0-0.5","1","0","f2rl18god1nzyxj","","2176","","<p>Trial 6 of 36</p>","0","","","","","","","","","","","","","","RU","sounds/syllables/ru_SWS.wav","900,3600,6300,9900","1","","","","","","","","","","","","","","","",""
"html-keyboard-response","290","1212438","0.0-8.0-2.0-1.5","1","0","f2rl18god1nzyxj","","929","","","","80","","","","","","","","","","","","","RU","","900,3600,6300,9900","1","","","","","","","","","","","","","","","",""
"audio-keyboard-response","291","1212738","0.0-8.0-2.0-2.8-0.8","1","0","f2rl18god1nzyxj","","null","","sounds/syllables/ru_SWS.wav","","null","","","","","","","","","","","","","","","","","","","","","","","","","","","","","","","",""
"html-keyboard-response","292","1213818","0.0-8.0-2.0-2.8-1.8","1","0","f2rl18god1nzyxj","","1079","","<p>To replay the <u>TARGET SOUND</u>, press P.</p> When you are ready to begin, press SPACEBAR.","","80","","","","","","","","","","","","","","","","","","","","","","","","","","","","","","","",""
"audio-keyboard-response","293","1214620","0.0-8.0-2.0-2.9-0.9","1","0","f2rl18god1nzyxj","","null","","sounds/syllables/ru_SWS.wav","","null","","","","","","","","","","","","","","","","","","","","","","","","","","","","","","","",""
"html-keyboard-response","294","1215245","0.0-8.0-2.0-2.9-1.9","1","0","f2rl18god1nzyxj","","624","","<p>To replay the <u>TARGET SOUND</u>, press P.</p> When you are ready to begin, press SPACEBAR.","","32","","","","","","","","","","","","","","","","","","","","","","","","","","","","","","","",""
"audio-keyboard-response","295","1230193","0.0-8.0-2.0-3.5","1","0","f2rl18god1nzyxj","","1717","","sounds/A/TD/RU_08_TD.mp3","","32","","","TD_SUMMARY","","","","","","","","","","RU","","900,3600,6300,9900","1","900","3600","6300","9900","815.9999999997672","856.9999999997672","1066.9999999997672","null","_____________________________________1715.9999999997672_4456.999999999767_6288_7366.999999999767_7593.999999999767_8754.999999999767_12478.999999999767","2","","","","","",""
"html-button-response","296","1232689","0.0-8.0-2.0-0.6","1","0","f2rl18god1nzyxj","","2495","","<p>Trial 7 of 36</p>","0","","","","","","","","","","","","","","KO","sounds/syllables/ko_SWS.wav","1500,4200,9600,12300","3","","","","","","","","","","","","","","","",""
"html-keyboard-response","297","1233777","0.0-8.0-2.0-1.6","1","0","f2rl18god1nzyxj","","1086","","","","80","","","","","","","","","","","","","KO","","1500,4200,9600,12300","3","","","","","","","","","","","","","","","",""
"audio-keyboard-response","298","1234078","0.0-8.0-2.0-2.10-0.10","1","0","f2rl18god1nzyxj","","null","","sounds/syllables/ko_SWS.wav","","null","","","","","","","","","","","","","","","","","","","","","","","","","","","","","","","",""
"html-keyboard-response","299","1234713","0.0-8.0-2.0-2.10-1.10","1","0","f2rl18god1nzyxj","","633","","<p>To replay the <u>TARGET SOUND</u>, press P.</p> When you are ready to begin, press SPACEBAR.","","32","","","","","","","","","","","","","","","","","","","","","","","","","","","","","","","",""
"audio-keyboard-response","300","1249662","0.0-8.0-2.0-3.6","1","0","f2rl18god1nzyxj","","1485","","sounds/A/TD/KO_10_TD.mp3","","32","","","TD_SUMMARY","","","","","","","","","","KO","","1500,4200,9600,12300","3","1500","4200","9600","12300","null","null","null","485","____________________________________________1487_4187_8998_11904_12785","1","","","","","",""
"html-button-response","301","1253838","0.0-8.0-2.0-0.7","1","0","f2rl18god1nzyxj","","4174","","<p>Trial 8 of 36</p>","0","","","","","","","","","","","","","","GE","sounds/syllables/ge_SWS.wav","3000,5700,8400,12900","2","","","","","","","","","","","","","","","",""
"html-keyboard-response","302","1254472","0.0-8.0-2.0-1.7","1","0","f2rl18god1nzyxj","","633","","","","80","","","","","","","","","","","","","GE","","3000,5700,8400,12900","2","","","","","","","","","","","","","","","",""
"audio-keyboard-response","303","1254773","0.0-8.0-2.0-2.11-0.11","1","0","f2rl18god1nzyxj","","null","","sounds/syllables/ge_SWS.wav","","null","","","","","","","","","","","","","","","","","","","","","","","","","","","","","","","",""
"html-keyboard-response","304","1255550","0.0-8.0-2.0-2.11-1.11","1","0","f2rl18god1nzyxj","","775","","<p>To replay the <u>TARGET SOUND</u>, press P.</p> When you are ready to begin, press SPACEBAR.","","80","","","","","","","","","","","","","","","","","","","","","","","","","","","","","","","",""
"audio-keyboard-response","305","1256352","0.0-8.0-2.0-2.12-0.12","1","0","f2rl18god1nzyxj","","null","","sounds/syllables/ge_SWS.wav","","null","","","","","","","","","","","","","","","","","","","","","","","","","","","","","","","",""
"html-keyboard-response","306","1256815","0.0-8.0-2.0-2.12-1.12","1","0","f2rl18god1nzyxj","","463","","<p>To replay the <u>TARGET SOUND</u>, press P.</p> When you are ready to begin, press SPACEBAR.","","32","","","","","","","","","","","","","","","","","","","","","","","","","","","","","","","",""
"audio-keyboard-response","307","1271765","0.0-8.0-2.0-3.7","1","0","f2rl18god1nzyxj","","1597","","sounds/A/TD/GE_09_TD.mp3","","32","","","TD_SUMMARY","","","","","","","","","","GE","","3000,5700,8400,12900","2","3000","5700","8400","12900","1091","null","null","null","_________________________________________________1598_3092_4091_7402_8383_10165","2","","","","","",""
"html-button-response","308","1274428","0.0-8.0-2.0-0.8","1","0","f2rl18god1nzyxj","","2661","","<p>Trial 9 of 36</p>","0","","","","","","","","","","","","","","FU","sounds/syllables/fu_SWS.wav","5700,7500,10200,12900","2","","","","","","","","","","","","","","","",""
"html-keyboard-response","309","1275025","0.0-8.0-2.0-1.8","1","0","f2rl18god1nzyxj","","595","","","","80","","","","","","","","","","","","","FU","","5700,7500,10200,12900","2","","","","","","","","","","","","","","","",""
"audio-keyboard-response","310","1275327","0.0-8.0-2.0-2.13-0.13","1","0","f2rl18god1nzyxj","","null","","sounds/syllables/fu_SWS.wav","","null","","","","","","","","","","","","","","","","","","","","","","","","","","","","","","","",""
"html-keyboard-response","311","1277068","0.0-8.0-2.0-2.13-1.13","1","0","f2rl18god1nzyxj","","1740","","<p>To replay the <u>TARGET SOUND</u>, press P.</p> When you are ready to begin, press SPACEBAR.","","32","","","","","","","","","","","","","","","","","","","","","","","","","","","","","","","",""
"audio-keyboard-response","312","1292017","0.0-8.0-2.0-3.8","1","0","f2rl18god1nzyxj","","2589","","sounds/A/TD/FU_10_TD.mp3","","32","","","TD_SUMMARY","","","","","","","","","","FU","","5700,7500,10200,12900","2","5700","7500","10200","12900","null","null","899.9999999997672","null","_______________________________________________________2589.999999999767_4396.999999999767_7297.999999999767_10481.999999999767_11099.999999999767","1","","","","","",""
"html-button-response","313","1294886","0.0-8.0-2.0-0.9","1","0","f2rl18god1nzyxj","","2867","","<p>Trial 10 of 36</p>","0","","","","","","","","","","","","","","RU","sounds/syllables/ru_SWS.wav","900,5400,7200,11700","1","","","","","","","","","","","","","","","",""
"html-keyboard-response","314","1296724","0.0-8.0-2.0-1.9","1","0","f2rl18god1nzyxj","","1836","","","","80","","","","","","","","","","","","","RU","","900,5400,7200,11700","1","","","","","","","","","","","","","","","",""
"audio-keyboard-response","315","1297025","0.0-8.0-2.0-2.14-0.14","1","0","f2rl18god1nzyxj","","null","","sounds/syllables/ru_SWS.wav","","null","","","","","","","","","","","","","","","","","","","","","","","","","","","","","","","",""
"html-keyboard-response","316","1298418","0.0-8.0-2.0-2.14-1.14","1","0","f2rl18god1nzyxj","","1392","","<p>To replay the <u>TARGET SOUND</u>, press P.</p> When you are ready to begin, press SPACEBAR.","","32","","","","","","","","","","","","","","","","","","","","","","","","","","","","","","","",""
"audio-keyboard-response","317","1313368","0.0-8.0-2.0-3.9","1","0","f2rl18god1nzyxj","","1627","","sounds/A/TD/RU_02_TD.mp3","","32","","","TD_SUMMARY","","","","","","","","","","RU","","900,5400,7200,11700","1","900","5400","7200","11700","726","1052","978","587","____________________________________________________________1626_3003_6452_7067_7767_8178_9603_12287","1","","","","","",""
"html-button-response","318","1316491","0.0-8.0-2.0-0.10","1","0","f2rl18god1nzyxj","","3121","","<p>Trial 11 of 36</p>","0","","","","","","","","","","","","","","RU","sounds/syllables/ru_SWS.wav","1800,5400,7200,9000","1","","","","","","","","","","","","","","","",""
"html-keyboard-response","319","1320149","0.0-8.0-2.0-1.10","1","0","f2rl18god1nzyxj","","3655.999999999767","","","","80","","","","","","","","","","","","","RU","","1800,5400,7200,9000","1","","","","","","","","","","","","","","","",""
"audio-keyboard-response","320","1320450","0.0-8.0-2.0-2.15-0.15","1","0","f2rl18god1nzyxj","","null","","sounds/syllables/ru_SWS.wav","","null","","","","","","","","","","","","","","","","","","","","","","","","","","","","","","","",""
"html-keyboard-response","321","1321068","0.0-8.0-2.0-2.15-1.15","1","0","f2rl18god1nzyxj","","616","","<p>To replay the <u>TARGET SOUND</u>, press P.</p> When you are ready to begin, press SPACEBAR.","","32","","","","","","","","","","","","","","","","","","","","","","","","","","","","","","","",""
"audio-keyboard-response","322","1336018","0.0-8.0-2.0-3.10","1","0","f2rl18god1nzyxj","","1099","","sounds/A/TD/RU_03_TD.mp3","","32","","","TD_SUMMARY","","","","","","","","","","RU","","1800,5400,7200,9000","1","1800","5400","7200","9000","1176","null","null","null","____________________________________________________________________1100_1527.0000000002328_2976_3838_6692_6948_9029_10750_11051","1","","","","","",""
"html-button-response","323","1337700","0.0-8.0-2.0-0.11","1","0","f2rl18god1nzyxj","","1679.9999999997672","","<p>Trial 12 of 36</p>","0","","","","","","","","","","","","","","FE","sounds/syllables/fe_SWS.wav","900,3600,5400,10800","1","","","","","","","","","","","","","","","",""
"html-keyboard-response","324","1339005","0.0-8.0-2.0-1.11","1","0","f2rl18god1nzyxj","","1304","","","","80","","","","","","","","","","","","","FE","","900,3600,5400,10800","1","","","","","","","","","","","","","","","",""
"audio-keyboard-response","325","1339308","0.0-8.0-2.0-2.16-0.16","1","0","f2rl18god1nzyxj","","null","","sounds/syllables/fe_SWS.wav","","null","","","","","","","","","","","","","","","","","","","","","","","","","","","","","","","",""
"html-keyboard-response","326","1340192","0.0-8.0-2.0-2.16-1.16","1","0","f2rl18god1nzyxj","","882.9999999997672","","<p>To replay the <u>TARGET SOUND</u>, press P.</p> When you are ready to begin, press SPACEBAR.","","32","","","","","","","","","","","","","","","","","","","","","","","","","","","","","","","",""
"audio-keyboard-response","327","1355142","0.0-8.0-2.0-3.11","1","0","f2rl18god1nzyxj","","1088","","sounds/A/TD/FE_06_TD.mp3","","32","","","TD_SUMMARY","","","","","","","","","","FE","","900,3600,5400,10800","1","900","3600","5400","10800","1085","617","1094","1144","_____________________________________________________________________________1089_1985_2625_4217_4915_6494_10151_10401_11944_12284","1","","","","","",""
"html-button-response","328","1363135","0.0-8.0-2.0-0.12","1","0","f2rl18god1nzyxj","","7991","","<p>Trial 13 of 36</p>","0","","","","","","","","","","","","","","NI","sounds/syllables/ni_SWS.wav","2400,6900,8700,12300","3","","","","","","","","","","","","","","","",""
"html-keyboard-response","329","1373025","0.0-8.0-2.0-1.12","1","0","f2rl18god1nzyxj","","9889","","","","80","","","","","","","","","","","","","NI","","2400,6900,8700,12300","3","","","","","","","","","","","","","","","",""
"audio-keyboard-response","330","1373328","0.0-8.0-2.0-2.17-0.17","1","0","f2rl18god1nzyxj","","null","","sounds/syllables/ni_SWS.wav","","null","","","","","","","","","","","","","","","","","","","","","","","","","","","","","","","",""
"html-keyboard-response","331","1374418","0.0-8.0-2.0-2.17-1.17","1","0","f2rl18god1nzyxj","","1088","","<p>To replay the <u>TARGET SOUND</u>, press P.</p> When you are ready to begin, press SPACEBAR.","","32","","","","","","","","","","","","","","","","","","","","","","","","","","","","","","","",""
"audio-keyboard-response","332","1389367","0.0-8.0-2.0-3.12","1","0","f2rl18god1nzyxj","","760","","sounds/A/TD/NI_04_TD.mp3","","32","","","TD_SUMMARY","","","","","","","","","","NI","","2400,6900,8700,12300","3","2400","6900","8700","12300","295","null","549","null","_______________________________________________________________________________________759_2177_2695_3878_5527_6839_9249_10762_13744","1","","","","","",""
"html-button-response","333","1391226","0.0-8.0-2.0-0.13","1","0","f2rl18god1nzyxj","","1857","","<p>Trial 14 of 36</p>","0","","","","","","","","","","","","","","FE","sounds/syllables/fe_SWS.wav","1800,6300,9000,12600","1","","","","","","","","","","","","","","","",""
"html-keyboard-response","334","1392437","0.0-8.0-2.0-1.13","1","0","f2rl18god1nzyxj","","1209","","","","80","","","","","","","","","","","","","FE","","1800,6300,9000,12600","1","","","","","","","","","","","","","","","",""
"audio-keyboard-response","335","1392737","0.0-8.0-2.0-2.18-0.18","1","0","f2rl18god1nzyxj","","null","","sounds/syllables/fe_SWS.wav","","null","","","","","","","","","","","","","","","","","","","","","","","","","","","","","","","",""
"html-keyboard-response","336","1394727","0.0-8.0-2.0-2.18-1.18","1","0","f2rl18god1nzyxj","","1988.9999999997672","","<p>To replay the <u>TARGET SOUND</u>, press P.</p> When you are ready to begin, press SPACEBAR.","","32","","","","","","","","","","","","","","","","","","","","","","","","","","","","","","","",""
"audio-keyboard-response","337","1409676","0.0-8.0-2.0-3.13","1","0","f2rl18god1nzyxj","","595","","sounds/A/TD/FE_07_TD.mp3","","32","","","TD_SUMMARY","","","","","","","","","","FE","","1800,6300,9000,12600","1","1800","6300","9000","12600","875","673","null","1016","________________________________________________________________________________________________594_1322_1995_2675_4473_4728_4953_6029_6973_8500_8787.000000000233_9065_12932.000000000233_13221_13616","1","","","","","",""
"html-button-response","338","1412346","0.0-8.0-2.0-0.14","1","0","f2rl18god1nzyxj","","2668","","<p>Trial 15 of 36</p>","0","","","","","","","","","","","","","","RE","sounds/syllables/re_SWS.wav","900,2700,5400,10800","1","","","","","","","","","","","","","","","",""
"html-keyboard-response","339","1413287","0.0-8.0-2.0-1.14","1","0","f2rl18god1nzyxj","","940","","","","80","","","","","","","","","","","","","RE","","900,2700,5400,10800","1","","","","","","","","","","","","","","","",""
"audio-keyboard-response","340","1413590","0.0-8.0-2.0-2.19-0.19","1","0","f2rl18god1nzyxj","","null","","sounds/syllables/re_SWS.wav","","null","","","","","","","","","","","","","","","","","","","","","","","","","","","","","","","",""
"html-keyboard-response","341","1414497","0.0-8.0-2.0-2.19-1.19","1","0","f2rl18god1nzyxj","","906.0000000002328","","<p>To replay the <u>TARGET SOUND</u>, press P.</p> When you are ready to begin, press SPACEBAR.","","32","","","","","","","","","","","","","","","","","","","","","","","","","","","","","","","",""
"audio-keyboard-response","342","1429445","0.0-8.0-2.0-3.14","1","0","f2rl18god1nzyxj","","851","","sounds/A/TD/RE_04_TD.mp3","","32","","","TD_SUMMARY","","","","","","","","","","RE","","900,2700,5400,10800","1","900","2700","5400","10800","433","1125","935","null","_______________________________________________________________________________________________________________850_1097_1333_2614_3657_3825_4049_5391.000000000233_5644_5907_6130_6335_8004_8298_10278_10525_12713_12954_14318","1","","","","","",""
