"trial_type","trial_index","time_elapsed","internal_node_id","counterbalance","lang_instruct","ParticipantID","view_history","rt","url","stimulus","button_pressed","key_press","correctRESP","correct","designation","location","correctanswer","timeouts","pause_rt01","pause_rt02","train_file","numKeyPress","sound","fam_type","SYLLABLE","EXEMPLAR","TD_LOCS","TD_TYPE","TDLOC_01","TDLOC_02","TDLOC_03","TDLOC_04","TD_RT_01","TD_RT_02","TD_RT_03","TD_RT_04","TD_SUBJ_RTs","number_of_plays","responses","slider_start","response","question_order","syllable","syllable_type"
"pavlovia","0","3","0.0-0.0","2","0","08slqq8tnjol3w3","","","","","","","","","","","","","","","","","","","","","","","","","","","","","","","","","","","","","",""
"instructions","1","53051","0.0-1.0","2","0","08slqq8tnjol3w3","[{""page_index"":0,""viewing_time"":6256},{""page_index"":1,""viewing_time"":46789}]","53048.10000002384","","","","","","","","","","","","","","","","","","","","","","","","","","","","","","","","","","","",""
"external-html","2","63069","0.0-2.0","2","0","08slqq8tnjol3w3","","9889.5","consent/consent.html","","","","","","","","","","","","","","","","","","","","","","","","","","","","","","","","","","",""
"html-button-response","3","143643","0.0-3.0-0.0-0.0","2","0","08slqq8tnjol3w3","","80573.19999998808","","<p>Welcome to the study. You will first complete a short volume calibration and headphone check.</p><p>Please make sure you are in a quiet listening environment, that you are wearing headphones, and that your computer's volume is turned on.<p></p>","0","","","","","","","","","","","","","","","","","","","","","","","","","","","","","","","","",""
"html-button-response","4","153102","0.0-3.0-0.0-1.0","2","0","08slqq8tnjol3w3","","9202.300000011921","","<p>The volume calibration will be first.</p><p>You will hear a thirty-second noise. Please adjust your computer's volume so that this noise is being presented at a comfortable level.<p></p>","0","","","","","","","","","","","","","","","","","","","","","","","","","","","","","","","","",""
"audio-button-response","5","163066","0.0-3.0-0.0-2.0","2","0","08slqq8tnjol3w3","","9104","","audCalib/volumetest.mp3","0","","","","","","","","","","","","","","","","","","","","","","","","","","","","","","","","",""
"html-button-response","6","173101","0.0-3.0-1.0-0.0","2","0","08slqq8tnjol3w3","","10034.100000023842","","<p>You will now complete a short headphone check.</p><p>On each trial, you will hear three tones. One of these tones will be quieter than the others. Your task is to identify whether the quiet tone occured first, second, or third.</p><p>There are six trials in total.<p></p>","0","","","","","","","","","","","","","","","","","","","","","","","","","","","","","","","","",""
"html-keyboard-response","7","173858","0.0-3.0-1.0-1.0-0.0","2","0","08slqq8tnjol3w3","","null","","<div style=""font-size:60px;"">+</div>","","null","","","","","","","","","","","","","","","","","","","","","","","","","","","","","","","",""
"audio-button-response","8","179602","0.0-3.0-1.0-1.0-1.0","2","0","08slqq8tnjol3w3","","5739","","audCalib/t2_2.mp3","1","","1","1","headphone-test","","","","","","","","","","","","","","","","","","","","","","","","","","","","",""
"html-keyboard-response","9","180357","0.0-3.0-1.0-1.0-0.1","2","0","08slqq8tnjol3w3","","null","","<div style=""font-size:60px;"">+</div>","","null","","","","","","","","","","","","","","","","","","","","","","","","","","","","","","","",""
"audio-button-response","10","184962","0.0-3.0-1.0-1.0-1.1","2","0","08slqq8tnjol3w3","","4603","","audCalib/t3_2.mp3","2","","2","1","headphone-test","","","","","","","","","","","","","","","","","","","","","","","","","","","","",""
"html-keyboard-response","11","185719","0.0-3.0-1.0-1.0-0.2","2","0","08slqq8tnjol3w3","","null","","<div style=""font-size:60px;"">+</div>","","null","","","","","","","","","","","","","","","","","","","","","","","","","","","","","","","",""
"audio-button-response","12","190220","0.0-3.0-1.0-1.0-1.2","2","0","08slqq8tnjol3w3","","4496","","audCalib/t3_1.mp3","2","","2","1","headphone-test","","","","","","","","","","","","","","","","","","","","","","","","","","","","",""
"html-keyboard-response","13","190975","0.0-3.0-1.0-1.0-0.3","2","0","08slqq8tnjol3w3","","null","","<div style=""font-size:60px;"">+</div>","","null","","","","","","","","","","","","","","","","","","","","","","","","","","","","","","","",""
"audio-button-response","14","195445","0.0-3.0-1.0-1.0-1.3","2","0","08slqq8tnjol3w3","","4469","","audCalib/t1_2.mp3","0","","0","1","headphone-test","","","","","","","","","","","","","","","","","","","","","","","","","","","","",""
"html-keyboard-response","15","196202","0.0-3.0-1.0-1.0-0.4","2","0","08slqq8tnjol3w3","","null","","<div style=""font-size:60px;"">+</div>","","null","","","","","","","","","","","","","","","","","","","","","","","","","","","","","","","",""
"audio-button-response","16","200829","0.0-3.0-1.0-1.0-1.4","2","0","08slqq8tnjol3w3","","4624","","audCalib/t2_1.mp3","1","","1","1","headphone-test","","","","","","","","","","","","","","","","","","","","","","","","","","","","",""
"html-keyboard-response","17","201586","0.0-3.0-1.0-1.0-0.5","2","0","08slqq8tnjol3w3","","null","","<div style=""font-size:60px;"">+</div>","","null","","","","","","","","","","","","","","","","","","","","","","","","","","","","","","","",""
"audio-button-response","18","205812","0.0-3.0-1.0-1.0-1.5","2","0","08slqq8tnjol3w3","","4224","","audCalib/t1_1.mp3","0","","0","1","headphone-test","","","","","","","","","","","","","","","","","","","","","","","","","","","","",""
"html-button-response","19","208817","0.0-3.0-2.0","2","0","08slqq8tnjol3w3","","2750.900000035763","","<p>The volume calibration and headphone check are now complete.</p>","0","","","","","","","","","","","","","","","","","","","","","","","","","","","","","","","","",""
"instructions","20","261056","0.0-4.0-0.0","2","0","08slqq8tnjol3w3","[{""page_index"":0,""viewing_time"":2503.100000023842},{""page_index"":1,""viewing_time"":46327.69999998808},{""page_index"":2,""viewing_time"":3398.399999976158}]","52229.69999998808","","","","","","","","","","","","","","","","","","","","","","","","","","","","","","","","","","","",""
"audio-keyboard-response","21","261886","0.0-4.0-1.0-0.0","2","0","08slqq8tnjol3w3","","null","","sounds/induction/right_rev/fu_SWS.wav","","null","","","","","","","","","","","","","","","","","","","","","","","","","","","","","","","",""
"html-button-response","22","267537","0.0-4.0-1.0-1.0","2","0","08slqq8tnjol3w3","","5649.100000023842","","Was the sound coming from the left or the right?","1","","","1","INDUCTION-JUDGMENT","right","1","","","","","","","","","","","","","","","","","","","","","","","","","","",""
"html-keyboard-response","23","268542","0.0-4.0-1.0-2.0","2","0","08slqq8tnjol3w3","","null","","<p style=""color:#054d00;""><b>Correct!</b></p>","","null","","","","","","","","","","","","","","","","","","","","","","","","","","","","","","","",""
"audio-keyboard-response","24","269347","0.0-4.0-1.0-0.1","2","0","08slqq8tnjol3w3","","null","","sounds/induction/left_rev/fu_SWS.wav","","null","","","","","","","","","","","","","","","","","","","","","","","","","","","","","","","",""
"html-button-response","25","270817","0.0-4.0-1.0-1.1","2","0","08slqq8tnjol3w3","","1468","","Was the sound coming from the left or the right?","0","","","1","INDUCTION-JUDGMENT","left","0","","","","","","","","","","","","","","","","","","","","","","","","","","",""
"html-keyboard-response","26","271818","0.0-4.0-1.0-2.1","2","0","08slqq8tnjol3w3","","null","","<p style=""color:#054d00;""><b>Correct!</b></p>","","null","","","","","","","","","","","","","","","","","","","","","","","","","","","","","","","",""
"audio-keyboard-response","27","272622","0.0-4.0-1.0-0.2","2","0","08slqq8tnjol3w3","","null","","sounds/induction/left_rev/ti_SWS.wav","","null","","","","","","","","","","","","","","","","","","","","","","","","","","","","","","","",""
"html-button-response","28","274234","0.0-4.0-1.0-1.2","2","0","08slqq8tnjol3w3","","1610","","Was the sound coming from the left or the right?","0","","","1","INDUCTION-JUDGMENT","left","0","","","","","","","","","","","","","","","","","","","","","","","","","","",""
"html-keyboard-response","29","275235","0.0-4.0-1.0-2.2","2","0","08slqq8tnjol3w3","","null","","<p style=""color:#054d00;""><b>Correct!</b></p>","","null","","","","","","","","","","","","","","","","","","","","","","","","","","","","","","","",""
"audio-keyboard-response","30","276041","0.0-4.0-1.0-0.3","2","0","08slqq8tnjol3w3","","null","","sounds/induction/left_rev/me_SWS.wav","","null","","","","","","","","","","","","","","","","","","","","","","","","","","","","","","","",""
"html-button-response","31","277627","0.0-4.0-1.0-1.3","2","0","08slqq8tnjol3w3","","1584.699999988079","","Was the sound coming from the left or the right?","0","","","1","INDUCTION-JUDGMENT","left","0","","","","","","","","","","","","","","","","","","","","","","","","","","",""
"html-keyboard-response","32","278630","0.0-4.0-1.0-2.3","2","0","08slqq8tnjol3w3","","null","","<p style=""color:#054d00;""><b>Correct!</b></p>","","null","","","","","","","","","","","","","","","","","","","","","","","","","","","","","","","",""
"audio-keyboard-response","33","279439","0.0-4.0-1.0-0.4","2","0","08slqq8tnjol3w3","","null","","sounds/induction/right_rev/fu_SWS.wav","","null","","","","","","","","","","","","","","","","","","","","","","","","","","","","","","","",""
"html-button-response","34","280618","0.0-4.0-1.0-1.4","2","0","08slqq8tnjol3w3","","1175.800000011921","","Was the sound coming from the left or the right?","1","","","1","INDUCTION-JUDGMENT","right","1","","","","","","","","","","","","","","","","","","","","","","","","","","",""
"html-keyboard-response","35","281623","0.0-4.0-1.0-2.4","2","0","08slqq8tnjol3w3","","null","","<p style=""color:#054d00;""><b>Correct!</b></p>","","null","","","","","","","","","","","","","","","","","","","","","","","","","","","","","","","",""
"audio-keyboard-response","36","282425","0.0-4.0-1.0-0.5","2","0","08slqq8tnjol3w3","","null","","sounds/induction/right_rev/ni_SWS.wav","","null","","","","","","","","","","","","","","","","","","","","","","","","","","","","","","","",""
"html-button-response","37","283618","0.0-4.0-1.0-1.5","2","0","08slqq8tnjol3w3","","1191.0999999642372","","Was the sound coming from the left or the right?","1","","","1","INDUCTION-JUDGMENT","right","1","","","","","","","","","","","","","","","","","","","","","","","","","","",""
"html-keyboard-response","38","284619","0.0-4.0-1.0-2.5","2","0","08slqq8tnjol3w3","","null","","<p style=""color:#054d00;""><b>Correct!</b></p>","","null","","","","","","","","","","","","","","","","","","","","","","","","","","","","","","","",""
"audio-keyboard-response","39","285423","0.0-4.0-1.0-0.6","2","0","08slqq8tnjol3w3","","null","","sounds/induction/right_rev/fe_SWS.wav","","null","","","","","","","","","","","","","","","","","","","","","","","","","","","","","","","",""
"html-button-response","40","286933","0.0-4.0-1.0-1.6","2","0","08slqq8tnjol3w3","","1509.0999999642372","","Was the sound coming from the left or the right?","1","","","1","INDUCTION-JUDGMENT","right","1","","","","","","","","","","","","","","","","","","","","","","","","","","",""
"html-keyboard-response","41","287935","0.0-4.0-1.0-2.6","2","0","08slqq8tnjol3w3","","null","","<p style=""color:#054d00;""><b>Correct!</b></p>","","null","","","","","","","","","","","","","","","","","","","","","","","","","","","","","","","",""
"audio-keyboard-response","42","288740","0.0-4.0-1.0-0.7","2","0","08slqq8tnjol3w3","","null","","sounds/induction/right_rev/ni_SWS.wav","","null","","","","","","","","","","","","","","","","","","","","","","","","","","","","","","","",""
"html-button-response","43","289817","0.0-4.0-1.0-1.7","2","0","08slqq8tnjol3w3","","1075.300000011921","","Was the sound coming from the left or the right?","1","","","1","INDUCTION-JUDGMENT","right","1","","","","","","","","","","","","","","","","","","","","","","","","","","",""
"html-keyboard-response","44","290821","0.0-4.0-1.0-2.7","2","0","08slqq8tnjol3w3","","null","","<p style=""color:#054d00;""><b>Correct!</b></p>","","null","","","","","","","","","","","","","","","","","","","","","","","","","","","","","","","",""
"audio-keyboard-response","45","291626","0.0-4.0-1.0-0.8","2","0","08slqq8tnjol3w3","","null","","sounds/induction/right_rev/pu_SWS.wav","","null","","","","","","","","","","","","","","","","","","","","","","","","","","","","","","","",""
"html-button-response","46","292741","0.0-4.0-1.0-1.8","2","0","08slqq8tnjol3w3","","1113.5999999642372","","Was the sound coming from the left or the right?","1","","","1","INDUCTION-JUDGMENT","right","1","","","","","","","","","","","","","","","","","","","","","","","","","","",""
"html-keyboard-response","47","293748","0.0-4.0-1.0-2.8","2","0","08slqq8tnjol3w3","","null","","<p style=""color:#054d00;""><b>Correct!</b></p>","","null","","","","","","","","","","","","","","","","","","","","","","","","","","","","","","","",""
"audio-keyboard-response","48","294548","0.0-4.0-1.0-0.9","2","0","08slqq8tnjol3w3","","null","","sounds/induction/right_rev/ko_SWS.wav","","null","","","","","","","","","","","","","","","","","","","","","","","","","","","","","","","",""
"html-button-response","49","295407","0.0-4.0-1.0-1.9","2","0","08slqq8tnjol3w3","","856.6000000238419","","Was the sound coming from the left or the right?","1","","","1","INDUCTION-JUDGMENT","right","1","","","","","","","","","","","","","","","","","","","","","","","","","","",""
"html-keyboard-response","50","296409","0.0-4.0-1.0-2.9","2","0","08slqq8tnjol3w3","","null","","<p style=""color:#054d00;""><b>Correct!</b></p>","","null","","","","","","","","","","","","","","","","","","","","","","","","","","","","","","","",""
"audio-keyboard-response","51","297215","0.0-4.0-1.0-0.10","2","0","08slqq8tnjol3w3","","null","","sounds/induction/right_rev/re_SWS.wav","","null","","","","","","","","","","","","","","","","","","","","","","","","","","","","","","","",""
"html-button-response","52","298098","0.0-4.0-1.0-1.10","2","0","08slqq8tnjol3w3","","881.6000000238419","","Was the sound coming from the left or the right?","1","","","1","INDUCTION-JUDGMENT","right","1","","","","","","","","","","","","","","","","","","","","","","","","","","",""
"html-keyboard-response","53","299101","0.0-4.0-1.0-2.10","2","0","08slqq8tnjol3w3","","null","","<p style=""color:#054d00;""><b>Correct!</b></p>","","null","","","","","","","","","","","","","","","","","","","","","","","","","","","","","","","",""
"audio-keyboard-response","54","299903","0.0-4.0-1.0-0.11","2","0","08slqq8tnjol3w3","","null","","sounds/induction/left_rev/ni_SWS.wav","","null","","","","","","","","","","","","","","","","","","","","","","","","","","","","","","","",""
"html-button-response","55","300836","0.0-4.0-1.0-1.11","2","0","08slqq8tnjol3w3","","931.0999999642372","","Was the sound coming from the left or the right?","0","","","1","INDUCTION-JUDGMENT","left","0","","","","","","","","","","","","","","","","","","","","","","","","","","",""
"html-keyboard-response","56","301841","0.0-4.0-1.0-2.11","2","0","08slqq8tnjol3w3","","null","","<p style=""color:#054d00;""><b>Correct!</b></p>","","null","","","","","","","","","","","","","","","","","","","","","","","","","","","","","","","",""
"audio-keyboard-response","57","302650","0.0-4.0-1.0-0.12","2","0","08slqq8tnjol3w3","","null","","sounds/induction/left_rev/me_SWS.wav","","null","","","","","","","","","","","","","","","","","","","","","","","","","","","","","","","",""
"html-button-response","58","303709","0.0-4.0-1.0-1.12","2","0","08slqq8tnjol3w3","","1058.199999988079","","Was the sound coming from the left or the right?","0","","","1","INDUCTION-JUDGMENT","left","0","","","","","","","","","","","","","","","","","","","","","","","","","","",""
"html-keyboard-response","59","304715","0.0-4.0-1.0-2.12","2","0","08slqq8tnjol3w3","","null","","<p style=""color:#054d00;""><b>Correct!</b></p>","","null","","","","","","","","","","","","","","","","","","","","","","","","","","","","","","","",""
"audio-keyboard-response","60","305519","0.0-4.0-1.0-0.13","2","0","08slqq8tnjol3w3","","null","","sounds/induction/right_rev/ta_SWS.wav","","null","","","","","","","","","","","","","","","","","","","","","","","","","","","","","","","",""
"html-button-response","61","306701","0.0-4.0-1.0-1.13","2","0","08slqq8tnjol3w3","","1180.1000000238419","","Was the sound coming from the left or the right?","1","","","1","INDUCTION-JUDGMENT","right","1","","","","","","","","","","","","","","","","","","","","","","","","","","",""
"html-keyboard-response","62","307704","0.0-4.0-1.0-2.13","2","0","08slqq8tnjol3w3","","null","","<p style=""color:#054d00;""><b>Correct!</b></p>","","null","","","","","","","","","","","","","","","","","","","","","","","","","","","","","","","",""
"audio-keyboard-response","63","308511","0.0-4.0-1.0-0.14","2","0","08slqq8tnjol3w3","","null","","sounds/induction/right_rev/re_SWS.wav","","null","","","","","","","","","","","","","","","","","","","","","","","","","","","","","","","",""
"html-button-response","64","309837","0.0-4.0-1.0-1.14","2","0","08slqq8tnjol3w3","","1323.699999988079","","Was the sound coming from the left or the right?","1","","","1","INDUCTION-JUDGMENT","right","1","","","","","","","","","","","","","","","","","","","","","","","","","","",""
"html-keyboard-response","65","310838","0.0-4.0-1.0-2.14","2","0","08slqq8tnjol3w3","","null","","<p style=""color:#054d00;""><b>Correct!</b></p>","","null","","","","","","","","","","","","","","","","","","","","","","","","","","","","","","","",""
"audio-keyboard-response","66","311647","0.0-4.0-1.0-0.15","2","0","08slqq8tnjol3w3","","null","","sounds/induction/left_rev/fu_SWS.wav","","null","","","","","","","","","","","","","","","","","","","","","","","","","","","","","","","",""
"html-button-response","67","312462","0.0-4.0-1.0-1.15","2","0","08slqq8tnjol3w3","","813","","Was the sound coming from the left or the right?","0","","","1","INDUCTION-JUDGMENT","left","0","","","","","","","","","","","","","","","","","","","","","","","","","","",""
"html-keyboard-response","68","313465","0.0-4.0-1.0-2.15","2","0","08slqq8tnjol3w3","","null","","<p style=""color:#054d00;""><b>Correct!</b></p>","","null","","","","","","","","","","","","","","","","","","","","","","","","","","","","","","","",""
"audio-keyboard-response","69","314271","0.0-4.0-1.0-0.16","2","0","08slqq8tnjol3w3","","null","","sounds/induction/right_rev/me_SWS.wav","","null","","","","","","","","","","","","","","","","","","","","","","","","","","","","","","","",""
"html-button-response","70","315240","0.0-4.0-1.0-1.16","2","0","08slqq8tnjol3w3","","966.1999999880791","","Was the sound coming from the left or the right?","1","","","1","INDUCTION-JUDGMENT","right","1","","","","","","","","","","","","","","","","","","","","","","","","","","",""
"html-keyboard-response","71","316245","0.0-4.0-1.0-2.16","2","0","08slqq8tnjol3w3","","null","","<p style=""color:#054d00;""><b>Correct!</b></p>","","null","","","","","","","","","","","","","","","","","","","","","","","","","","","","","","","",""
"audio-keyboard-response","72","317050","0.0-4.0-1.0-0.17","2","0","08slqq8tnjol3w3","","null","","sounds/induction/left_rev/ru_SWS.wav","","null","","","","","","","","","","","","","","","","","","","","","","","","","","","","","","","",""
"html-button-response","73","318005","0.0-4.0-1.0-1.17","2","0","08slqq8tnjol3w3","","953","","Was the sound coming from the left or the right?","0","","","1","INDUCTION-JUDGMENT","left","0","","","","","","","","","","","","","","","","","","","","","","","","","","",""
"html-keyboard-response","74","319008","0.0-4.0-1.0-2.17","2","0","08slqq8tnjol3w3","","null","","<p style=""color:#054d00;""><b>Correct!</b></p>","","null","","","","","","","","","","","","","","","","","","","","","","","","","","","","","","","",""
"audio-keyboard-response","75","319813","0.0-4.0-1.0-0.18","2","0","08slqq8tnjol3w3","","null","","sounds/induction/right_rev/me_SWS.wav","","null","","","","","","","","","","","","","","","","","","","","","","","","","","","","","","","",""
"html-button-response","76","320767","0.0-4.0-1.0-1.18","2","0","08slqq8tnjol3w3","","952.8999999761581","","Was the sound coming from the left or the right?","1","","","1","INDUCTION-JUDGMENT","right","1","","","","","","","","","","","","","","","","","","","","","","","","","","",""
"html-keyboard-response","77","321768","0.0-4.0-1.0-2.18","2","0","08slqq8tnjol3w3","","null","","<p style=""color:#054d00;""><b>Correct!</b></p>","","null","","","","","","","","","","","","","","","","","","","","","","","","","","","","","","","",""
"audio-keyboard-response","78","322575","0.0-4.0-1.0-0.19","2","0","08slqq8tnjol3w3","","null","","sounds/induction/left_rev/su_SWS.wav","","null","","","","","","","","","","","","","","","","","","","","","","","","","","","","","","","",""
"html-button-response","79","324233","0.0-4.0-1.0-1.19","2","0","08slqq8tnjol3w3","","1657.0999999642372","","Was the sound coming from the left or the right?","0","","","1","INDUCTION-JUDGMENT","left","0","","","","","","","","","","","","","","","","","","","","","","","","","","",""
"html-keyboard-response","80","325237","0.0-4.0-1.0-2.19","2","0","08slqq8tnjol3w3","","null","","<p style=""color:#054d00;""><b>Correct!</b></p>","","null","","","","","","","","","","","","","","","","","","","","","","","","","","","","","","","",""
"audio-keyboard-response","81","326042","0.0-4.0-1.0-0.20","2","0","08slqq8tnjol3w3","","null","","sounds/induction/left_rev/pu_SWS.wav","","null","","","","","","","","","","","","","","","","","","","","","","","","","","","","","","","",""
"html-button-response","82","327271","0.0-4.0-1.0-1.20","2","0","08slqq8tnjol3w3","","1228.300000011921","","Was the sound coming from the left or the right?","0","","","1","INDUCTION-JUDGMENT","left","0","","","","","","","","","","","","","","","","","","","","","","","","","","",""
"html-keyboard-response","83","328277","0.0-4.0-1.0-2.20","2","0","08slqq8tnjol3w3","","null","","<p style=""color:#054d00;""><b>Correct!</b></p>","","null","","","","","","","","","","","","","","","","","","","","","","","","","","","","","","","",""
"audio-keyboard-response","84","329082","0.0-4.0-1.0-0.21","2","0","08slqq8tnjol3w3","","null","","sounds/induction/right_rev/su_SWS.wav","","null","","","","","","","","","","","","","","","","","","","","","","","","","","","","","","","",""
"html-button-response","85","330252","0.0-4.0-1.0-1.21","2","0","08slqq8tnjol3w3","","1169.4000000357628","","Was the sound coming from the left or the right?","1","","","1","INDUCTION-JUDGMENT","right","1","","","","","","","","","","","","","","","","","","","","","","","","","","",""
"html-keyboard-response","86","331256","0.0-4.0-1.0-2.21","2","0","08slqq8tnjol3w3","","null","","<p style=""color:#054d00;""><b>Correct!</b></p>","","null","","","","","","","","","","","","","","","","","","","","","","","","","","","","","","","",""
"audio-keyboard-response","87","332063","0.0-4.0-1.0-0.22","2","0","08slqq8tnjol3w3","","null","","sounds/induction/right_rev/su_SWS.wav","","null","","","","","","","","","","","","","","","","","","","","","","","","","","","","","","","",""
"html-button-response","88","333160","0.0-4.0-1.0-1.22","2","0","08slqq8tnjol3w3","","1095.8999999761581","","Was the sound coming from the left or the right?","1","","","1","INDUCTION-JUDGMENT","right","1","","","","","","","","","","","","","","","","","","","","","","","","","","",""
"html-keyboard-response","89","334164","0.0-4.0-1.0-2.22","2","0","08slqq8tnjol3w3","","null","","<p style=""color:#054d00;""><b>Correct!</b></p>","","null","","","","","","","","","","","","","","","","","","","","","","","","","","","","","","","",""
"audio-keyboard-response","90","334970","0.0-4.0-1.0-0.23","2","0","08slqq8tnjol3w3","","null","","sounds/induction/left_rev/re_SWS.wav","","null","","","","","","","","","","","","","","","","","","","","","","","","","","","","","","","",""
"html-button-response","91","336012","0.0-4.0-1.0-1.23","2","0","08slqq8tnjol3w3","","1041.3999999761581","","Was the sound coming from the left or the right?","0","","","1","INDUCTION-JUDGMENT","left","0","","","","","","","","","","","","","","","","","","","","","","","","","","",""
"html-keyboard-response","92","337018","0.0-4.0-1.0-2.23","2","0","08slqq8tnjol3w3","","null","","<p style=""color:#054d00;""><b>Correct!</b></p>","","null","","","","","","","","","","","","","","","","","","","","","","","","","","","","","","","",""
"audio-keyboard-response","93","337823","0.0-4.0-1.0-0.24","2","0","08slqq8tnjol3w3","","null","","sounds/induction/left_rev/pu_SWS.wav","","null","","","","","","","","","","","","","","","","","","","","","","","","","","","","","","","",""
"html-button-response","94","339054","0.0-4.0-1.0-1.24","2","0","08slqq8tnjol3w3","","1229.6000000238419","","Was the sound coming from the left or the right?","0","","","1","INDUCTION-JUDGMENT","left","0","","","","","","","","","","","","","","","","","","","","","","","","","","",""
"html-keyboard-response","95","340059","0.0-4.0-1.0-2.24","2","0","08slqq8tnjol3w3","","null","","<p style=""color:#054d00;""><b>Correct!</b></p>","","null","","","","","","","","","","","","","","","","","","","","","","","","","","","","","","","",""
"audio-keyboard-response","96","340863","0.0-4.0-1.0-0.25","2","0","08slqq8tnjol3w3","","null","","sounds/induction/left_rev/ru_SWS.wav","","null","","","","","","","","","","","","","","","","","","","","","","","","","","","","","","","",""
"html-button-response","97","341853","0.0-4.0-1.0-1.25","2","0","08slqq8tnjol3w3","","988.1999999880791","","Was the sound coming from the left or the right?","0","","","1","INDUCTION-JUDGMENT","left","0","","","","","","","","","","","","","","","","","","","","","","","","","","",""
"html-keyboard-response","98","342858","0.0-4.0-1.0-2.25","2","0","08slqq8tnjol3w3","","null","","<p style=""color:#054d00;""><b>Correct!</b></p>","","null","","","","","","","","","","","","","","","","","","","","","","","","","","","","","","","",""
"audio-keyboard-response","99","343663","0.0-4.0-1.0-0.26","2","0","08slqq8tnjol3w3","","null","","sounds/induction/right_rev/ru_SWS.wav","","null","","","","","","","","","","","","","","","","","","","","","","","","","","","","","","","",""
"html-button-response","100","344769","0.0-4.0-1.0-1.26","2","0","08slqq8tnjol3w3","","1104.5999999642372","","Was the sound coming from the left or the right?","0","","","0","INDUCTION-JUDGMENT","right","1","","","","","","","","","","","","","","","","","","","","","","","","","","",""
"html-keyboard-response","101","345770","0.0-4.0-1.0-2.26","2","0","08slqq8tnjol3w3","","null","","<p style=""color:#690000;""><b>Incorrect!</b></p>","","null","","","","","","","","","","","","","","","","","","","","","","","","","","","","","","","",""
"audio-keyboard-response","102","346575","0.0-4.0-1.0-0.27","2","0","08slqq8tnjol3w3","","null","","sounds/induction/left_rev/fe_SWS.wav","","null","","","","","","","","","","","","","","","","","","","","","","","","","","","","","","","",""
"html-button-response","103","347563","0.0-4.0-1.0-1.27","2","0","08slqq8tnjol3w3","","986.8999999761581","","Was the sound coming from the left or the right?","1","","","0","INDUCTION-JUDGMENT","left","0","","","","","","","","","","","","","","","","","","","","","","","","","","",""
"html-keyboard-response","104","348565","0.0-4.0-1.0-2.27","2","0","08slqq8tnjol3w3","","null","","<p style=""color:#690000;""><b>Incorrect!</b></p>","","null","","","","","","","","","","","","","","","","","","","","","","","","","","","","","","","",""
"audio-keyboard-response","105","349364","0.0-4.0-1.0-0.28","2","0","08slqq8tnjol3w3","","null","","sounds/induction/right_rev/pu_SWS.wav","","null","","","","","","","","","","","","","","","","","","","","","","","","","","","","","","","",""
"html-button-response","106","350391","0.0-4.0-1.0-1.28","2","0","08slqq8tnjol3w3","","1025.1000000238419","","Was the sound coming from the left or the right?","1","","","1","INDUCTION-JUDGMENT","right","1","","","","","","","","","","","","","","","","","","","","","","","","","","",""
"html-keyboard-response","107","351397","0.0-4.0-1.0-2.28","2","0","08slqq8tnjol3w3","","null","","<p style=""color:#054d00;""><b>Correct!</b></p>","","null","","","","","","","","","","","","","","","","","","","","","","","","","","","","","","","",""
"audio-keyboard-response","108","352202","0.0-4.0-1.0-0.29","2","0","08slqq8tnjol3w3","","null","","sounds/induction/right_rev/ru_SWS.wav","","null","","","","","","","","","","","","","","","","","","","","","","","","","","","","","","","",""
"html-button-response","109","353169","0.0-4.0-1.0-1.29","2","0","08slqq8tnjol3w3","","965.8000000119209","","Was the sound coming from the left or the right?","1","","","1","INDUCTION-JUDGMENT","right","1","","","","","","","","","","","","","","","","","","","","","","","","","","",""
"html-keyboard-response","110","354175","0.0-4.0-1.0-2.29","2","0","08slqq8tnjol3w3","","null","","<p style=""color:#054d00;""><b>Correct!</b></p>","","null","","","","","","","","","","","","","","","","","","","","","","","","","","","","","","","",""
"audio-keyboard-response","111","354981","0.0-4.0-1.0-0.30","2","0","08slqq8tnjol3w3","","null","","sounds/induction/left_rev/ta_SWS.wav","","null","","","","","","","","","","","","","","","","","","","","","","","","","","","","","","","",""
"html-button-response","112","357233","0.0-4.0-1.0-1.30","2","0","08slqq8tnjol3w3","","2251.099999964237","","Was the sound coming from the left or the right?","0","","","1","INDUCTION-JUDGMENT","left","0","","","","","","","","","","","","","","","","","","","","","","","","","","",""
"html-keyboard-response","113","358239","0.0-4.0-1.0-2.30","2","0","08slqq8tnjol3w3","","null","","<p style=""color:#054d00;""><b>Correct!</b></p>","","null","","","","","","","","","","","","","","","","","","","","","","","","","","","","","","","",""
"audio-keyboard-response","114","359044","0.0-4.0-1.0-0.31","2","0","08slqq8tnjol3w3","","null","","sounds/induction/left_rev/ge_SWS.wav","","null","","","","","","","","","","","","","","","","","","","","","","","","","","","","","","","",""
"html-button-response","115","360092","0.0-4.0-1.0-1.31","2","0","08slqq8tnjol3w3","","1046.9000000357628","","Was the sound coming from the left or the right?","0","","","1","INDUCTION-JUDGMENT","left","0","","","","","","","","","","","","","","","","","","","","","","","","","","",""
"html-keyboard-response","116","361098","0.0-4.0-1.0-2.31","2","0","08slqq8tnjol3w3","","null","","<p style=""color:#054d00;""><b>Correct!</b></p>","","null","","","","","","","","","","","","","","","","","","","","","","","","","","","","","","","",""
"audio-keyboard-response","117","361903","0.0-4.0-1.0-0.32","2","0","08slqq8tnjol3w3","","null","","sounds/induction/right_rev/ge_SWS.wav","","null","","","","","","","","","","","","","","","","","","","","","","","","","","","","","","","",""
"html-button-response","118","362935","0.0-4.0-1.0-1.32","2","0","08slqq8tnjol3w3","","1030.5999999642372","","Was the sound coming from the left or the right?","0","","","0","INDUCTION-JUDGMENT","right","1","","","","","","","","","","","","","","","","","","","","","","","","","","",""
"html-keyboard-response","119","363937","0.0-4.0-1.0-2.32","2","0","08slqq8tnjol3w3","","null","","<p style=""color:#690000;""><b>Incorrect!</b></p>","","null","","","","","","","","","","","","","","","","","","","","","","","","","","","","","","","",""
"audio-keyboard-response","120","364746","0.0-4.0-1.0-0.33","2","0","08slqq8tnjol3w3","","null","","sounds/induction/left_rev/ni_SWS.wav","","null","","","","","","","","","","","","","","","","","","","","","","","","","","","","","","","",""
"html-button-response","121","365698","0.0-4.0-1.0-1.33","2","0","08slqq8tnjol3w3","","951.4000000357628","","Was the sound coming from the left or the right?","0","","","1","INDUCTION-JUDGMENT","left","0","","","","","","","","","","","","","","","","","","","","","","","","","","",""
"html-keyboard-response","122","366703","0.0-4.0-1.0-2.33","2","0","08slqq8tnjol3w3","","null","","<p style=""color:#054d00;""><b>Correct!</b></p>","","null","","","","","","","","","","","","","","","","","","","","","","","","","","","","","","","",""
"audio-keyboard-response","123","367508","0.0-4.0-1.0-0.34","2","0","08slqq8tnjol3w3","","null","","sounds/induction/right_rev/ta_SWS.wav","","null","","","","","","","","","","","","","","","","","","","","","","","","","","","","","","","",""
"html-button-response","124","368344","0.0-4.0-1.0-1.34","2","0","08slqq8tnjol3w3","","834.1000000238419","","Was the sound coming from the left or the right?","1","","","1","INDUCTION-JUDGMENT","right","1","","","","","","","","","","","","","","","","","","","","","","","","","","",""
"html-keyboard-response","125","369349","0.0-4.0-1.0-2.34","2","0","08slqq8tnjol3w3","","null","","<p style=""color:#054d00;""><b>Correct!</b></p>","","null","","","","","","","","","","","","","","","","","","","","","","","","","","","","","","","",""
"audio-keyboard-response","126","370154","0.0-4.0-1.0-0.35","2","0","08slqq8tnjol3w3","","null","","sounds/induction/left_rev/ko_SWS.wav","","null","","","","","","","","","","","","","","","","","","","","","","","","","","","","","","","",""
"html-button-response","127","371199","0.0-4.0-1.0-1.35","2","0","08slqq8tnjol3w3","","1044","","Was the sound coming from the left or the right?","0","","","1","INDUCTION-JUDGMENT","left","0","","","","","","","","","","","","","","","","","","","","","","","","","","",""
"html-keyboard-response","128","372204","0.0-4.0-1.0-2.35","2","0","08slqq8tnjol3w3","","null","","<p style=""color:#054d00;""><b>Correct!</b></p>","","null","","","","","","","","","","","","","","","","","","","","","","","","","","","","","","","",""
"audio-keyboard-response","129","373007","0.0-4.0-1.0-0.36","2","0","08slqq8tnjol3w3","","null","","sounds/induction/left_rev/re_SWS.wav","","null","","","","","","","","","","","","","","","","","","","","","","","","","","","","","","","",""
"html-button-response","130","374002","0.0-4.0-1.0-1.36","2","0","08slqq8tnjol3w3","","993.4000000357628","","Was the sound coming from the left or the right?","0","","","1","INDUCTION-JUDGMENT","left","0","","","","","","","","","","","","","","","","","","","","","","","","","","",""
"html-keyboard-response","131","375008","0.0-4.0-1.0-2.36","2","0","08slqq8tnjol3w3","","null","","<p style=""color:#054d00;""><b>Correct!</b></p>","","null","","","","","","","","","","","","","","","","","","","","","","","","","","","","","","","",""
"audio-keyboard-response","132","375812","0.0-4.0-1.0-0.37","2","0","08slqq8tnjol3w3","","null","","sounds/induction/left_rev/fe_SWS.wav","","null","","","","","","","","","","","","","","","","","","","","","","","","","","","","","","","",""
"html-button-response","133","376668","0.0-4.0-1.0-1.37","2","0","08slqq8tnjol3w3","","853.9000000357628","","Was the sound coming from the left or the right?","0","","","1","INDUCTION-JUDGMENT","left","0","","","","","","","","","","","","","","","","","","","","","","","","","","",""
"html-keyboard-response","134","377674","0.0-4.0-1.0-2.37","2","0","08slqq8tnjol3w3","","null","","<p style=""color:#054d00;""><b>Correct!</b></p>","","null","","","","","","","","","","","","","","","","","","","","","","","","","","","","","","","",""
"audio-keyboard-response","135","378479","0.0-4.0-1.0-0.38","2","0","08slqq8tnjol3w3","","null","","sounds/induction/left_rev/su_SWS.wav","","null","","","","","","","","","","","","","","","","","","","","","","","","","","","","","","","",""
"html-button-response","136","379552","0.0-4.0-1.0-1.38","2","0","08slqq8tnjol3w3","","1071.3999999761581","","Was the sound coming from the left or the right?","0","","","1","INDUCTION-JUDGMENT","left","0","","","","","","","","","","","","","","","","","","","","","","","","","","",""
"html-keyboard-response","137","380554","0.0-4.0-1.0-2.38","2","0","08slqq8tnjol3w3","","null","","<p style=""color:#054d00;""><b>Correct!</b></p>","","null","","","","","","","","","","","","","","","","","","","","","","","","","","","","","","","",""
"audio-keyboard-response","138","381354","0.0-4.0-1.0-0.39","2","0","08slqq8tnjol3w3","","null","","sounds/induction/right_rev/ge_SWS.wav","","null","","","","","","","","","","","","","","","","","","","","","","","","","","","","","","","",""
"html-button-response","139","382279","0.0-4.0-1.0-1.39","2","0","08slqq8tnjol3w3","","923.8000000119209","","Was the sound coming from the left or the right?","1","","","1","INDUCTION-JUDGMENT","right","1","","","","","","","","","","","","","","","","","","","","","","","","","","",""
"html-keyboard-response","140","383284","0.0-4.0-1.0-2.39","2","0","08slqq8tnjol3w3","","null","","<p style=""color:#054d00;""><b>Correct!</b></p>","","null","","","","","","","","","","","","","","","","","","","","","","","","","","","","","","","",""
"audio-keyboard-response","141","384084","0.0-4.0-1.0-0.40","2","0","08slqq8tnjol3w3","","null","","sounds/induction/left_rev/ta_SWS.wav","","null","","","","","","","","","","","","","","","","","","","","","","","","","","","","","","","",""
"html-button-response","142","385109","0.0-4.0-1.0-1.40","2","0","08slqq8tnjol3w3","","1023.1000000238419","","Was the sound coming from the left or the right?","0","","","1","INDUCTION-JUDGMENT","left","0","","","","","","","","","","","","","","","","","","","","","","","","","","",""
"html-keyboard-response","143","386111","0.0-4.0-1.0-2.40","2","0","08slqq8tnjol3w3","","null","","<p style=""color:#054d00;""><b>Correct!</b></p>","","null","","","","","","","","","","","","","","","","","","","","","","","","","","","","","","","",""
"audio-keyboard-response","144","386916","0.0-4.0-1.0-0.41","2","0","08slqq8tnjol3w3","","null","","sounds/induction/left_rev/ko_SWS.wav","","null","","","","","","","","","","","","","","","","","","","","","","","","","","","","","","","",""
"html-button-response","145","387951","0.0-4.0-1.0-1.41","2","0","08slqq8tnjol3w3","","1033.7000000476837","","Was the sound coming from the left or the right?","0","","","1","INDUCTION-JUDGMENT","left","0","","","","","","","","","","","","","","","","","","","","","","","","","","",""
"html-keyboard-response","146","388958","0.0-4.0-1.0-2.41","2","0","08slqq8tnjol3w3","","null","","<p style=""color:#054d00;""><b>Correct!</b></p>","","null","","","","","","","","","","","","","","","","","","","","","","","","","","","","","","","",""
"audio-keyboard-response","147","389764","0.0-4.0-1.0-0.42","2","0","08slqq8tnjol3w3","","null","","sounds/induction/right_rev/fe_SWS.wav","","null","","","","","","","","","","","","","","","","","","","","","","","","","","","","","","","",""
"html-button-response","148","390748","0.0-4.0-1.0-1.42","2","0","08slqq8tnjol3w3","","981.6999999880791","","Was the sound coming from the left or the right?","1","","","1","INDUCTION-JUDGMENT","right","1","","","","","","","","","","","","","","","","","","","","","","","","","","",""
"html-keyboard-response","149","391754","0.0-4.0-1.0-2.42","2","0","08slqq8tnjol3w3","","null","","<p style=""color:#054d00;""><b>Correct!</b></p>","","null","","","","","","","","","","","","","","","","","","","","","","","","","","","","","","","",""
"audio-keyboard-response","150","392559","0.0-4.0-1.0-0.43","2","0","08slqq8tnjol3w3","","null","","sounds/induction/right_rev/ti_SWS.wav","","null","","","","","","","","","","","","","","","","","","","","","","","","","","","","","","","",""
"html-button-response","151","393582","0.0-4.0-1.0-1.43","2","0","08slqq8tnjol3w3","","1021.5","","Was the sound coming from the left or the right?","1","","","1","INDUCTION-JUDGMENT","right","1","","","","","","","","","","","","","","","","","","","","","","","","","","",""
"html-keyboard-response","152","394585","0.0-4.0-1.0-2.43","2","0","08slqq8tnjol3w3","","null","","<p style=""color:#054d00;""><b>Correct!</b></p>","","null","","","","","","","","","","","","","","","","","","","","","","","","","","","","","","","",""
"audio-keyboard-response","153","395391","0.0-4.0-1.0-0.44","2","0","08slqq8tnjol3w3","","null","","sounds/induction/left_rev/ti_SWS.wav","","null","","","","","","","","","","","","","","","","","","","","","","","","","","","","","","","",""
"html-button-response","154","397363","0.0-4.0-1.0-1.44","2","0","08slqq8tnjol3w3","","1970.4000000357628","","Was the sound coming from the left or the right?","0","","","1","INDUCTION-JUDGMENT","left","0","","","","","","","","","","","","","","","","","","","","","","","","","","",""
"html-keyboard-response","155","398366","0.0-4.0-1.0-2.44","2","0","08slqq8tnjol3w3","","null","","<p style=""color:#054d00;""><b>Correct!</b></p>","","null","","","","","","","","","","","","","","","","","","","","","","","","","","","","","","","",""
"audio-keyboard-response","156","399167","0.0-4.0-1.0-0.45","2","0","08slqq8tnjol3w3","","null","","sounds/induction/right_rev/ko_SWS.wav","","null","","","","","","","","","","","","","","","","","","","","","","","","","","","","","","","",""
"html-button-response","157","400053","0.0-4.0-1.0-1.45","2","0","08slqq8tnjol3w3","","883.8000000119209","","Was the sound coming from the left or the right?","1","","","1","INDUCTION-JUDGMENT","right","1","","","","","","","","","","","","","","","","","","","","","","","","","","",""
"html-keyboard-response","158","401054","0.0-4.0-1.0-2.45","2","0","08slqq8tnjol3w3","","null","","<p style=""color:#054d00;""><b>Correct!</b></p>","","null","","","","","","","","","","","","","","","","","","","","","","","","","","","","","","","",""
"audio-keyboard-response","159","401860","0.0-4.0-1.0-0.46","2","0","08slqq8tnjol3w3","","null","","sounds/induction/right_rev/ti_SWS.wav","","null","","","","","","","","","","","","","","","","","","","","","","","","","","","","","","","",""
"html-button-response","160","403000","0.0-4.0-1.0-1.46","2","0","08slqq8tnjol3w3","","1138.5","","Was the sound coming from the left or the right?","1","","","1","INDUCTION-JUDGMENT","right","1","","","","","","","","","","","","","","","","","","","","","","","","","","",""
"html-keyboard-response","161","404004","0.0-4.0-1.0-2.46","2","0","08slqq8tnjol3w3","","null","","<p style=""color:#054d00;""><b>Correct!</b></p>","","null","","","","","","","","","","","","","","","","","","","","","","","","","","","","","","","",""
"audio-keyboard-response","162","404809","0.0-4.0-1.0-0.47","2","0","08slqq8tnjol3w3","","null","","sounds/induction/left_rev/ge_SWS.wav","","null","","","","","","","","","","","","","","","","","","","","","","","","","","","","","","","",""
"html-button-response","163","405675","0.0-4.0-1.0-1.47","2","0","08slqq8tnjol3w3","","863.7999999523163","","Was the sound coming from the left or the right?","0","","","1","INDUCTION-JUDGMENT","left","0","","","","","","","","","","","","","","","","","","","","","","","","","","",""
"html-keyboard-response","164","406676","0.0-4.0-1.0-2.47","2","0","08slqq8tnjol3w3","","null","","<p style=""color:#054d00;""><b>Correct!</b></p>","","null","","","","","","","","","","","","","","","","","","","","","","","","","","","","","","","",""
"html-button-response","165","419077","0.0-5.0-0.0","2","0","08slqq8tnjol3w3","","11898.5","","<p>Thank you for your answers.</p><p>You will now listen to similar sounds. The main difference is that the sounds will be longer.</p><p>Just as before, you will be asked to judge whether the sound was coming from the left or the right.</p><p>There are 10 of these longer sounds in total.","0","","","","","","","","","","","","","","","","","","","","","","","","","","","","","","","","",""
"audio-keyboard-response","166","421631","0.0-5.0-1.0-0.0","2","0","08slqq8tnjol3w3","","null","","sounds/sentences/left_rev/14_04_cfSWS.wav","","null","","","","","","","","","","","","","","","","","","","","","","","","","","","","","","","",""
"html-button-response","167","422628","0.0-5.0-1.0-1.0","2","0","08slqq8tnjol3w3","","996.1000000238419","","Was the sound coming from the left or the right?","0","","","1","INDUCTION-JUDGMENT","left","0","","","","","","","","","","","","","","","","","","","","","","","","","","",""
"html-keyboard-response","168","423630","0.0-5.0-1.0-2.0","2","0","08slqq8tnjol3w3","","null","","<p style=""color:#054d00;""><b>Correct!</b></p>","","null","","","","","","","","","","","","","","","","","","","","","","","","","","","","","","","",""
"html-button-response","169","426167","0.0-5.0-1.0-3.0","2","0","08slqq8tnjol3w3","","2032.199999988079","","<p>Press the button below when you are ready to continue.</p>","0","","","","","","","","","","","","","","","","","","","","","","","","","","","","","","","","",""
"audio-keyboard-response","170","428895","0.0-5.0-1.0-0.1","2","0","08slqq8tnjol3w3","","null","","sounds/sentences/right_rev/14_09_cfSWS.wav","","null","","","","","","","","","","","","","","","","","","","","","","","","","","","","","","","",""
"html-button-response","171","429867","0.0-5.0-1.0-1.1","2","0","08slqq8tnjol3w3","","970.7000000476837","","Was the sound coming from the left or the right?","1","","","1","INDUCTION-JUDGMENT","right","1","","","","","","","","","","","","","","","","","","","","","","","","","","",""
"html-keyboard-response","172","430870","0.0-5.0-1.0-2.1","2","0","08slqq8tnjol3w3","","null","","<p style=""color:#054d00;""><b>Correct!</b></p>","","null","","","","","","","","","","","","","","","","","","","","","","","","","","","","","","","",""
"html-button-response","173","432217","0.0-5.0-1.0-3.1","2","0","08slqq8tnjol3w3","","845.3000000119209","","<p>Press the button below when you are ready to continue.</p>","0","","","","","","","","","","","","","","","","","","","","","","","","","","","","","","","","",""
"audio-keyboard-response","174","435209","0.0-5.0-1.0-0.2","2","0","08slqq8tnjol3w3","","null","","sounds/sentences/left_rev/14_05_cfSWS.wav","","null","","","","","","","","","","","","","","","","","","","","","","","","","","","","","","","",""
"html-button-response","175","436039","0.0-5.0-1.0-1.2","2","0","08slqq8tnjol3w3","","828","","Was the sound coming from the left or the right?","0","","","1","INDUCTION-JUDGMENT","left","0","","","","","","","","","","","","","","","","","","","","","","","","","","",""
"html-keyboard-response","176","437045","0.0-5.0-1.0-2.2","2","0","08slqq8tnjol3w3","","null","","<p style=""color:#054d00;""><b>Correct!</b></p>","","null","","","","","","","","","","","","","","","","","","","","","","","","","","","","","","","",""
"html-button-response","177","438227","0.0-5.0-1.0-3.2","2","0","08slqq8tnjol3w3","","680.8999999761581","","<p>Press the button below when you are ready to continue.</p>","0","","","","","","","","","","","","","","","","","","","","","","","","","","","","","","","","",""
"audio-keyboard-response","178","441119","0.0-5.0-1.0-0.3","2","0","08slqq8tnjol3w3","","null","","sounds/sentences/right_rev/14_07_cfSWS.wav","","null","","","","","","","","","","","","","","","","","","","","","","","","","","","","","","","",""
"html-button-response","179","441911","0.0-5.0-1.0-1.3","2","0","08slqq8tnjol3w3","","791","","Was the sound coming from the left or the right?","1","","","1","INDUCTION-JUDGMENT","right","1","","","","","","","","","","","","","","","","","","","","","","","","","","",""
"html-keyboard-response","180","442913","0.0-5.0-1.0-2.3","2","0","08slqq8tnjol3w3","","null","","<p style=""color:#054d00;""><b>Correct!</b></p>","","null","","","","","","","","","","","","","","","","","","","","","","","","","","","","","","","",""
"html-button-response","181","444075","0.0-5.0-1.0-3.3","2","0","08slqq8tnjol3w3","","656.9000000357628","","<p>Press the button below when you are ready to continue.</p>","0","","","","","","","","","","","","","","","","","","","","","","","","","","","","","","","","",""
"audio-keyboard-response","182","446831","0.0-5.0-1.0-0.4","2","0","08slqq8tnjol3w3","","null","","sounds/sentences/right_rev/14_08_cfSWS.wav","","null","","","","","","","","","","","","","","","","","","","","","","","","","","","","","","","",""
"html-button-response","183","447543","0.0-5.0-1.0-1.4","2","0","08slqq8tnjol3w3","","710.5","","Was the sound coming from the left or the right?","1","","","1","INDUCTION-JUDGMENT","right","1","","","","","","","","","","","","","","","","","","","","","","","","","","",""
"html-keyboard-response","184","448545","0.0-5.0-1.0-2.4","2","0","08slqq8tnjol3w3","","null","","<p style=""color:#054d00;""><b>Correct!</b></p>","","null","","","","","","","","","","","","","","","","","","","","","","","","","","","","","","","",""
"html-button-response","185","450144","0.0-5.0-1.0-3.4","2","0","08slqq8tnjol3w3","","1097.6000000238419","","<p>Press the button below when you are ready to continue.</p>","0","","","","","","","","","","","","","","","","","","","","","","","","","","","","","","","","",""
"audio-keyboard-response","186","452889","0.0-5.0-1.0-0.5","2","0","08slqq8tnjol3w3","","null","","sounds/sentences/right_rev/14_06_cfSWS.wav","","null","","","","","","","","","","","","","","","","","","","","","","","","","","","","","","","",""
"html-button-response","187","453384","0.0-5.0-1.0-1.5","2","0","08slqq8tnjol3w3","","493.0999999642372","","Was the sound coming from the left or the right?","1","","","1","INDUCTION-JUDGMENT","right","1","","","","","","","","","","","","","","","","","","","","","","","","","","",""
"html-keyboard-response","188","454389","0.0-5.0-1.0-2.5","2","0","08slqq8tnjol3w3","","null","","<p style=""color:#054d00;""><b>Correct!</b></p>","","null","","","","","","","","","","","","","","","","","","","","","","","","","","","","","","","",""
"html-button-response","189","455772","0.0-5.0-1.0-3.5","2","0","08slqq8tnjol3w3","","877","","<p>Press the button below when you are ready to continue.</p>","0","","","","","","","","","","","","","","","","","","","","","","","","","","","","","","","","",""
"audio-keyboard-response","190","458895","0.0-5.0-1.0-0.6","2","0","08slqq8tnjol3w3","","null","","sounds/sentences/left_rev/14_01_cfSWS.wav","","null","","","","","","","","","","","","","","","","","","","","","","","","","","","","","","","",""
"html-button-response","191","459573","0.0-5.0-1.0-1.6","2","0","08slqq8tnjol3w3","","676.5999999642372","","Was the sound coming from the left or the right?","0","","","1","INDUCTION-JUDGMENT","left","0","","","","","","","","","","","","","","","","","","","","","","","","","","",""
"html-keyboard-response","192","460575","0.0-5.0-1.0-2.6","2","0","08slqq8tnjol3w3","","null","","<p style=""color:#054d00;""><b>Correct!</b></p>","","null","","","","","","","","","","","","","","","","","","","","","","","","","","","","","","","",""
"html-button-response","193","461907","0.0-5.0-1.0-3.6","2","0","08slqq8tnjol3w3","","826.5","","<p>Press the button below when you are ready to continue.</p>","0","","","","","","","","","","","","","","","","","","","","","","","","","","","","","","","","",""
"audio-keyboard-response","194","464921","0.0-5.0-1.0-0.7","2","0","08slqq8tnjol3w3","","null","","sounds/sentences/right_rev/14_10_cfSWS.wav","","null","","","","","","","","","","","","","","","","","","","","","","","","","","","","","","","",""
"html-button-response","195","465543","0.0-5.0-1.0-1.7","2","0","08slqq8tnjol3w3","","620.3000000119209","","Was the sound coming from the left or the right?","1","","","1","INDUCTION-JUDGMENT","right","1","","","","","","","","","","","","","","","","","","","","","","","","","","",""
"html-keyboard-response","196","466547","0.0-5.0-1.0-2.7","2","0","08slqq8tnjol3w3","","null","","<p style=""color:#054d00;""><b>Correct!</b></p>","","null","","","","","","","","","","","","","","","","","","","","","","","","","","","","","","","",""
"html-button-response","197","467765","0.0-5.0-1.0-3.7","2","0","08slqq8tnjol3w3","","714.3000000119209","","<p>Press the button below when you are ready to continue.</p>","0","","","","","","","","","","","","","","","","","","","","","","","","","","","","","","","","",""
"audio-keyboard-response","198","470351","0.0-5.0-1.0-0.8","2","0","08slqq8tnjol3w3","","null","","sounds/sentences/left_rev/14_03_cfSWS.wav","","null","","","","","","","","","","","","","","","","","","","","","","","","","","","","","","","",""
"html-button-response","199","471063","0.0-5.0-1.0-1.8","2","0","08slqq8tnjol3w3","","710.1999999880791","","Was the sound coming from the left or the right?","0","","","1","INDUCTION-JUDGMENT","left","0","","","","","","","","","","","","","","","","","","","","","","","","","","",""
"html-keyboard-response","200","472068","0.0-5.0-1.0-2.8","2","0","08slqq8tnjol3w3","","null","","<p style=""color:#054d00;""><b>Correct!</b></p>","","null","","","","","","","","","","","","","","","","","","","","","","","","","","","","","","","",""
"html-button-response","201","473563","0.0-5.0-1.0-3.8","2","0","08slqq8tnjol3w3","","990.1999999880791","","<p>Press the button below when you are ready to continue.</p>","0","","","","","","","","","","","","","","","","","","","","","","","","","","","","","","","","",""
"audio-keyboard-response","202","476382","0.0-5.0-1.0-0.9","2","0","08slqq8tnjol3w3","","null","","sounds/sentences/left_rev/14_02_cfSWS.wav","","null","","","","","","","","","","","","","","","","","","","","","","","","","","","","","","","",""
"html-button-response","203","476980","0.0-5.0-1.0-1.9","2","0","08slqq8tnjol3w3","","595.5999999642372","","Was the sound coming from the left or the right?","0","","","1","INDUCTION-JUDGMENT","left","0","","","","","","","","","","","","","","","","","","","","","","","","","","",""
"html-keyboard-response","204","477983","0.0-5.0-1.0-2.9","2","0","08slqq8tnjol3w3","","null","","<p style=""color:#054d00;""><b>Correct!</b></p>","","null","","","","","","","","","","","","","","","","","","","","","","","","","","","","","","","",""
"html-button-response","205","479393","0.0-5.0-1.0-3.9","2","0","08slqq8tnjol3w3","","907.1999999880791","","<p>Press the button below when you are ready to continue.</p>","0","","","","","","","","","","","","","","","","","","","","","","","","","","","","","","","","",""
"html-keyboard-response","206","604976","0.0-6.0-0.0","2","0","08slqq8tnjol3w3","","125073","","<p>In this part of the study, you will hear sounds similar to those you just heard.</p><p>Please focus on these sounds, as you may be asked questions about them later.</p><p>Occasionally, the sounds will pause for up to two seconds. When this happens, please press SPACEBAR as quickly as you can.</br>This helps ensure that you are paying attention to the sounds.</p><p>This part of the study will take about 12 minutes to complete, and you will be given the opportunity to take a couple of short breaks every few minutes.</p><p><strong>Press SPACEBAR to begin</strong></p>","","32","","","","","","","","","","","","","","","","","","","","","","","","","","","","","","","",""
"html-keyboard-response","207","605978","0.0-6.0-1.0-0.0","2","0","08slqq8tnjol3w3","","null","","<p style=""font-size: 40px;"">+</p>","","null","","","","","","","","","","","","","","","","","","","","","","","","","","","","","","","",""
"html-keyboard-response","208","790989","0.0-6.0-1.0-1.0","2","0","08slqq8tnjol3w3","","null","","","","null","","","SL-TRAIN","","","0","709.3999999761581","627.5999999642372","sounds/B/TRAIN/SEQ__05.mp3","2","","","","","","","","","","","","","","","","","","","","","",""
"html-button-response","209","871135","0.0-6.0-1.0-2.0","2","0","08slqq8tnjol3w3","","80143.59999996424","","<p>You may take a short break if you wish.</p>","0","","","","","","","","","","","","","","","","","","","","","","","","","","","","","","","","",""
"html-keyboard-response","210","872141","0.0-6.0-1.0-3.0","2","0","08slqq8tnjol3w3","","null","","<p style=""font-size: 40px;"">+</p>","","null","","","","","","","","","","","","","","","","","","","","","","","","","","","","","","","",""
"html-keyboard-response","211","1057153","0.0-6.0-1.0-4.0","2","0","08slqq8tnjol3w3","","null","","","","null","","","SL-TRAIN","","","0","720.4000000357628","792.2000000476837","sounds/B/TRAIN/SEQ__03.mp3","4","","","","","","","","","","","","","","","","","","","","","",""
"html-button-response","212","1058790","0.0-6.0-1.0-5.0","2","0","08slqq8tnjol3w3","","1635.3999999761581","","<p>You may take a short break if you wish.</p>","0","","","","","","","","","","","","","","","","","","","","","","","","","","","","","","","","",""
"html-keyboard-response","213","1059793","0.0-6.0-1.0-6.0","2","0","08slqq8tnjol3w3","","null","","<p style=""font-size: 40px;"">+</p>","","null","","","","","","","","","","","","","","","","","","","","","","","","","","","","","","","",""
"html-keyboard-response","214","1244801","0.0-6.0-1.0-7.0","2","0","08slqq8tnjol3w3","","null","","","","null","","","SL-TRAIN","","","0","656.6999999880791","704.0999999642372","sounds/B/TRAIN/SEQ__08.mp3","9","","","","","","","","","","","","","","","","","","","","","",""
"html-button-response","215","1246765","0.0-6.0-1.0-8.0","2","0","08slqq8tnjol3w3","","1962.699999988079","","<p>You may take a short break if you wish.</p>","0","","","","","","","","","","","","","","","","","","","","","","","","","","","","","","","","",""
"html-keyboard-response","216","1247771","0.0-6.0-1.0-9.0","2","0","08slqq8tnjol3w3","","null","","<p style=""font-size: 40px;"">+</p>","","null","","","","","","","","","","","","","","","","","","","","","","","","","","","","","","","",""
"html-keyboard-response","217","1432785","0.0-6.0-1.0-10.0","2","0","08slqq8tnjol3w3","","null","","","","null","","","SL-TRAIN","","","0","1045.300000011921","1502.199999988079","sounds/B/TRAIN/SEQ__06.mp3","11","","","","","","","","","","","","","","","","","","","","","",""
"html-button-response","218","1435023","0.0-6.0-1.0-11.0","2","0","08slqq8tnjol3w3","","2236.399999976158","","<p>You may take a short break if you wish.</p>","0","","","","","","","","","","","","","","","","","","","","","","","","","","","","","","","","",""
"html-button-response","219","1639044","0.0-7.0-0.0","2","0","08slqq8tnjol3w3","","204020.30000001192","","<p>Welcome to the second part of the study. This is a <u>familiarity task</u>.</p><p>You will now hear short sounds and will be asked to rate how familiar they sound to you <b>based on what you heard in the previous part of the study</b>.</p><p>You will rate 12 sounds in total.</p>","0","","","","","","","","","","","","","","","","","","","","","","","","","","","","","","","","",""
"html-keyboard-response","220","1640047","0.0-7.0-1.0-0.0","2","0","08slqq8tnjol3w3","","null","","","","null","","","","","","","","","","","","","","","","","","","","","","","","","","","","","","","",""
"audio-keyboard-response","221","1641531","0.0-7.0-1.0-1.0","2","0","08slqq8tnjol3w3","","null","","sounds/B/FAM/P003.mp3","","null","","","","","","","","","","","","","","","","","","","","","","","","","","","","","","","",""
"html-keyboard-response","222","1647535","0.0-7.0-1.0-2.0","2","0","08slqq8tnjol3w3","","5502.5","","<p>How familiar did this sound to you?</p><p>1&nbsp;&nbsp;&nbsp;&nbsp;&nbsp;&nbsp;&nbsp;&nbsp;&nbsp;&nbsp;&nbsp;&nbsp;&nbsp;&nbsp;&nbsp;&nbsp;&nbsp;&nbsp;&nbsp;2&nbsp;&nbsp;&nbsp;&nbsp;&nbsp;&nbsp;&nbsp;&nbsp;&nbsp;&nbsp;&nbsp;&nbsp;&nbsp;&nbsp;&nbsp;&nbsp;&nbsp;&nbsp;&nbsp;3&nbsp;&nbsp;&nbsp;&nbsp;&nbsp;&nbsp;&nbsp;&nbsp;&nbsp;&nbsp;&nbsp;&nbsp;&nbsp;&nbsp;&nbsp;&nbsp;&nbsp;&nbsp;&nbsp;4</p><p style=""font-size:14px"">Not at all familiar&nbsp;&nbsp;&nbsp;&nbsp;A little familiar&nbsp;&nbsp;&nbsp;Moderately familiar&nbsp;&nbsp;&nbsp;Extremely familiar</p><p>(press the corresponding number on your keyboard)</p>","","52","","","FAM-RESPONSE","","","","","","","","sounds/B/FAM/P003.mp3","partword","","","","","","","","","","","","","","","","","","","",""
"html-keyboard-response","223","1649540","0.0-7.0-1.0-0.1","2","0","08slqq8tnjol3w3","","null","","","","null","","","","","","","","","","","","","","","","","","","","","","","","","","","","","","","",""
"audio-keyboard-response","224","1650486","0.0-7.0-1.0-1.1","2","0","08slqq8tnjol3w3","","null","","sounds/B/FAM/P001.mp3","","null","","","","","","","","","","","","","","","","","","","","","","","","","","","","","","","",""
"html-keyboard-response","225","1651702","0.0-7.0-1.0-2.1","2","0","08slqq8tnjol3w3","","710.3999999761581","","<p>How familiar did this sound to you?</p><p>1&nbsp;&nbsp;&nbsp;&nbsp;&nbsp;&nbsp;&nbsp;&nbsp;&nbsp;&nbsp;&nbsp;&nbsp;&nbsp;&nbsp;&nbsp;&nbsp;&nbsp;&nbsp;&nbsp;2&nbsp;&nbsp;&nbsp;&nbsp;&nbsp;&nbsp;&nbsp;&nbsp;&nbsp;&nbsp;&nbsp;&nbsp;&nbsp;&nbsp;&nbsp;&nbsp;&nbsp;&nbsp;&nbsp;3&nbsp;&nbsp;&nbsp;&nbsp;&nbsp;&nbsp;&nbsp;&nbsp;&nbsp;&nbsp;&nbsp;&nbsp;&nbsp;&nbsp;&nbsp;&nbsp;&nbsp;&nbsp;&nbsp;4</p><p style=""font-size:14px"">Not at all familiar&nbsp;&nbsp;&nbsp;&nbsp;A little familiar&nbsp;&nbsp;&nbsp;Moderately familiar&nbsp;&nbsp;&nbsp;Extremely familiar</p><p>(press the corresponding number on your keyboard)</p>","","52","","","FAM-RESPONSE","","","","","","","","sounds/B/FAM/P001.mp3","partword","","","","","","","","","","","","","","","","","","","",""
"html-keyboard-response","226","1653713","0.0-7.0-1.0-0.2","2","0","08slqq8tnjol3w3","","null","","","","null","","","","","","","","","","","","","","","","","","","","","","","","","","","","","","","",""
"audio-keyboard-response","227","1654657","0.0-7.0-1.0-1.2","2","0","08slqq8tnjol3w3","","null","","sounds/B/FAM/W004.mp3","","null","","","","","","","","","","","","","","","","","","","","","","","","","","","","","","","",""
"html-keyboard-response","228","1656874","0.0-7.0-1.0-2.2","2","0","08slqq8tnjol3w3","","1708.7000000476837","","<p>How familiar did this sound to you?</p><p>1&nbsp;&nbsp;&nbsp;&nbsp;&nbsp;&nbsp;&nbsp;&nbsp;&nbsp;&nbsp;&nbsp;&nbsp;&nbsp;&nbsp;&nbsp;&nbsp;&nbsp;&nbsp;&nbsp;2&nbsp;&nbsp;&nbsp;&nbsp;&nbsp;&nbsp;&nbsp;&nbsp;&nbsp;&nbsp;&nbsp;&nbsp;&nbsp;&nbsp;&nbsp;&nbsp;&nbsp;&nbsp;&nbsp;3&nbsp;&nbsp;&nbsp;&nbsp;&nbsp;&nbsp;&nbsp;&nbsp;&nbsp;&nbsp;&nbsp;&nbsp;&nbsp;&nbsp;&nbsp;&nbsp;&nbsp;&nbsp;&nbsp;4</p><p style=""font-size:14px"">Not at all familiar&nbsp;&nbsp;&nbsp;&nbsp;A little familiar&nbsp;&nbsp;&nbsp;Moderately familiar&nbsp;&nbsp;&nbsp;Extremely familiar</p><p>(press the corresponding number on your keyboard)</p>","","50","","","FAM-RESPONSE","","","","","","","","sounds/B/FAM/W004.mp3","word","","","","","","","","","","","","","","","","","","","",""
"html-keyboard-response","229","1658877","0.0-7.0-1.0-0.3","2","0","08slqq8tnjol3w3","","null","","","","null","","","","","","","","","","","","","","","","","","","","","","","","","","","","","","","",""
"audio-keyboard-response","230","1659819","0.0-7.0-1.0-1.3","2","0","08slqq8tnjol3w3","","null","","sounds/B/FAM/N002.mp3","","null","","","","","","","","","","","","","","","","","","","","","","","","","","","","","","","",""
"html-keyboard-response","231","1661162","0.0-7.0-1.0-2.3","2","0","08slqq8tnjol3w3","","836.8000000119209","","<p>How familiar did this sound to you?</p><p>1&nbsp;&nbsp;&nbsp;&nbsp;&nbsp;&nbsp;&nbsp;&nbsp;&nbsp;&nbsp;&nbsp;&nbsp;&nbsp;&nbsp;&nbsp;&nbsp;&nbsp;&nbsp;&nbsp;2&nbsp;&nbsp;&nbsp;&nbsp;&nbsp;&nbsp;&nbsp;&nbsp;&nbsp;&nbsp;&nbsp;&nbsp;&nbsp;&nbsp;&nbsp;&nbsp;&nbsp;&nbsp;&nbsp;3&nbsp;&nbsp;&nbsp;&nbsp;&nbsp;&nbsp;&nbsp;&nbsp;&nbsp;&nbsp;&nbsp;&nbsp;&nbsp;&nbsp;&nbsp;&nbsp;&nbsp;&nbsp;&nbsp;4</p><p style=""font-size:14px"">Not at all familiar&nbsp;&nbsp;&nbsp;&nbsp;A little familiar&nbsp;&nbsp;&nbsp;Moderately familiar&nbsp;&nbsp;&nbsp;Extremely familiar</p><p>(press the corresponding number on your keyboard)</p>","","51","","","FAM-RESPONSE","","","","","","","","sounds/B/FAM/N002.mp3","nonword","","","","","","","","","","","","","","","","","","","",""
"html-keyboard-response","232","1663166","0.0-7.0-1.0-0.4","2","0","08slqq8tnjol3w3","","null","","","","null","","","","","","","","","","","","","","","","","","","","","","","","","","","","","","","",""
"audio-keyboard-response","233","1664107","0.0-7.0-1.0-1.4","2","0","08slqq8tnjol3w3","","null","","sounds/B/FAM/W002.mp3","","null","","","","","","","","","","","","","","","","","","","","","","","","","","","","","","","",""
"html-keyboard-response","234","1665682","0.0-7.0-1.0-2.4","2","0","08slqq8tnjol3w3","","1069.699999988079","","<p>How familiar did this sound to you?</p><p>1&nbsp;&nbsp;&nbsp;&nbsp;&nbsp;&nbsp;&nbsp;&nbsp;&nbsp;&nbsp;&nbsp;&nbsp;&nbsp;&nbsp;&nbsp;&nbsp;&nbsp;&nbsp;&nbsp;2&nbsp;&nbsp;&nbsp;&nbsp;&nbsp;&nbsp;&nbsp;&nbsp;&nbsp;&nbsp;&nbsp;&nbsp;&nbsp;&nbsp;&nbsp;&nbsp;&nbsp;&nbsp;&nbsp;3&nbsp;&nbsp;&nbsp;&nbsp;&nbsp;&nbsp;&nbsp;&nbsp;&nbsp;&nbsp;&nbsp;&nbsp;&nbsp;&nbsp;&nbsp;&nbsp;&nbsp;&nbsp;&nbsp;4</p><p style=""font-size:14px"">Not at all familiar&nbsp;&nbsp;&nbsp;&nbsp;A little familiar&nbsp;&nbsp;&nbsp;Moderately familiar&nbsp;&nbsp;&nbsp;Extremely familiar</p><p>(press the corresponding number on your keyboard)</p>","","51","","","FAM-RESPONSE","","","","","","","","sounds/B/FAM/W002.mp3","word","","","","","","","","","","","","","","","","","","","",""
"html-keyboard-response","235","1667686","0.0-7.0-1.0-0.5","2","0","08slqq8tnjol3w3","","null","","","","null","","","","","","","","","","","","","","","","","","","","","","","","","","","","","","","",""
"audio-keyboard-response","236","1668630","0.0-7.0-1.0-1.5","2","0","08slqq8tnjol3w3","","null","","sounds/B/FAM/N001.mp3","","null","","","","","","","","","","","","","","","","","","","","","","","","","","","","","","","",""
"html-keyboard-response","237","1670010","0.0-7.0-1.0-2.5","2","0","08slqq8tnjol3w3","","873.6999999880791","","<p>How familiar did this sound to you?</p><p>1&nbsp;&nbsp;&nbsp;&nbsp;&nbsp;&nbsp;&nbsp;&nbsp;&nbsp;&nbsp;&nbsp;&nbsp;&nbsp;&nbsp;&nbsp;&nbsp;&nbsp;&nbsp;&nbsp;2&nbsp;&nbsp;&nbsp;&nbsp;&nbsp;&nbsp;&nbsp;&nbsp;&nbsp;&nbsp;&nbsp;&nbsp;&nbsp;&nbsp;&nbsp;&nbsp;&nbsp;&nbsp;&nbsp;3&nbsp;&nbsp;&nbsp;&nbsp;&nbsp;&nbsp;&nbsp;&nbsp;&nbsp;&nbsp;&nbsp;&nbsp;&nbsp;&nbsp;&nbsp;&nbsp;&nbsp;&nbsp;&nbsp;4</p><p style=""font-size:14px"">Not at all familiar&nbsp;&nbsp;&nbsp;&nbsp;A little familiar&nbsp;&nbsp;&nbsp;Moderately familiar&nbsp;&nbsp;&nbsp;Extremely familiar</p><p>(press the corresponding number on your keyboard)</p>","","51","","","FAM-RESPONSE","","","","","","","","sounds/B/FAM/N001.mp3","nonword","","","","","","","","","","","","","","","","","","","",""
"html-keyboard-response","238","1672016","0.0-7.0-1.0-0.6","2","0","08slqq8tnjol3w3","","null","","","","null","","","","","","","","","","","","","","","","","","","","","","","","","","","","","","","",""
"audio-keyboard-response","239","1672960","0.0-7.0-1.0-1.6","2","0","08slqq8tnjol3w3","","null","","sounds/B/FAM/P002.mp3","","null","","","","","","","","","","","","","","","","","","","","","","","","","","","","","","","",""
"html-keyboard-response","240","1674104","0.0-7.0-1.0-2.6","2","0","08slqq8tnjol3w3","","642.4000000357628","","<p>How familiar did this sound to you?</p><p>1&nbsp;&nbsp;&nbsp;&nbsp;&nbsp;&nbsp;&nbsp;&nbsp;&nbsp;&nbsp;&nbsp;&nbsp;&nbsp;&nbsp;&nbsp;&nbsp;&nbsp;&nbsp;&nbsp;2&nbsp;&nbsp;&nbsp;&nbsp;&nbsp;&nbsp;&nbsp;&nbsp;&nbsp;&nbsp;&nbsp;&nbsp;&nbsp;&nbsp;&nbsp;&nbsp;&nbsp;&nbsp;&nbsp;3&nbsp;&nbsp;&nbsp;&nbsp;&nbsp;&nbsp;&nbsp;&nbsp;&nbsp;&nbsp;&nbsp;&nbsp;&nbsp;&nbsp;&nbsp;&nbsp;&nbsp;&nbsp;&nbsp;4</p><p style=""font-size:14px"">Not at all familiar&nbsp;&nbsp;&nbsp;&nbsp;A little familiar&nbsp;&nbsp;&nbsp;Moderately familiar&nbsp;&nbsp;&nbsp;Extremely familiar</p><p>(press the corresponding number on your keyboard)</p>","","50","","","FAM-RESPONSE","","","","","","","","sounds/B/FAM/P002.mp3","partword","","","","","","","","","","","","","","","","","","","",""
"html-keyboard-response","241","1676115","0.0-7.0-1.0-0.7","2","0","08slqq8tnjol3w3","","null","","","","null","","","","","","","","","","","","","","","","","","","","","","","","","","","","","","","",""
"audio-keyboard-response","242","1677056","0.0-7.0-1.0-1.7","2","0","08slqq8tnjol3w3","","null","","sounds/B/FAM/W003.mp3","","null","","","","","","","","","","","","","","","","","","","","","","","","","","","","","","","",""
"html-keyboard-response","243","1678009","0.0-7.0-1.0-2.7","2","0","08slqq8tnjol3w3","","450.10000002384186","","<p>How familiar did this sound to you?</p><p>1&nbsp;&nbsp;&nbsp;&nbsp;&nbsp;&nbsp;&nbsp;&nbsp;&nbsp;&nbsp;&nbsp;&nbsp;&nbsp;&nbsp;&nbsp;&nbsp;&nbsp;&nbsp;&nbsp;2&nbsp;&nbsp;&nbsp;&nbsp;&nbsp;&nbsp;&nbsp;&nbsp;&nbsp;&nbsp;&nbsp;&nbsp;&nbsp;&nbsp;&nbsp;&nbsp;&nbsp;&nbsp;&nbsp;3&nbsp;&nbsp;&nbsp;&nbsp;&nbsp;&nbsp;&nbsp;&nbsp;&nbsp;&nbsp;&nbsp;&nbsp;&nbsp;&nbsp;&nbsp;&nbsp;&nbsp;&nbsp;&nbsp;4</p><p style=""font-size:14px"">Not at all familiar&nbsp;&nbsp;&nbsp;&nbsp;A little familiar&nbsp;&nbsp;&nbsp;Moderately familiar&nbsp;&nbsp;&nbsp;Extremely familiar</p><p>(press the corresponding number on your keyboard)</p>","","52","","","FAM-RESPONSE","","","","","","","","sounds/B/FAM/W003.mp3","word","","","","","","","","","","","","","","","","","","","",""
"html-keyboard-response","244","1680015","0.0-7.0-1.0-0.8","2","0","08slqq8tnjol3w3","","null","","","","null","","","","","","","","","","","","","","","","","","","","","","","","","","","","","","","",""
"audio-keyboard-response","245","1680960","0.0-7.0-1.0-1.8","2","0","08slqq8tnjol3w3","","null","","sounds/B/FAM/N004.mp3","","null","","","","","","","","","","","","","","","","","","","","","","","","","","","","","","","",""
"html-keyboard-response","246","1682643","0.0-7.0-1.0-2.8","2","0","08slqq8tnjol3w3","","1177.5","","<p>How familiar did this sound to you?</p><p>1&nbsp;&nbsp;&nbsp;&nbsp;&nbsp;&nbsp;&nbsp;&nbsp;&nbsp;&nbsp;&nbsp;&nbsp;&nbsp;&nbsp;&nbsp;&nbsp;&nbsp;&nbsp;&nbsp;2&nbsp;&nbsp;&nbsp;&nbsp;&nbsp;&nbsp;&nbsp;&nbsp;&nbsp;&nbsp;&nbsp;&nbsp;&nbsp;&nbsp;&nbsp;&nbsp;&nbsp;&nbsp;&nbsp;3&nbsp;&nbsp;&nbsp;&nbsp;&nbsp;&nbsp;&nbsp;&nbsp;&nbsp;&nbsp;&nbsp;&nbsp;&nbsp;&nbsp;&nbsp;&nbsp;&nbsp;&nbsp;&nbsp;4</p><p style=""font-size:14px"">Not at all familiar&nbsp;&nbsp;&nbsp;&nbsp;A little familiar&nbsp;&nbsp;&nbsp;Moderately familiar&nbsp;&nbsp;&nbsp;Extremely familiar</p><p>(press the corresponding number on your keyboard)</p>","","52","","","FAM-RESPONSE","","","","","","","","sounds/B/FAM/N004.mp3","nonword","","","","","","","","","","","","","","","","","","","",""
"html-keyboard-response","247","1684647","0.0-7.0-1.0-0.9","2","0","08slqq8tnjol3w3","","null","","","","null","","","","","","","","","","","","","","","","","","","","","","","","","","","","","","","",""
"audio-keyboard-response","248","1685590","0.0-7.0-1.0-1.9","2","0","08slqq8tnjol3w3","","null","","sounds/B/FAM/N003.mp3","","null","","","","","","","","","","","","","","","","","","","","","","","","","","","","","","","",""
"html-keyboard-response","249","1686529","0.0-7.0-1.0-2.9","2","0","08slqq8tnjol3w3","","435.30000001192093","","<p>How familiar did this sound to you?</p><p>1&nbsp;&nbsp;&nbsp;&nbsp;&nbsp;&nbsp;&nbsp;&nbsp;&nbsp;&nbsp;&nbsp;&nbsp;&nbsp;&nbsp;&nbsp;&nbsp;&nbsp;&nbsp;&nbsp;2&nbsp;&nbsp;&nbsp;&nbsp;&nbsp;&nbsp;&nbsp;&nbsp;&nbsp;&nbsp;&nbsp;&nbsp;&nbsp;&nbsp;&nbsp;&nbsp;&nbsp;&nbsp;&nbsp;3&nbsp;&nbsp;&nbsp;&nbsp;&nbsp;&nbsp;&nbsp;&nbsp;&nbsp;&nbsp;&nbsp;&nbsp;&nbsp;&nbsp;&nbsp;&nbsp;&nbsp;&nbsp;&nbsp;4</p><p style=""font-size:14px"">Not at all familiar&nbsp;&nbsp;&nbsp;&nbsp;A little familiar&nbsp;&nbsp;&nbsp;Moderately familiar&nbsp;&nbsp;&nbsp;Extremely familiar</p><p>(press the corresponding number on your keyboard)</p>","","52","","","FAM-RESPONSE","","","","","","","","sounds/B/FAM/N003.mp3","nonword","","","","","","","","","","","","","","","","","","","",""
"html-keyboard-response","250","1688533","0.0-7.0-1.0-0.10","2","0","08slqq8tnjol3w3","","null","","","","null","","","","","","","","","","","","","","","","","","","","","","","","","","","","","","","",""
"audio-keyboard-response","251","1689478","0.0-7.0-1.0-1.10","2","0","08slqq8tnjol3w3","","null","","sounds/B/FAM/W001.mp3","","null","","","","","","","","","","","","","","","","","","","","","","","","","","","","","","","",""
"html-keyboard-response","252","1690102","0.0-7.0-1.0-2.10","2","0","08slqq8tnjol3w3","","122.89999997615814","","<p>How familiar did this sound to you?</p><p>1&nbsp;&nbsp;&nbsp;&nbsp;&nbsp;&nbsp;&nbsp;&nbsp;&nbsp;&nbsp;&nbsp;&nbsp;&nbsp;&nbsp;&nbsp;&nbsp;&nbsp;&nbsp;&nbsp;2&nbsp;&nbsp;&nbsp;&nbsp;&nbsp;&nbsp;&nbsp;&nbsp;&nbsp;&nbsp;&nbsp;&nbsp;&nbsp;&nbsp;&nbsp;&nbsp;&nbsp;&nbsp;&nbsp;3&nbsp;&nbsp;&nbsp;&nbsp;&nbsp;&nbsp;&nbsp;&nbsp;&nbsp;&nbsp;&nbsp;&nbsp;&nbsp;&nbsp;&nbsp;&nbsp;&nbsp;&nbsp;&nbsp;4</p><p style=""font-size:14px"">Not at all familiar&nbsp;&nbsp;&nbsp;&nbsp;A little familiar&nbsp;&nbsp;&nbsp;Moderately familiar&nbsp;&nbsp;&nbsp;Extremely familiar</p><p>(press the corresponding number on your keyboard)</p>","","52","","","FAM-RESPONSE","","","","","","","","sounds/B/FAM/W001.mp3","word","","","","","","","","","","","","","","","","","","","",""
"html-keyboard-response","253","1692106","0.0-7.0-1.0-0.11","2","0","08slqq8tnjol3w3","","null","","","","null","","","","","","","","","","","","","","","","","","","","","","","","","","","","","","","",""
"audio-keyboard-response","254","1693051","0.0-7.0-1.0-1.11","2","0","08slqq8tnjol3w3","","null","","sounds/B/FAM/P004.mp3","","null","","","","","","","","","","","","","","","","","","","","","","","","","","","","","","","",""
"html-keyboard-response","255","1693677","0.0-7.0-1.0-2.11","2","0","08slqq8tnjol3w3","","124.69999998807907","","<p>How familiar did this sound to you?</p><p>1&nbsp;&nbsp;&nbsp;&nbsp;&nbsp;&nbsp;&nbsp;&nbsp;&nbsp;&nbsp;&nbsp;&nbsp;&nbsp;&nbsp;&nbsp;&nbsp;&nbsp;&nbsp;&nbsp;2&nbsp;&nbsp;&nbsp;&nbsp;&nbsp;&nbsp;&nbsp;&nbsp;&nbsp;&nbsp;&nbsp;&nbsp;&nbsp;&nbsp;&nbsp;&nbsp;&nbsp;&nbsp;&nbsp;3&nbsp;&nbsp;&nbsp;&nbsp;&nbsp;&nbsp;&nbsp;&nbsp;&nbsp;&nbsp;&nbsp;&nbsp;&nbsp;&nbsp;&nbsp;&nbsp;&nbsp;&nbsp;&nbsp;4</p><p style=""font-size:14px"">Not at all familiar&nbsp;&nbsp;&nbsp;&nbsp;A little familiar&nbsp;&nbsp;&nbsp;Moderately familiar&nbsp;&nbsp;&nbsp;Extremely familiar</p><p>(press the corresponding number on your keyboard)</p>","","52","","","FAM-RESPONSE","","","","","","","","sounds/B/FAM/P004.mp3","partword","","","","","","","","","","","","","","","","","","","",""
"html-button-response","256","1708861","0.0-8.0-0.0","2","0","08slqq8tnjol3w3","","14177.699999988079","","<p>You will now listen to longer sound sequences.</p><p>Each sound sequence will last about 16 seconds.</p><p>On each trial, you will be given a <u>TARGET SOUND</u>. Your task is to listen very carefully for this sound.</p><p>Every time you hear the <u>TARGET SOUND</u>, you will press the <b>SPACEBAR</b> as quickly and accurately as you can.</p>","0","","","","","","","","","","","","","","","","","","","","","","","","","","","","","","","","",""
"html-button-response","257","1713222","0.0-8.0-1.0","2","0","08slqq8tnjol3w3","","4106.600000023842","","<p>It is very important that you make your responses as quickly and accurately as possible.</p><p>To help you make your responses, you will be able to listen to the <u>TARGET SOUND</u> at the beginning of each trial.</p><p>There will be 36 total trials.</p><p><b>Note: This is meant to be a difficult task. We simply want you to try your best.</p>","0","","","","","","","","","","","","","","","","","","","","","","","","","","","","","","","","",""
"html-button-response","258","1715064","0.0-8.0-2.0-0.0","2","0","08slqq8tnjol3w3","","1584.6000000238419","","<p>Trial 1 of 36</p>","0","","","","","","","","","","","","","","GE","sounds/syllables/ge_SWS.wav","1800,4500,9000,11700","1","","","","","","","","","","","","","","","",""
"html-keyboard-response","259","1718297","0.0-8.0-2.0-1.0","2","0","08slqq8tnjol3w3","","3231.400000035763","","","","80","","","","","","","","","","","","","GE","","1800,4500,9000,11700","1","","","","","","","","","","","","","","","",""
"audio-keyboard-response","260","1718597","0.0-8.0-2.0-2.0-0.0","2","0","08slqq8tnjol3w3","","null","","sounds/syllables/ge_SWS.wav","","null","","","","","","","","","","","","","","","","","","","","","","","","","","","","","","","",""
"html-keyboard-response","261","1720431","0.0-8.0-2.0-2.0-1.0","2","0","08slqq8tnjol3w3","","1832.699999988079","","<p>To replay the <u>TARGET SOUND</u>, press P.</p> When you are ready to begin, press SPACEBAR.","","80","","","","","","","","","","","","","","","","","","","","","","","","","","","","","","","",""
"audio-keyboard-response","262","1721232","0.0-8.0-2.0-2.1-0.1","2","0","08slqq8tnjol3w3","","null","","sounds/syllables/ge_SWS.wav","","null","","","","","","","","","","","","","","","","","","","","","","","","","","","","","","","",""
"html-keyboard-response","263","1722156","0.0-8.0-2.0-2.1-1.1","2","0","08slqq8tnjol3w3","","923.1999999880791","","<p>To replay the <u>TARGET SOUND</u>, press P.</p> When you are ready to begin, press SPACEBAR.","","32","","","","","","","","","","","","","","","","","","","","","","","","","","","","","","","",""
"audio-keyboard-response","264","1737104","0.0-8.0-2.0-3.0","2","0","08slqq8tnjol3w3","","2448","","sounds/B/TD/GE_04_TD.mp3","","32","","","TD_SUMMARY","","","","","","","","","","GE","","1800,4500,9000,11700","1","1800","4500","9000","11700","645.1000000238419","585.8999999761581","227.89999997615814","null","2445.100000023842_5085.899999976158_5845.399999976158_9227.899999976158_13731.800000011921_14208.199999988079","2","","","","","",""
"html-button-response","265","1738450","0.0-8.0-2.0-0.1","2","0","08slqq8tnjol3w3","","1342.699999988079","","<p>Trial 2 of 36</p>","0","","","","","","","","","","","","","","ME","sounds/syllables/me_SWS.wav","3000,9300,11100,12900","2","","","","","","","","","","","","","","","",""
"html-keyboard-response","266","1740363","0.0-8.0-2.0-1.1","2","0","08slqq8tnjol3w3","","1912.3999999761581","","","","80","","","","","","","","","","","","","ME","","3000,9300,11100,12900","2","","","","","","","","","","","","","","","",""
"audio-keyboard-response","267","1740666","0.0-8.0-2.0-2.2-0.2","2","0","08slqq8tnjol3w3","","null","","sounds/syllables/me_SWS.wav","","null","","","","","","","","","","","","","","","","","","","","","","","","","","","","","","","",""
"html-keyboard-response","268","1741409","0.0-8.0-2.0-2.2-1.2","2","0","08slqq8tnjol3w3","","742.1000000238419","","<p>To replay the <u>TARGET SOUND</u>, press P.</p> When you are ready to begin, press SPACEBAR.","","80","","","","","","","","","","","","","","","","","","","","","","","","","","","","","","","",""
"audio-keyboard-response","269","1742213","0.0-8.0-2.0-2.3-0.3","2","0","08slqq8tnjol3w3","","null","","sounds/syllables/me_SWS.wav","","null","","","","","","","","","","","","","","","","","","","","","","","","","","","","","","","",""
"html-keyboard-response","270","1742639","0.0-8.0-2.0-2.3-1.3","2","0","08slqq8tnjol3w3","","425.10000002384186","","<p>To replay the <u>TARGET SOUND</u>, press P.</p> When you are ready to begin, press SPACEBAR.","","32","","","","","","","","","","","","","","","","","","","","","","","","","","","","","","","",""
"audio-keyboard-response","271","1757589","0.0-8.0-2.0-3.1","2","0","08slqq8tnjol3w3","","517","","sounds/B/TD/ME_05_TD.mp3","","32","","","TD_SUMMARY","","","","","","","","","","ME","","3000,9300,11100,12900","2","3000","9300","11100","12900","null","497.69999998807907","600.8000000119209","395","______520.3000000119209_2848_6554.199999988079_9797.699999988079_11700.800000011921_13295","2","","","","","",""
"html-button-response","272","1759672","0.0-8.0-2.0-0.2","2","0","08slqq8tnjol3w3","","2080","","<p>Trial 3 of 36</p>","0","","","","","","","","","","","","","","GE","sounds/syllables/ge_SWS.wav","1800,5400,8100,12600","1","","","","","","","","","","","","","","","",""
"html-keyboard-response","273","1760750","0.0-8.0-2.0-1.2","2","0","08slqq8tnjol3w3","","1076.8999999761581","","","","80","","","","","","","","","","","","","GE","","1800,5400,8100,12600","1","","","","","","","","","","","","","","","",""
"audio-keyboard-response","274","1761051","0.0-8.0-2.0-2.4-0.4","2","0","08slqq8tnjol3w3","","null","","sounds/syllables/ge_SWS.wav","","null","","","","","","","","","","","","","","","","","","","","","","","","","","","","","","","",""
"html-keyboard-response","275","1761918","0.0-8.0-2.0-2.4-1.4","2","0","08slqq8tnjol3w3","","866.5999999642372","","<p>To replay the <u>TARGET SOUND</u>, press P.</p> When you are ready to begin, press SPACEBAR.","","80","","","","","","","","","","","","","","","","","","","","","","","","","","","","","","","",""
"audio-keyboard-response","276","1762720","0.0-8.0-2.0-2.5-0.5","2","0","08slqq8tnjol3w3","","null","","sounds/syllables/ge_SWS.wav","","null","","","","","","","","","","","","","","","","","","","","","","","","","","","","","","","",""
"html-keyboard-response","277","1763114","0.0-8.0-2.0-2.5-1.5","2","0","08slqq8tnjol3w3","","393.5","","<p>To replay the <u>TARGET SOUND</u>, press P.</p> When you are ready to begin, press SPACEBAR.","","32","","","","","","","","","","","","","","","","","","","","","","","","","","","","","","","",""
"audio-keyboard-response","278","1778064","0.0-8.0-2.0-3.2","2","0","08slqq8tnjol3w3","","1744","","sounds/B/TD/GE_06_TD.mp3","","32","","","TD_SUMMARY","","","","","","","","","","GE","","1800,5400,8100,12600","1","1800","5400","8100","12600","null","null","562.8000000119209","null","____________1745.300000011921_5486.899999976158_8662.800000011921_12039","2","","","","","",""
"html-button-response","279","1797345","0.0-8.0-2.0-0.3","2","0","08slqq8tnjol3w3","","19278.600000023842","","<p>Trial 4 of 36</p>","0","","","","","","","","","","","","","","PU","sounds/syllables/pu_SWS.wav","1800,6300,9900,12600","1","","","","","","","","","","","","","","","",""
"html-keyboard-response","280","1798038","0.0-8.0-2.0-1.3","2","0","08slqq8tnjol3w3","","691.6000000238419","","","","80","","","","","","","","","","","","","PU","","1800,6300,9900,12600","1","","","","","","","","","","","","","","","",""
"audio-keyboard-response","281","1798341","0.0-8.0-2.0-2.6-0.6","2","0","08slqq8tnjol3w3","","null","","sounds/syllables/pu_SWS.wav","","null","","","","","","","","","","","","","","","","","","","","","","","","","","","","","","","",""
"html-keyboard-response","282","1799087","0.0-8.0-2.0-2.6-1.6","2","0","08slqq8tnjol3w3","","745.6000000238419","","<p>To replay the <u>TARGET SOUND</u>, press P.</p> When you are ready to begin, press SPACEBAR.","","80","","","","","","","","","","","","","","","","","","","","","","","","","","","","","","","",""
"audio-keyboard-response","283","1799893","0.0-8.0-2.0-2.7-0.7","2","0","08slqq8tnjol3w3","","null","","sounds/syllables/pu_SWS.wav","","null","","","","","","","","","","","","","","","","","","","","","","","","","","","","","","","",""
"html-keyboard-response","284","1800659","0.0-8.0-2.0-2.7-1.7","2","0","08slqq8tnjol3w3","","765.3000000119209","","<p>To replay the <u>TARGET SOUND</u>, press P.</p> When you are ready to begin, press SPACEBAR.","","32","","","","","","","","","","","","","","","","","","","","","","","","","","","","","","","",""
"audio-keyboard-response","285","1815610","0.0-8.0-2.0-3.3","2","0","08slqq8tnjol3w3","","1968","","sounds/B/TD/PU_04_TD.mp3","","32","","","TD_SUMMARY","","","","","","","","","","PU","","1800,6300,9900,12600","1","1800","6300","9900","12600","null","855.6000000238419","1071.2000000476837","1154.2000000476837","________________1969.9000000357628_5068.900000035763_6301.400000035763_7155.600000023842_9497.200000047684_10460_10971.200000047684_13754.200000047684","2","","","","","",""
"html-button-response","286","1817529","0.0-8.0-2.0-0.4","2","0","08slqq8tnjol3w3","","1916.5","","<p>Trial 5 of 36</p>","0","","","","","","","","","","","","","","TI","sounds/syllables/ti_SWS.wav","900,2700,9000,11700","1","","","","","","","","","","","","","","","",""
"html-keyboard-response","287","1818925","0.0-8.0-2.0-1.4","2","0","08slqq8tnjol3w3","","1394.199999988079","","","","80","","","","","","","","","","","","","TI","","900,2700,9000,11700","1","","","","","","","","","","","","","","","",""
"audio-keyboard-response","288","1819226","0.0-8.0-2.0-2.8-0.8","2","0","08slqq8tnjol3w3","","null","","sounds/syllables/ti_SWS.wav","","null","","","","","","","","","","","","","","","","","","","","","","","","","","","","","","","",""
"html-keyboard-response","289","1819974","0.0-8.0-2.0-2.8-1.8","2","0","08slqq8tnjol3w3","","746.7000000476837","","<p>To replay the <u>TARGET SOUND</u>, press P.</p> When you are ready to begin, press SPACEBAR.","","80","","","","","","","","","","","","","","","","","","","","","","","","","","","","","","","",""
"audio-keyboard-response","290","1820778","0.0-8.0-2.0-2.9-0.9","2","0","08slqq8tnjol3w3","","null","","sounds/syllables/ti_SWS.wav","","null","","","","","","","","","","","","","","","","","","","","","","","","","","","","","","","",""
"html-keyboard-response","291","1821317","0.0-8.0-2.0-2.9-1.9","2","0","08slqq8tnjol3w3","","538.6000000238419","","<p>To replay the <u>TARGET SOUND</u>, press P.</p> When you are ready to begin, press SPACEBAR.","","32","","","","","","","","","","","","","","","","","","","","","","","","","","","","","","","",""
"audio-keyboard-response","292","1836266","0.0-8.0-2.0-3.4","2","0","08slqq8tnjol3w3","","1701","","sounds/B/TD/TI_10_TD.mp3","","32","","","TD_SUMMARY","","","","","","","","","","TI","","900,2700,9000,11700","1","900","2700","9000","11700","801.8999999761581","752.5999999642372","null","null","________________________1701.8999999761581_3452.599999964237_4610.899999976158_6044.399999976158_6932.899999976158_8701.299999952316_13476.399999976158","2","","","","","",""
"html-button-response","293","1839115","0.0-8.0-2.0-0.5","2","0","08slqq8tnjol3w3","","2846.800000011921","","<p>Trial 6 of 36</p>","0","","","","","","","","","","","","","","TI","sounds/syllables/ti_SWS.wav","900,3600,8100,11700","1","","","","","","","","","","","","","","","",""
"html-keyboard-response","294","1840299","0.0-8.0-2.0-1.5","2","0","08slqq8tnjol3w3","","1182.3999999761581","","","","80","","","","","","","","","","","","","TI","","900,3600,8100,11700","1","","","","","","","","","","","","","","","",""
"audio-keyboard-response","295","1840602","0.0-8.0-2.0-2.10-0.10","2","0","08slqq8tnjol3w3","","null","","sounds/syllables/ti_SWS.wav","","null","","","","","","","","","","","","","","","","","","","","","","","","","","","","","","","",""
"html-keyboard-response","296","1841360","0.0-8.0-2.0-2.10-1.10","2","0","08slqq8tnjol3w3","","757.3000000119209","","<p>To replay the <u>TARGET SOUND</u>, press P.</p> When you are ready to begin, press SPACEBAR.","","32","","","","","","","","","","","","","","","","","","","","","","","","","","","","","","","",""
"audio-keyboard-response","297","1856309","0.0-8.0-2.0-3.5","2","0","08slqq8tnjol3w3","","1568","","sounds/B/TD/TI_08_TD.mp3","","32","","","TD_SUMMARY","","","","","","","","","","TI","","900,3600,8100,11700","1","900","3600","8100","11700","668.1999999880791","309.30000001192093","339.4000000357628","883.5","_______________________________1568.199999988079_2772_3909.300000011921_5766.800000011921_7241.800000011921_8156.400000035763_8439.400000035763_9311.900000035763_10206.600000023842_11368.5_12583.5_14424.699999988079","1","","","","","",""
"html-button-response","298","1857377","0.0-8.0-2.0-0.6","2","0","08slqq8tnjol3w3","","1065.3999999761581","","<p>Trial 7 of 36</p>","0","","","","","","","","","","","","","","TI","sounds/syllables/ti_SWS.wav","1800,3600,8100,10800","1","","","","","","","","","","","","","","","",""
"html-keyboard-response","299","1858597","0.0-8.0-2.0-1.6","2","0","08slqq8tnjol3w3","","1219.199999988079","","","","80","","","","","","","","","","","","","TI","","1800,3600,8100,10800","1","","","","","","","","","","","","","","","",""
"audio-keyboard-response","300","1858900","0.0-8.0-2.0-2.11-0.11","2","0","08slqq8tnjol3w3","","null","","sounds/syllables/ti_SWS.wav","","null","","","","","","","","","","","","","","","","","","","","","","","","","","","","","","","",""
"html-keyboard-response","301","1859699","0.0-8.0-2.0-2.11-1.11","2","0","08slqq8tnjol3w3","","798.1000000238419","","<p>To replay the <u>TARGET SOUND</u>, press P.</p> When you are ready to begin, press SPACEBAR.","","32","","","","","","","","","","","","","","","","","","","","","","","","","","","","","","","",""
"audio-keyboard-response","302","1874650","0.0-8.0-2.0-3.6","2","0","08slqq8tnjol3w3","","2373","","sounds/B/TD/TI_09_TD.mp3","","32","","","TD_SUMMARY","","","","","","","","","","TI","","1800,3600,8100,10800","1","1800","3600","8100","10800","574.5","917","1005.1999999880791","null","___________________________________________2374.5_4517_6041.600000023842_9105.199999988079_10988.300000011921","1","","","","","",""
"html-button-response","303","1880099","0.0-8.0-2.0-0.7","2","0","08slqq8tnjol3w3","","5446.100000023842","","<p>Trial 8 of 36</p>","0","","","","","","","","","","","","","","NI","sounds/syllables/ni_SWS.wav","3000,6600,10200,12000","2","","","","","","","","","","","","","","","",""
"html-keyboard-response","304","1881154","0.0-8.0-2.0-1.7","2","0","08slqq8tnjol3w3","","1053.9000000357628","","","","80","","","","","","","","","","","","","NI","","3000,6600,10200,12000","2","","","","","","","","","","","","","","","",""
"audio-keyboard-response","305","1881455","0.0-8.0-2.0-2.12-0.12","2","0","08slqq8tnjol3w3","","null","","sounds/syllables/ni_SWS.wav","","null","","","","","","","","","","","","","","","","","","","","","","","","","","","","","","","",""
"html-keyboard-response","306","1882034","0.0-8.0-2.0-2.12-1.12","2","0","08slqq8tnjol3w3","","578.1000000238419","","<p>To replay the <u>TARGET SOUND</u>, press P.</p> When you are ready to begin, press SPACEBAR.","","80","","","","","","","","","","","","","","","","","","","","","","","","","","","","","","","",""
"audio-keyboard-response","307","1882842","0.0-8.0-2.0-2.13-0.13","2","0","08slqq8tnjol3w3","","null","","sounds/syllables/ni_SWS.wav","","null","","","","","","","","","","","","","","","","","","","","","","","","","","","","","","","",""
"html-keyboard-response","308","1883462","0.0-8.0-2.0-2.13-1.13","2","0","08slqq8tnjol3w3","","619.5","","<p>To replay the <u>TARGET SOUND</u>, press P.</p> When you are ready to begin, press SPACEBAR.","","32","","","","","","","","","","","","","","","","","","","","","","","","","","","","","","","",""
"audio-keyboard-response","309","1898410","0.0-8.0-2.0-3.7","2","0","08slqq8tnjol3w3","","2064","","sounds/B/TD/NI_05_TD.mp3","","32","","","TD_SUMMARY","","","","","","","","","","NI","","3000,6600,10200,12000","2","3000","6600","10200","12000","925.4000000357628","334.10000002384186","531.7000000476837","1165.800000011921","________________________________________________2066.2000000476837_2453.600000023842_3925.400000035763_6034_6934.100000023842_9863.400000035763_10731.700000047684_13165.800000011921","2","","","","","",""
"html-button-response","310","1954564","0.0-8.0-2.0-0.8","2","0","08slqq8tnjol3w3","","56152.5","","<p>Trial 9 of 36</p>","0","","","","","","","","","","","","","","SU","sounds/syllables/su_SWS.wav","3900,5700,7500,9300","2","","","","","","","","","","","","","","","",""
"html-keyboard-response","311","1955571","0.0-8.0-2.0-1.8","2","0","08slqq8tnjol3w3","","1004.6000000238419","","","","80","","","","","","","","","","","","","SU","","3900,5700,7500,9300","2","","","","","","","","","","","","","","","",""
"audio-keyboard-response","312","1956305","0.0-8.0-2.0-2.14-0.14","2","0","08slqq8tnjol3w3","","null","","sounds/syllables/su_SWS.wav","","null","","","","","","","","","","","","","","","","","","","","","","","","","","","","","","","",""
"html-keyboard-response","313","1957000","0.0-8.0-2.0-2.14-1.14","2","0","08slqq8tnjol3w3","","694.4000000357628","","<p>To replay the <u>TARGET SOUND</u>, press P.</p> When you are ready to begin, press SPACEBAR.","","80","","","","","","","","","","","","","","","","","","","","","","","","","","","","","","","",""
"audio-keyboard-response","314","1957804","0.0-8.0-2.0-2.15-0.15","2","0","08slqq8tnjol3w3","","null","","sounds/syllables/su_SWS.wav","","null","","","","","","","","","","","","","","","","","","","","","","","","","","","","","","","",""
"html-keyboard-response","315","1958360","0.0-8.0-2.0-2.15-1.15","2","0","08slqq8tnjol3w3","","555.9000000357628","","<p>To replay the <u>TARGET SOUND</u>, press P.</p> When you are ready to begin, press SPACEBAR.","","32","","","","","","","","","","","","","","","","","","","","","","","","","","","","","","","",""
"audio-keyboard-response","316","1973308","0.0-8.0-2.0-3.8","2","0","08slqq8tnjol3w3","","1904","","sounds/B/TD/SU_02_TD.mp3","","32","","","TD_SUMMARY","","","","","","","","","","SU","","3900,5700,7500,9300","2","3900","5700","7500","9300","584.1999999880791","1066.300000011921","864","705.8000000119209","________________________________________________________1901.699999988079_3380.800000011921_4484.199999988079_6766.300000011921_8364_10005.800000011921_11411.600000023842_13268.199999988079","2","","","","","",""
"html-button-response","317","1986895","0.0-8.0-2.0-0.9","2","0","08slqq8tnjol3w3","","13584.5","","<p>Trial 10 of 36</p>","0","","","","","","","","","","","","","","GE","sounds/syllables/ge_SWS.wav","900,4500,6300,8100","1","","","","","","","","","","","","","","","",""
"html-keyboard-response","318","1988068","0.0-8.0-2.0-1.9","2","0","08slqq8tnjol3w3","","1170.800000011921","","","","80","","","","","","","","","","","","","GE","","900,4500,6300,8100","1","","","","","","","","","","","","","","","",""
"audio-keyboard-response","319","1988369","0.0-8.0-2.0-2.16-0.16","2","0","08slqq8tnjol3w3","","null","","sounds/syllables/ge_SWS.wav","","null","","","","","","","","","","","","","","","","","","","","","","","","","","","","","","","",""
"html-keyboard-response","320","1989017","0.0-8.0-2.0-2.16-1.16","2","0","08slqq8tnjol3w3","","646.8000000119209","","<p>To replay the <u>TARGET SOUND</u>, press P.</p> When you are ready to begin, press SPACEBAR.","","32","","","","","","","","","","","","","","","","","","","","","","","","","","","","","","","",""
"audio-keyboard-response","321","2003969","0.0-8.0-2.0-3.9","2","0","08slqq8tnjol3w3","","1648","","sounds/B/TD/GE_01_TD.mp3","","32","","","TD_SUMMARY","","","","","","","","","","GE","","900,4500,6300,8100","1","900","4500","6300","8100","749.8000000119209","null","554.5999999642372","null","________________________________________________________________1649.800000011921_4458.699999988079_6854.599999964237_8187.399999976158_10108.099999964237_11629.300000011921_14009.599999964237","1","","","","","",""
"html-button-response","322","2005148","0.0-8.0-2.0-0.10","2","0","08slqq8tnjol3w3","","1175.8999999761581","","<p>Trial 11 of 36</p>","0","","","","","","","","","","","","","","FE","sounds/syllables/fe_SWS.wav","3300,7800,9600,11400","3","","","","","","","","","","","","","","","",""
"html-keyboard-response","323","2005862","0.0-8.0-2.0-1.10","2","0","08slqq8tnjol3w3","","712.6000000238419","","","","80","","","","","","","","","","","","","FE","","3300,7800,9600,11400","3","","","","","","","","","","","","","","","",""
"audio-keyboard-response","324","2006166","0.0-8.0-2.0-2.17-0.17","2","0","08slqq8tnjol3w3","","null","","sounds/syllables/fe_SWS.wav","","null","","","","","","","","","","","","","","","","","","","","","","","","","","","","","","","",""
"html-keyboard-response","325","2006610","0.0-8.0-2.0-2.17-1.17","2","0","08slqq8tnjol3w3","","443.19999998807907","","<p>To replay the <u>TARGET SOUND</u>, press P.</p> When you are ready to begin, press SPACEBAR.","","80","","","","","","","","","","","","","","","","","","","","","","","","","","","","","","","",""
"audio-keyboard-response","326","2007419","0.0-8.0-2.0-2.18-0.18","2","0","08slqq8tnjol3w3","","null","","sounds/syllables/fe_SWS.wav","","null","","","","","","","","","","","","","","","","","","","","","","","","","","","","","","","",""
"html-keyboard-response","327","2007925","0.0-8.0-2.0-2.18-1.18","2","0","08slqq8tnjol3w3","","504.80000001192093","","<p>To replay the <u>TARGET SOUND</u>, press P.</p> When you are ready to begin, press SPACEBAR.","","32","","","","","","","","","","","","","","","","","","","","","","","","","","","","","","","",""
"audio-keyboard-response","328","2022876","0.0-8.0-2.0-3.10","2","0","08slqq8tnjol3w3","","3461","","sounds/B/TD/FE_05_TD.mp3","","32","","","TD_SUMMARY","","","","","","","","","","FE","","3300,7800,9600,11400","3","3300","7800","9600","11400","null","467.10000002384186","234.60000002384186","null","_______________________________________________________________________3461_5767.5_6931.5_8267.100000023842_9834.600000023842_11482.600000023842_13709.800000011921","2","","","","","",""
"html-button-response","329","2024702","0.0-8.0-2.0-0.11","2","0","08slqq8tnjol3w3","","1823.6000000238419","","<p>Trial 12 of 36</p>","0","","","","","","","","","","","","","","ME","sounds/syllables/me_SWS.wav","2100,3900,8400,12000","2","","","","","","","","","","","","","","","",""
"html-keyboard-response","330","2025520","0.0-8.0-2.0-1.11","2","0","08slqq8tnjol3w3","","817.6000000238419","","","","80","","","","","","","","","","","","","ME","","2100,3900,8400,12000","2","","","","","","","","","","","","","","","",""
"audio-keyboard-response","331","2025825","0.0-8.0-2.0-2.19-0.19","2","0","08slqq8tnjol3w3","","null","","sounds/syllables/me_SWS.wav","","null","","","","","","","","","","","","","","","","","","","","","","","","","","","","","","","",""
"html-keyboard-response","332","2026243","0.0-8.0-2.0-2.19-1.19","2","0","08slqq8tnjol3w3","","417.39999997615814","","<p>To replay the <u>TARGET SOUND</u>, press P.</p> When you are ready to begin, press SPACEBAR.","","80","","","","","","","","","","","","","","","","","","","","","","","","","","","","","","","",""
"audio-keyboard-response","333","2027046","0.0-8.0-2.0-2.20-0.20","2","0","08slqq8tnjol3w3","","null","","sounds/syllables/me_SWS.wav","","null","","","","","","","","","","","","","","","","","","","","","","","","","","","","","","","",""
"html-keyboard-response","334","2027324","0.0-8.0-2.0-2.20-1.20","2","0","08slqq8tnjol3w3","","276.69999998807907","","<p>To replay the <u>TARGET SOUND</u>, press P.</p> When you are ready to begin, press SPACEBAR.","","32","","","","","","","","","","","","","","","","","","","","","","","","","","","","","","","",""
"audio-keyboard-response","335","2042273","0.0-8.0-2.0-3.11","2","0","08slqq8tnjol3w3","","2395","","sounds/B/TD/ME_06_TD.mp3","","32","","","TD_SUMMARY","","","","","","","","","","ME","","2100,3900,8400,12000","2","2100","3900","8400","12000","292.9000000357628","921.4000000357628","946","453.4000000357628","______________________________________________________________________________2392.900000035763_4821.400000035763_7137.800000011921_9346_12453.400000035763","2","","","","","",""
