"trial_type","trial_index","time_elapsed","internal_node_id","counterbalance","lang_instruct","ParticipantID","view_history","rt","url","stimulus","button_pressed","key_press","correctRESP","correct","designation","location","correctanswer","timeouts","pause_rt01","pause_rt02","train_file","numKeyPress","sound","fam_type","SYLLABLE","EXEMPLAR","TD_LOCS","TD_TYPE","TDLOC_01","TDLOC_02","TDLOC_03","TDLOC_04","TD_RT_01","TD_RT_02","TD_RT_03","TD_RT_04","TD_SUBJ_RTs","number_of_plays","responses","slider_start","response","question_order","syllable","syllable_type"
"pavlovia","0","3","0.0-0.0","1","0","zbz9azqabhzdmp7","","","","","","","","","","","","","","","","","","","","","","","","","","","","","","","","","","","","","",""
"instructions","1","38970","0.0-1.0","1","0","zbz9azqabhzdmp7","[{""page_index"":0,""viewing_time"":2540.399999976158},{""page_index"":1,""viewing_time"":36421.5}]","38966.30000001192","","","","","","","","","","","","","","","","","","","","","","","","","","","","","","","","","","","",""
"external-html","2","46242","0.0-2.0","1","0","zbz9azqabhzdmp7","","7123.300000011921","consent/consent.html","","","","","","","","","","","","","","","","","","","","","","","","","","","","","","","","","","",""
"html-button-response","3","1107542","0.0-3.0-0.0-0.0","1","0","zbz9azqabhzdmp7","","1061296.7999999523","","<p>Welcome to the study. You will first complete a short volume calibration and headphone check.</p><p>Please make sure you are in a quiet listening environment, that you are wearing headphones, and that your computer's volume is turned on.<p></p>","0","","","","","","","","","","","","","","","","","","","","","","","","","","","","","","","","",""
"html-button-response","4","1110105","0.0-3.0-0.0-1.0","1","0","zbz9azqabhzdmp7","","2309","","<p>The volume calibration will be first.</p><p>You will hear a thirty-second noise. Please adjust your computer's volume so that this noise is being presented at a comfortable level.<p></p>","0","","","","","","","","","","","","","","","","","","","","","","","","","","","","","","","","",""
"audio-button-response","5","1115759","0.0-3.0-0.0-2.0","1","0","zbz9azqabhzdmp7","","4741","","audCalib/volumetest.mp3","0","","","","","","","","","","","","","","","","","","","","","","","","","","","","","","","","",""
"html-button-response","6","1121138","0.0-3.0-1.0-0.0","1","0","zbz9azqabhzdmp7","","5376.5","","<p>You will now complete a short headphone check.</p><p>On each trial, you will hear three tones. One of these tones will be quieter than the others. Your task is to identify whether the quiet tone occured first, second, or third.</p><p>There are six trials in total.<p></p>","0","","","","","","","","","","","","","","","","","","","","","","","","","","","","","","","","",""
"html-keyboard-response","7","1121911","0.0-3.0-1.0-1.0-0.0","1","0","zbz9azqabhzdmp7","","null","","<div style=""font-size:60px;"">+</div>","","null","","","","","","","","","","","","","","","","","","","","","","","","","","","","","","","",""
"audio-button-response","8","1123745","0.0-3.0-1.0-1.0-1.0","1","0","zbz9azqabhzdmp7","","1829","","audCalib/t2_1.mp3","0","","1","0","headphone-test","","","","","","","","","","","","","","","","","","","","","","","","","","","","",""
"html-keyboard-response","9","1124516","0.0-3.0-1.0-1.0-0.1","1","0","zbz9azqabhzdmp7","","null","","<div style=""font-size:60px;"">+</div>","","null","","","","","","","","","","","","","","","","","","","","","","","","","","","","","","","",""
"audio-button-response","10","1126218","0.0-3.0-1.0-1.0-1.1","1","0","zbz9azqabhzdmp7","","1699","","audCalib/t2_2.mp3","1","","1","1","headphone-test","","","","","","","","","","","","","","","","","","","","","","","","","","","","",""
"html-keyboard-response","11","1126983","0.0-3.0-1.0-1.0-0.2","1","0","zbz9azqabhzdmp7","","null","","<div style=""font-size:60px;"">+</div>","","null","","","","","","","","","","","","","","","","","","","","","","","","","","","","","","","",""
"audio-button-response","12","1128598","0.0-3.0-1.0-1.0-1.2","1","0","zbz9azqabhzdmp7","","1611","","audCalib/t3_1.mp3","2","","2","1","headphone-test","","","","","","","","","","","","","","","","","","","","","","","","","","","","",""
"html-keyboard-response","13","1129368","0.0-3.0-1.0-1.0-0.3","1","0","zbz9azqabhzdmp7","","null","","<div style=""font-size:60px;"">+</div>","","null","","","","","","","","","","","","","","","","","","","","","","","","","","","","","","","",""
"audio-button-response","14","1130866","0.0-3.0-1.0-1.0-1.3","1","0","zbz9azqabhzdmp7","","1501","","audCalib/t1_1.mp3","0","","0","1","headphone-test","","","","","","","","","","","","","","","","","","","","","","","","","","","","",""
"html-keyboard-response","15","1131626","0.0-3.0-1.0-1.0-0.4","1","0","zbz9azqabhzdmp7","","null","","<div style=""font-size:60px;"">+</div>","","null","","","","","","","","","","","","","","","","","","","","","","","","","","","","","","","",""
"audio-button-response","16","1133077","0.0-3.0-1.0-1.0-1.4","1","0","zbz9azqabhzdmp7","","1451","","audCalib/t3_2.mp3","1","","2","0","headphone-test","","","","","","","","","","","","","","","","","","","","","","","","","","","","",""
"html-keyboard-response","17","1133854","0.0-3.0-1.0-1.0-0.5","1","0","zbz9azqabhzdmp7","","null","","<div style=""font-size:60px;"">+</div>","","null","","","","","","","","","","","","","","","","","","","","","","","","","","","","","","","",""
"audio-button-response","18","1135272","0.0-3.0-1.0-1.0-1.5","1","0","zbz9azqabhzdmp7","","1421","","audCalib/t1_2.mp3","2","","0","0","headphone-test","","","","","","","","","","","","","","","","","","","","","","","","","","","","",""
"html-button-response","19","1137023","0.0-3.0-2.0","1","0","zbz9azqabhzdmp7","","1495","","<p>The volume calibration and headphone check are now complete.</p>","0","","","","","","","","","","","","","","","","","","","","","","","","","","","","","","","","",""
"instructions","20","1181196","0.0-4.0-0.0","1","0","zbz9azqabhzdmp7","[{""page_index"":0,""viewing_time"":962.5999999642372},{""page_index"":1,""viewing_time"":41579.40000003576},{""page_index"":2,""viewing_time"":1629.5}]","44173.30000001192","","","","","","","","","","","","","","","","","","","","","","","","","","","","","","","","","","","",""
"audio-keyboard-response","21","1182107","0.0-4.0-1.0-0.0","1","0","zbz9azqabhzdmp7","","null","","sounds/induction/left_rev/ta_SWS.wav","","null","","","","","","","","","","","","","","","","","","","","","","","","","","","","","","","",""
"html-button-response","22","1183089","0.0-4.0-1.0-1.0","1","0","zbz9azqabhzdmp7","","978.7000000476837","","Was the sound coming from the left or the right?","0","","","1","INDUCTION-JUDGMENT","left","0","","","","","","","","","","","","","","","","","","","","","","","","","","",""
"html-keyboard-response","23","1184095","0.0-4.0-1.0-2.0","1","0","zbz9azqabhzdmp7","","null","","<p style=""color:#054d00;""><b>Correct!</b></p>","","null","","","","","","","","","","","","","","","","","","","","","","","","","","","","","","","",""
"audio-keyboard-response","24","1184906","0.0-4.0-1.0-0.1","1","0","zbz9azqabhzdmp7","","null","","sounds/induction/left_rev/me_SWS.wav","","null","","","","","","","","","","","","","","","","","","","","","","","","","","","","","","","",""
"html-button-response","25","1187884","0.0-4.0-1.0-1.1","1","0","zbz9azqabhzdmp7","","2975.800000011921","","Was the sound coming from the left or the right?","1","","","0","INDUCTION-JUDGMENT","left","0","","","","","","","","","","","","","","","","","","","","","","","","","","",""
"html-keyboard-response","26","1188885","0.0-4.0-1.0-2.1","1","0","zbz9azqabhzdmp7","","null","","<p style=""color:#690000;""><b>Incorrect!</b></p>","","null","","","","","","","","","","","","","","","","","","","","","","","","","","","","","","","",""
"audio-keyboard-response","27","1189696","0.0-4.0-1.0-0.2","1","0","zbz9azqabhzdmp7","","null","","sounds/induction/right_rev/ko_SWS.wav","","null","","","","","","","","","","","","","","","","","","","","","","","","","","","","","","","",""
"html-button-response","28","1190592","0.0-4.0-1.0-1.2","1","0","zbz9azqabhzdmp7","","893.6000000238419","","Was the sound coming from the left or the right?","1","","","1","INDUCTION-JUDGMENT","right","1","","","","","","","","","","","","","","","","","","","","","","","","","","",""
"html-keyboard-response","29","1191594","0.0-4.0-1.0-2.2","1","0","zbz9azqabhzdmp7","","null","","<p style=""color:#054d00;""><b>Correct!</b></p>","","null","","","","","","","","","","","","","","","","","","","","","","","","","","","","","","","",""
"audio-keyboard-response","30","1192386","0.0-4.0-1.0-0.3","1","0","zbz9azqabhzdmp7","","null","","sounds/induction/right_rev/re_SWS.wav","","null","","","","","","","","","","","","","","","","","","","","","","","","","","","","","","","",""
"html-button-response","31","1193042","0.0-4.0-1.0-1.3","1","0","zbz9azqabhzdmp7","","654.3999999761581","","Was the sound coming from the left or the right?","1","","","1","INDUCTION-JUDGMENT","right","1","","","","","","","","","","","","","","","","","","","","","","","","","","",""
"html-keyboard-response","32","1194049","0.0-4.0-1.0-2.3","1","0","zbz9azqabhzdmp7","","null","","<p style=""color:#054d00;""><b>Correct!</b></p>","","null","","","","","","","","","","","","","","","","","","","","","","","","","","","","","","","",""
"audio-keyboard-response","33","1194866","0.0-4.0-1.0-0.4","1","0","zbz9azqabhzdmp7","","null","","sounds/induction/right_rev/ni_SWS.wav","","null","","","","","","","","","","","","","","","","","","","","","","","","","","","","","","","",""
"html-button-response","34","1195601","0.0-4.0-1.0-1.4","1","0","zbz9azqabhzdmp7","","732.5","","Was the sound coming from the left or the right?","1","","","1","INDUCTION-JUDGMENT","right","1","","","","","","","","","","","","","","","","","","","","","","","","","","",""
"html-keyboard-response","35","1196617","0.0-4.0-1.0-2.4","1","0","zbz9azqabhzdmp7","","null","","<p style=""color:#054d00;""><b>Correct!</b></p>","","null","","","","","","","","","","","","","","","","","","","","","","","","","","","","","","","",""
"audio-keyboard-response","36","1197426","0.0-4.0-1.0-0.5","1","0","zbz9azqabhzdmp7","","null","","sounds/induction/right_rev/ko_SWS.wav","","null","","","","","","","","","","","","","","","","","","","","","","","","","","","","","","","",""
"html-button-response","37","1198187","0.0-4.0-1.0-1.5","1","0","zbz9azqabhzdmp7","","758.6999999880791","","Was the sound coming from the left or the right?","0","","","0","INDUCTION-JUDGMENT","right","1","","","","","","","","","","","","","","","","","","","","","","","","","","",""
"html-keyboard-response","38","1199188","0.0-4.0-1.0-2.5","1","0","zbz9azqabhzdmp7","","null","","<p style=""color:#690000;""><b>Incorrect!</b></p>","","null","","","","","","","","","","","","","","","","","","","","","","","","","","","","","","","",""
"audio-keyboard-response","39","1199987","0.0-4.0-1.0-0.6","1","0","zbz9azqabhzdmp7","","null","","sounds/induction/right_rev/pu_SWS.wav","","null","","","","","","","","","","","","","","","","","","","","","","","","","","","","","","","",""
"html-button-response","40","1200865","0.0-4.0-1.0-1.6","1","0","zbz9azqabhzdmp7","","877.3999999761581","","Was the sound coming from the left or the right?","0","","","0","INDUCTION-JUDGMENT","right","1","","","","","","","","","","","","","","","","","","","","","","","","","","",""
"html-keyboard-response","41","1201867","0.0-4.0-1.0-2.6","1","0","zbz9azqabhzdmp7","","null","","<p style=""color:#690000;""><b>Incorrect!</b></p>","","null","","","","","","","","","","","","","","","","","","","","","","","","","","","","","","","",""
"audio-keyboard-response","42","1202667","0.0-4.0-1.0-0.7","1","0","zbz9azqabhzdmp7","","null","","sounds/induction/right_rev/ta_SWS.wav","","null","","","","","","","","","","","","","","","","","","","","","","","","","","","","","","","",""
"html-button-response","43","1203968","0.0-4.0-1.0-1.7","1","0","zbz9azqabhzdmp7","","1299.6000000238419","","Was the sound coming from the left or the right?","1","","","1","INDUCTION-JUDGMENT","right","1","","","","","","","","","","","","","","","","","","","","","","","","","","",""
"html-keyboard-response","44","1204971","0.0-4.0-1.0-2.7","1","0","zbz9azqabhzdmp7","","null","","<p style=""color:#054d00;""><b>Correct!</b></p>","","null","","","","","","","","","","","","","","","","","","","","","","","","","","","","","","","",""
"audio-keyboard-response","45","1205777","0.0-4.0-1.0-0.8","1","0","zbz9azqabhzdmp7","","null","","sounds/induction/right_rev/ni_SWS.wav","","null","","","","","","","","","","","","","","","","","","","","","","","","","","","","","","","",""
"html-button-response","46","1206440","0.0-4.0-1.0-1.8","1","0","zbz9azqabhzdmp7","","661.9000000357628","","Was the sound coming from the left or the right?","1","","","1","INDUCTION-JUDGMENT","right","1","","","","","","","","","","","","","","","","","","","","","","","","","","",""
"html-keyboard-response","47","1207449","0.0-4.0-1.0-2.8","1","0","zbz9azqabhzdmp7","","null","","<p style=""color:#054d00;""><b>Correct!</b></p>","","null","","","","","","","","","","","","","","","","","","","","","","","","","","","","","","","",""
"audio-keyboard-response","48","1208267","0.0-4.0-1.0-0.9","1","0","zbz9azqabhzdmp7","","null","","sounds/induction/left_rev/re_SWS.wav","","null","","","","","","","","","","","","","","","","","","","","","","","","","","","","","","","",""
"html-button-response","49","1210827","0.0-4.0-1.0-1.9","1","0","zbz9azqabhzdmp7","","2558.7000000476837","","Was the sound coming from the left or the right?","0","","","1","INDUCTION-JUDGMENT","left","0","","","","","","","","","","","","","","","","","","","","","","","","","","",""
"html-keyboard-response","50","1211836","0.0-4.0-1.0-2.9","1","0","zbz9azqabhzdmp7","","null","","<p style=""color:#054d00;""><b>Correct!</b></p>","","null","","","","","","","","","","","","","","","","","","","","","","","","","","","","","","","",""
"audio-keyboard-response","51","1212637","0.0-4.0-1.0-0.10","1","0","zbz9azqabhzdmp7","","null","","sounds/induction/left_rev/ko_SWS.wav","","null","","","","","","","","","","","","","","","","","","","","","","","","","","","","","","","",""
"html-button-response","52","1213639","0.0-4.0-1.0-1.10","1","0","zbz9azqabhzdmp7","","1000.9000000357628","","Was the sound coming from the left or the right?","0","","","1","INDUCTION-JUDGMENT","left","0","","","","","","","","","","","","","","","","","","","","","","","","","","",""
"html-keyboard-response","53","1214640","0.0-4.0-1.0-2.10","1","0","zbz9azqabhzdmp7","","null","","<p style=""color:#054d00;""><b>Correct!</b></p>","","null","","","","","","","","","","","","","","","","","","","","","","","","","","","","","","","",""
"audio-keyboard-response","54","1215436","0.0-4.0-1.0-0.11","1","0","zbz9azqabhzdmp7","","null","","sounds/induction/left_rev/fu_SWS.wav","","null","","","","","","","","","","","","","","","","","","","","","","","","","","","","","","","",""
"html-button-response","55","1216828","0.0-4.0-1.0-1.11","1","0","zbz9azqabhzdmp7","","1389.800000011921","","Was the sound coming from the left or the right?","1","","","0","INDUCTION-JUDGMENT","left","0","","","","","","","","","","","","","","","","","","","","","","","","","","",""
"html-keyboard-response","56","1217842","0.0-4.0-1.0-2.11","1","0","zbz9azqabhzdmp7","","null","","<p style=""color:#690000;""><b>Incorrect!</b></p>","","null","","","","","","","","","","","","","","","","","","","","","","","","","","","","","","","",""
"audio-keyboard-response","57","1218636","0.0-4.0-1.0-0.12","1","0","zbz9azqabhzdmp7","","null","","sounds/induction/left_rev/su_SWS.wav","","null","","","","","","","","","","","","","","","","","","","","","","","","","","","","","","","",""
"html-button-response","58","1219371","0.0-4.0-1.0-1.12","1","0","zbz9azqabhzdmp7","","733.6000000238419","","Was the sound coming from the left or the right?","0","","","1","INDUCTION-JUDGMENT","left","0","","","","","","","","","","","","","","","","","","","","","","","","","","",""
"html-keyboard-response","59","1220376","0.0-4.0-1.0-2.12","1","0","zbz9azqabhzdmp7","","null","","<p style=""color:#054d00;""><b>Correct!</b></p>","","null","","","","","","","","","","","","","","","","","","","","","","","","","","","","","","","",""
"audio-keyboard-response","60","1221186","0.0-4.0-1.0-0.13","1","0","zbz9azqabhzdmp7","","null","","sounds/induction/right_rev/fu_SWS.wav","","null","","","","","","","","","","","","","","","","","","","","","","","","","","","","","","","",""
"html-button-response","61","1231941","0.0-4.0-1.0-1.13","1","0","zbz9azqabhzdmp7","","10753.300000011921","","Was the sound coming from the left or the right?","0","","","0","INDUCTION-JUDGMENT","right","1","","","","","","","","","","","","","","","","","","","","","","","","","","",""
"html-keyboard-response","62","1232956","0.0-4.0-1.0-2.13","1","0","zbz9azqabhzdmp7","","null","","<p style=""color:#690000;""><b>Incorrect!</b></p>","","null","","","","","","","","","","","","","","","","","","","","","","","","","","","","","","","",""
"audio-keyboard-response","63","1233756","0.0-4.0-1.0-0.14","1","0","zbz9azqabhzdmp7","","null","","sounds/induction/left_rev/me_SWS.wav","","null","","","","","","","","","","","","","","","","","","","","","","","","","","","","","","","",""
"html-button-response","64","1240565","0.0-4.0-1.0-1.14","1","0","zbz9azqabhzdmp7","","6806.700000047684","","Was the sound coming from the left or the right?","1","","","0","INDUCTION-JUDGMENT","left","0","","","","","","","","","","","","","","","","","","","","","","","","","","",""
"html-keyboard-response","65","1241576","0.0-4.0-1.0-2.14","1","0","zbz9azqabhzdmp7","","null","","<p style=""color:#690000;""><b>Incorrect!</b></p>","","null","","","","","","","","","","","","","","","","","","","","","","","","","","","","","","","",""
"audio-keyboard-response","66","1242386","0.0-4.0-1.0-0.15","1","0","zbz9azqabhzdmp7","","null","","sounds/induction/left_rev/ti_SWS.wav","","null","","","","","","","","","","","","","","","","","","","","","","","","","","","","","","","",""
"html-button-response","67","1246055","0.0-4.0-1.0-1.15","1","0","zbz9azqabhzdmp7","","3666.599999964237","","Was the sound coming from the left or the right?","0","","","1","INDUCTION-JUDGMENT","left","0","","","","","","","","","","","","","","","","","","","","","","","","","","",""
"html-keyboard-response","68","1247061","0.0-4.0-1.0-2.15","1","0","zbz9azqabhzdmp7","","null","","<p style=""color:#054d00;""><b>Correct!</b></p>","","null","","","","","","","","","","","","","","","","","","","","","","","","","","","","","","","",""
"audio-keyboard-response","69","1247866","0.0-4.0-1.0-0.16","1","0","zbz9azqabhzdmp7","","null","","sounds/induction/right_rev/su_SWS.wav","","null","","","","","","","","","","","","","","","","","","","","","","","","","","","","","","","",""
"html-button-response","70","1249159","0.0-4.0-1.0-1.16","1","0","zbz9azqabhzdmp7","","1291.5","","Was the sound coming from the left or the right?","0","","","0","INDUCTION-JUDGMENT","right","1","","","","","","","","","","","","","","","","","","","","","","","","","","",""
"html-keyboard-response","71","1250166","0.0-4.0-1.0-2.16","1","0","zbz9azqabhzdmp7","","null","","<p style=""color:#690000;""><b>Incorrect!</b></p>","","null","","","","","","","","","","","","","","","","","","","","","","","","","","","","","","","",""
"audio-keyboard-response","72","1250976","0.0-4.0-1.0-0.17","1","0","zbz9azqabhzdmp7","","null","","sounds/induction/left_rev/ko_SWS.wav","","null","","","","","","","","","","","","","","","","","","","","","","","","","","","","","","","",""
"html-button-response","73","1251540","0.0-4.0-1.0-1.17","1","0","zbz9azqabhzdmp7","","562.6000000238419","","Was the sound coming from the left or the right?","0","","","1","INDUCTION-JUDGMENT","left","0","","","","","","","","","","","","","","","","","","","","","","","","","","",""
"html-keyboard-response","74","1252554","0.0-4.0-1.0-2.17","1","0","zbz9azqabhzdmp7","","null","","<p style=""color:#054d00;""><b>Correct!</b></p>","","null","","","","","","","","","","","","","","","","","","","","","","","","","","","","","","","",""
"audio-keyboard-response","75","1253356","0.0-4.0-1.0-0.18","1","0","zbz9azqabhzdmp7","","null","","sounds/induction/left_rev/ru_SWS.wav","","null","","","","","","","","","","","","","","","","","","","","","","","","","","","","","","","",""
"html-button-response","76","1254098","0.0-4.0-1.0-1.18","1","0","zbz9azqabhzdmp7","","740.6999999880791","","Was the sound coming from the left or the right?","0","","","1","INDUCTION-JUDGMENT","left","0","","","","","","","","","","","","","","","","","","","","","","","","","","",""
"html-keyboard-response","77","1255111","0.0-4.0-1.0-2.18","1","0","zbz9azqabhzdmp7","","null","","<p style=""color:#054d00;""><b>Correct!</b></p>","","null","","","","","","","","","","","","","","","","","","","","","","","","","","","","","","","",""
"audio-keyboard-response","78","1255916","0.0-4.0-1.0-0.19","1","0","zbz9azqabhzdmp7","","null","","sounds/induction/right_rev/me_SWS.wav","","null","","","","","","","","","","","","","","","","","","","","","","","","","","","","","","","",""
"html-button-response","79","1256812","0.0-4.0-1.0-1.19","1","0","zbz9azqabhzdmp7","","894.3999999761581","","Was the sound coming from the left or the right?","0","","","0","INDUCTION-JUDGMENT","right","1","","","","","","","","","","","","","","","","","","","","","","","","","","",""
"html-keyboard-response","80","1257820","0.0-4.0-1.0-2.19","1","0","zbz9azqabhzdmp7","","null","","<p style=""color:#690000;""><b>Incorrect!</b></p>","","null","","","","","","","","","","","","","","","","","","","","","","","","","","","","","","","",""
"audio-keyboard-response","81","1258627","0.0-4.0-1.0-0.20","1","0","zbz9azqabhzdmp7","","null","","sounds/induction/left_rev/pu_SWS.wav","","null","","","","","","","","","","","","","","","","","","","","","","","","","","","","","","","",""
"html-button-response","82","1260688","0.0-4.0-1.0-1.20","1","0","zbz9azqabhzdmp7","","2060.199999988079","","Was the sound coming from the left or the right?","0","","","1","INDUCTION-JUDGMENT","left","0","","","","","","","","","","","","","","","","","","","","","","","","","","",""
"html-keyboard-response","83","1261698","0.0-4.0-1.0-2.20","1","0","zbz9azqabhzdmp7","","null","","<p style=""color:#054d00;""><b>Correct!</b></p>","","null","","","","","","","","","","","","","","","","","","","","","","","","","","","","","","","",""
"audio-keyboard-response","84","1262506","0.0-4.0-1.0-0.21","1","0","zbz9azqabhzdmp7","","null","","sounds/induction/right_rev/re_SWS.wav","","null","","","","","","","","","","","","","","","","","","","","","","","","","","","","","","","",""
"html-button-response","85","1264393","0.0-4.0-1.0-1.21","1","0","zbz9azqabhzdmp7","","1885.800000011921","","Was the sound coming from the left or the right?","1","","","1","INDUCTION-JUDGMENT","right","1","","","","","","","","","","","","","","","","","","","","","","","","","","",""
"html-keyboard-response","86","1265399","0.0-4.0-1.0-2.21","1","0","zbz9azqabhzdmp7","","null","","<p style=""color:#054d00;""><b>Correct!</b></p>","","null","","","","","","","","","","","","","","","","","","","","","","","","","","","","","","","",""
"audio-keyboard-response","87","1266216","0.0-4.0-1.0-0.22","1","0","zbz9azqabhzdmp7","","null","","sounds/induction/left_rev/fe_SWS.wav","","null","","","","","","","","","","","","","","","","","","","","","","","","","","","","","","","",""
"html-button-response","88","1267908","0.0-4.0-1.0-1.22","1","0","zbz9azqabhzdmp7","","1690.4000000357628","","Was the sound coming from the left or the right?","0","","","1","INDUCTION-JUDGMENT","left","0","","","","","","","","","","","","","","","","","","","","","","","","","","",""
"html-keyboard-response","89","1268910","0.0-4.0-1.0-2.22","1","0","zbz9azqabhzdmp7","","null","","<p style=""color:#054d00;""><b>Correct!</b></p>","","null","","","","","","","","","","","","","","","","","","","","","","","","","","","","","","","",""
"audio-keyboard-response","90","1269716","0.0-4.0-1.0-0.23","1","0","zbz9azqabhzdmp7","","null","","sounds/induction/right_rev/me_SWS.wav","","null","","","","","","","","","","","","","","","","","","","","","","","","","","","","","","","",""
"html-button-response","91","1270927","0.0-4.0-1.0-1.23","1","0","zbz9azqabhzdmp7","","1208.800000011921","","Was the sound coming from the left or the right?","1","","","1","INDUCTION-JUDGMENT","right","1","","","","","","","","","","","","","","","","","","","","","","","","","","",""
"html-keyboard-response","92","1271930","0.0-4.0-1.0-2.23","1","0","zbz9azqabhzdmp7","","null","","<p style=""color:#054d00;""><b>Correct!</b></p>","","null","","","","","","","","","","","","","","","","","","","","","","","","","","","","","","","",""
"audio-keyboard-response","93","1272746","0.0-4.0-1.0-0.24","1","0","zbz9azqabhzdmp7","","null","","sounds/induction/right_rev/ti_SWS.wav","","null","","","","","","","","","","","","","","","","","","","","","","","","","","","","","","","",""
"html-button-response","94","1273626","0.0-4.0-1.0-1.24","1","0","zbz9azqabhzdmp7","","878.6000000238419","","Was the sound coming from the left or the right?","1","","","1","INDUCTION-JUDGMENT","right","1","","","","","","","","","","","","","","","","","","","","","","","","","","",""
"html-keyboard-response","95","1274640","0.0-4.0-1.0-2.24","1","0","zbz9azqabhzdmp7","","null","","<p style=""color:#054d00;""><b>Correct!</b></p>","","null","","","","","","","","","","","","","","","","","","","","","","","","","","","","","","","",""
"audio-keyboard-response","96","1275456","0.0-4.0-1.0-0.25","1","0","zbz9azqabhzdmp7","","null","","sounds/induction/left_rev/pu_SWS.wav","","null","","","","","","","","","","","","","","","","","","","","","","","","","","","","","","","",""
"html-button-response","97","1276794","0.0-4.0-1.0-1.25","1","0","zbz9azqabhzdmp7","","1336.800000011921","","Was the sound coming from the left or the right?","0","","","1","INDUCTION-JUDGMENT","left","0","","","","","","","","","","","","","","","","","","","","","","","","","","",""
"html-keyboard-response","98","1277800","0.0-4.0-1.0-2.25","1","0","zbz9azqabhzdmp7","","null","","<p style=""color:#054d00;""><b>Correct!</b></p>","","null","","","","","","","","","","","","","","","","","","","","","","","","","","","","","","","",""
"audio-keyboard-response","99","1278616","0.0-4.0-1.0-0.26","1","0","zbz9azqabhzdmp7","","null","","sounds/induction/right_rev/ru_SWS.wav","","null","","","","","","","","","","","","","","","","","","","","","","","","","","","","","","","",""
"html-button-response","100","1280196","0.0-4.0-1.0-1.26","1","0","zbz9azqabhzdmp7","","1578","","Was the sound coming from the left or the right?","1","","","1","INDUCTION-JUDGMENT","right","1","","","","","","","","","","","","","","","","","","","","","","","","","","",""
"html-keyboard-response","101","1281197","0.0-4.0-1.0-2.26","1","0","zbz9azqabhzdmp7","","null","","<p style=""color:#054d00;""><b>Correct!</b></p>","","null","","","","","","","","","","","","","","","","","","","","","","","","","","","","","","","",""
"audio-keyboard-response","102","1282017","0.0-4.0-1.0-0.27","1","0","zbz9azqabhzdmp7","","null","","sounds/induction/left_rev/ni_SWS.wav","","null","","","","","","","","","","","","","","","","","","","","","","","","","","","","","","","",""
"html-button-response","103","1283193","0.0-4.0-1.0-1.27","1","0","zbz9azqabhzdmp7","","1175.199999988079","","Was the sound coming from the left or the right?","0","","","1","INDUCTION-JUDGMENT","left","0","","","","","","","","","","","","","","","","","","","","","","","","","","",""
"html-keyboard-response","104","1284201","0.0-4.0-1.0-2.27","1","0","zbz9azqabhzdmp7","","null","","<p style=""color:#054d00;""><b>Correct!</b></p>","","null","","","","","","","","","","","","","","","","","","","","","","","","","","","","","","","",""
"audio-keyboard-response","105","1285016","0.0-4.0-1.0-0.28","1","0","zbz9azqabhzdmp7","","null","","sounds/induction/left_rev/fe_SWS.wav","","null","","","","","","","","","","","","","","","","","","","","","","","","","","","","","","","",""
"html-button-response","106","1286403","0.0-4.0-1.0-1.28","1","0","zbz9azqabhzdmp7","","1385.199999988079","","Was the sound coming from the left or the right?","1","","","0","INDUCTION-JUDGMENT","left","0","","","","","","","","","","","","","","","","","","","","","","","","","","",""
"html-keyboard-response","107","1287416","0.0-4.0-1.0-2.28","1","0","zbz9azqabhzdmp7","","null","","<p style=""color:#690000;""><b>Incorrect!</b></p>","","null","","","","","","","","","","","","","","","","","","","","","","","","","","","","","","","",""
"audio-keyboard-response","108","1288226","0.0-4.0-1.0-0.29","1","0","zbz9azqabhzdmp7","","null","","sounds/induction/right_rev/ta_SWS.wav","","null","","","","","","","","","","","","","","","","","","","","","","","","","","","","","","","",""
"html-button-response","109","1289874","0.0-4.0-1.0-1.29","1","0","zbz9azqabhzdmp7","","1646.5","","Was the sound coming from the left or the right?","1","","","1","INDUCTION-JUDGMENT","right","1","","","","","","","","","","","","","","","","","","","","","","","","","","",""
"html-keyboard-response","110","1290886","0.0-4.0-1.0-2.29","1","0","zbz9azqabhzdmp7","","null","","<p style=""color:#054d00;""><b>Correct!</b></p>","","null","","","","","","","","","","","","","","","","","","","","","","","","","","","","","","","",""
"audio-keyboard-response","111","1291707","0.0-4.0-1.0-0.30","1","0","zbz9azqabhzdmp7","","null","","sounds/induction/right_rev/su_SWS.wav","","null","","","","","","","","","","","","","","","","","","","","","","","","","","","","","","","",""
"html-button-response","112","1294283","0.0-4.0-1.0-1.30","1","0","zbz9azqabhzdmp7","","2574.400000035763","","Was the sound coming from the left or the right?","1","","","1","INDUCTION-JUDGMENT","right","1","","","","","","","","","","","","","","","","","","","","","","","","","","",""
"html-keyboard-response","113","1295292","0.0-4.0-1.0-2.30","1","0","zbz9azqabhzdmp7","","null","","<p style=""color:#054d00;""><b>Correct!</b></p>","","null","","","","","","","","","","","","","","","","","","","","","","","","","","","","","","","",""
"audio-keyboard-response","114","1296097","0.0-4.0-1.0-0.31","1","0","zbz9azqabhzdmp7","","null","","sounds/induction/right_rev/ti_SWS.wav","","null","","","","","","","","","","","","","","","","","","","","","","","","","","","","","","","",""
"html-button-response","115","1297626","0.0-4.0-1.0-1.31","1","0","zbz9azqabhzdmp7","","1528.3999999761581","","Was the sound coming from the left or the right?","1","","","1","INDUCTION-JUDGMENT","right","1","","","","","","","","","","","","","","","","","","","","","","","","","","",""
"html-keyboard-response","116","1298631","0.0-4.0-1.0-2.31","1","0","zbz9azqabhzdmp7","","null","","<p style=""color:#054d00;""><b>Correct!</b></p>","","null","","","","","","","","","","","","","","","","","","","","","","","","","","","","","","","",""
"audio-keyboard-response","117","1299438","0.0-4.0-1.0-0.32","1","0","zbz9azqabhzdmp7","","null","","sounds/induction/left_rev/ti_SWS.wav","","null","","","","","","","","","","","","","","","","","","","","","","","","","","","","","","","",""
"html-button-response","118","1300540","0.0-4.0-1.0-1.32","1","0","zbz9azqabhzdmp7","","1100.6000000238419","","Was the sound coming from the left or the right?","1","","","0","INDUCTION-JUDGMENT","left","0","","","","","","","","","","","","","","","","","","","","","","","","","","",""
"html-keyboard-response","119","1301547","0.0-4.0-1.0-2.32","1","0","zbz9azqabhzdmp7","","null","","<p style=""color:#690000;""><b>Incorrect!</b></p>","","null","","","","","","","","","","","","","","","","","","","","","","","","","","","","","","","",""
"audio-keyboard-response","120","1302347","0.0-4.0-1.0-0.33","1","0","zbz9azqabhzdmp7","","null","","sounds/induction/right_rev/fe_SWS.wav","","null","","","","","","","","","","","","","","","","","","","","","","","","","","","","","","","",""
"html-button-response","121","1303543","0.0-4.0-1.0-1.33","1","0","zbz9azqabhzdmp7","","1194.800000011921","","Was the sound coming from the left or the right?","1","","","1","INDUCTION-JUDGMENT","right","1","","","","","","","","","","","","","","","","","","","","","","","","","","",""
"html-keyboard-response","122","1304556","0.0-4.0-1.0-2.33","1","0","zbz9azqabhzdmp7","","null","","<p style=""color:#054d00;""><b>Correct!</b></p>","","null","","","","","","","","","","","","","","","","","","","","","","","","","","","","","","","",""
"audio-keyboard-response","123","1305357","0.0-4.0-1.0-0.34","1","0","zbz9azqabhzdmp7","","null","","sounds/induction/right_rev/ru_SWS.wav","","null","","","","","","","","","","","","","","","","","","","","","","","","","","","","","","","",""
"html-button-response","124","1306151","0.0-4.0-1.0-1.34","1","0","zbz9azqabhzdmp7","","793.1999999880791","","Was the sound coming from the left or the right?","1","","","1","INDUCTION-JUDGMENT","right","1","","","","","","","","","","","","","","","","","","","","","","","","","","",""
"html-keyboard-response","125","1307157","0.0-4.0-1.0-2.34","1","0","zbz9azqabhzdmp7","","null","","<p style=""color:#054d00;""><b>Correct!</b></p>","","null","","","","","","","","","","","","","","","","","","","","","","","","","","","","","","","",""
"audio-keyboard-response","126","1307956","0.0-4.0-1.0-0.35","1","0","zbz9azqabhzdmp7","","null","","sounds/induction/right_rev/fe_SWS.wav","","null","","","","","","","","","","","","","","","","","","","","","","","","","","","","","","","",""
"html-button-response","127","1308702","0.0-4.0-1.0-1.35","1","0","zbz9azqabhzdmp7","","744.1000000238419","","Was the sound coming from the left or the right?","1","","","1","INDUCTION-JUDGMENT","right","1","","","","","","","","","","","","","","","","","","","","","","","","","","",""
"html-keyboard-response","128","1309711","0.0-4.0-1.0-2.35","1","0","zbz9azqabhzdmp7","","null","","<p style=""color:#054d00;""><b>Correct!</b></p>","","null","","","","","","","","","","","","","","","","","","","","","","","","","","","","","","","",""
"audio-keyboard-response","129","1310537","0.0-4.0-1.0-0.36","1","0","zbz9azqabhzdmp7","","null","","sounds/induction/left_rev/ge_SWS.wav","","null","","","","","","","","","","","","","","","","","","","","","","","","","","","","","","","",""
"html-button-response","130","1311501","0.0-4.0-1.0-1.36","1","0","zbz9azqabhzdmp7","","963.1000000238419","","Was the sound coming from the left or the right?","1","","","0","INDUCTION-JUDGMENT","left","0","","","","","","","","","","","","","","","","","","","","","","","","","","",""
"html-keyboard-response","131","1312504","0.0-4.0-1.0-2.36","1","0","zbz9azqabhzdmp7","","null","","<p style=""color:#690000;""><b>Incorrect!</b></p>","","null","","","","","","","","","","","","","","","","","","","","","","","","","","","","","","","",""
"audio-keyboard-response","132","1313307","0.0-4.0-1.0-0.37","1","0","zbz9azqabhzdmp7","","null","","sounds/induction/right_rev/pu_SWS.wav","","null","","","","","","","","","","","","","","","","","","","","","","","","","","","","","","","",""
"html-button-response","133","1314336","0.0-4.0-1.0-1.37","1","0","zbz9azqabhzdmp7","","1027.800000011921","","Was the sound coming from the left or the right?","1","","","1","INDUCTION-JUDGMENT","right","1","","","","","","","","","","","","","","","","","","","","","","","","","","",""
"html-keyboard-response","134","1315343","0.0-4.0-1.0-2.37","1","0","zbz9azqabhzdmp7","","null","","<p style=""color:#054d00;""><b>Correct!</b></p>","","null","","","","","","","","","","","","","","","","","","","","","","","","","","","","","","","",""
"audio-keyboard-response","135","1316147","0.0-4.0-1.0-0.38","1","0","zbz9azqabhzdmp7","","null","","sounds/induction/left_rev/ni_SWS.wav","","null","","","","","","","","","","","","","","","","","","","","","","","","","","","","","","","",""
"html-button-response","136","1317298","0.0-4.0-1.0-1.38","1","0","zbz9azqabhzdmp7","","1149.8999999761581","","Was the sound coming from the left or the right?","0","","","1","INDUCTION-JUDGMENT","left","0","","","","","","","","","","","","","","","","","","","","","","","","","","",""
"html-keyboard-response","137","1318308","0.0-4.0-1.0-2.38","1","0","zbz9azqabhzdmp7","","null","","<p style=""color:#054d00;""><b>Correct!</b></p>","","null","","","","","","","","","","","","","","","","","","","","","","","","","","","","","","","",""
"audio-keyboard-response","138","1319117","0.0-4.0-1.0-0.39","1","0","zbz9azqabhzdmp7","","null","","sounds/induction/right_rev/fu_SWS.wav","","null","","","","","","","","","","","","","","","","","","","","","","","","","","","","","","","",""
"html-button-response","139","1319691","0.0-4.0-1.0-1.39","1","0","zbz9azqabhzdmp7","","573.1999999880791","","Was the sound coming from the left or the right?","1","","","1","INDUCTION-JUDGMENT","right","1","","","","","","","","","","","","","","","","","","","","","","","","","","",""
"html-keyboard-response","140","1320698","0.0-4.0-1.0-2.39","1","0","zbz9azqabhzdmp7","","null","","<p style=""color:#054d00;""><b>Correct!</b></p>","","null","","","","","","","","","","","","","","","","","","","","","","","","","","","","","","","",""
"audio-keyboard-response","141","1321507","0.0-4.0-1.0-0.40","1","0","zbz9azqabhzdmp7","","null","","sounds/induction/left_rev/su_SWS.wav","","null","","","","","","","","","","","","","","","","","","","","","","","","","","","","","","","",""
"html-button-response","142","1322370","0.0-4.0-1.0-1.40","1","0","zbz9azqabhzdmp7","","862.3000000119209","","Was the sound coming from the left or the right?","0","","","1","INDUCTION-JUDGMENT","left","0","","","","","","","","","","","","","","","","","","","","","","","","","","",""
"html-keyboard-response","143","1323373","0.0-4.0-1.0-2.40","1","0","zbz9azqabhzdmp7","","null","","<p style=""color:#054d00;""><b>Correct!</b></p>","","null","","","","","","","","","","","","","","","","","","","","","","","","","","","","","","","",""
"audio-keyboard-response","144","1324187","0.0-4.0-1.0-0.41","1","0","zbz9azqabhzdmp7","","null","","sounds/induction/left_rev/ta_SWS.wav","","null","","","","","","","","","","","","","","","","","","","","","","","","","","","","","","","",""
"html-button-response","145","1325220","0.0-4.0-1.0-1.41","1","0","zbz9azqabhzdmp7","","1031.5","","Was the sound coming from the left or the right?","1","","","0","INDUCTION-JUDGMENT","left","0","","","","","","","","","","","","","","","","","","","","","","","","","","",""
"html-keyboard-response","146","1326235","0.0-4.0-1.0-2.41","1","0","zbz9azqabhzdmp7","","null","","<p style=""color:#690000;""><b>Incorrect!</b></p>","","null","","","","","","","","","","","","","","","","","","","","","","","","","","","","","","","",""
"audio-keyboard-response","147","1327057","0.0-4.0-1.0-0.42","1","0","zbz9azqabhzdmp7","","null","","sounds/induction/left_rev/ge_SWS.wav","","null","","","","","","","","","","","","","","","","","","","","","","","","","","","","","","","",""
"html-button-response","148","1328074","0.0-4.0-1.0-1.42","1","0","zbz9azqabhzdmp7","","1016.1000000238419","","Was the sound coming from the left or the right?","1","","","0","INDUCTION-JUDGMENT","left","0","","","","","","","","","","","","","","","","","","","","","","","","","","",""
"html-keyboard-response","149","1329077","0.0-4.0-1.0-2.42","1","0","zbz9azqabhzdmp7","","null","","<p style=""color:#690000;""><b>Incorrect!</b></p>","","null","","","","","","","","","","","","","","","","","","","","","","","","","","","","","","","",""
"audio-keyboard-response","150","1329877","0.0-4.0-1.0-0.43","1","0","zbz9azqabhzdmp7","","null","","sounds/induction/left_rev/re_SWS.wav","","null","","","","","","","","","","","","","","","","","","","","","","","","","","","","","","","",""
"html-button-response","151","1330526","0.0-4.0-1.0-1.43","1","0","zbz9azqabhzdmp7","","647.6999999880791","","Was the sound coming from the left or the right?","0","","","1","INDUCTION-JUDGMENT","left","0","","","","","","","","","","","","","","","","","","","","","","","","","","",""
"html-keyboard-response","152","1331527","0.0-4.0-1.0-2.43","1","0","zbz9azqabhzdmp7","","null","","<p style=""color:#054d00;""><b>Correct!</b></p>","","null","","","","","","","","","","","","","","","","","","","","","","","","","","","","","","","",""
"audio-keyboard-response","153","1332337","0.0-4.0-1.0-0.44","1","0","zbz9azqabhzdmp7","","null","","sounds/induction/right_rev/ge_SWS.wav","","null","","","","","","","","","","","","","","","","","","","","","","","","","","","","","","","",""
"html-button-response","154","1333622","0.0-4.0-1.0-1.44","1","0","zbz9azqabhzdmp7","","1283.7999999523163","","Was the sound coming from the left or the right?","0","","","0","INDUCTION-JUDGMENT","right","1","","","","","","","","","","","","","","","","","","","","","","","","","","",""
"html-keyboard-response","155","1334627","0.0-4.0-1.0-2.44","1","0","zbz9azqabhzdmp7","","null","","<p style=""color:#690000;""><b>Incorrect!</b></p>","","null","","","","","","","","","","","","","","","","","","","","","","","","","","","","","","","",""
"audio-keyboard-response","156","1335426","0.0-4.0-1.0-0.45","1","0","zbz9azqabhzdmp7","","null","","sounds/induction/left_rev/fu_SWS.wav","","null","","","","","","","","","","","","","","","","","","","","","","","","","","","","","","","",""
"html-button-response","157","1335912","0.0-4.0-1.0-1.45","1","0","zbz9azqabhzdmp7","","484","","Was the sound coming from the left or the right?","1","","","0","INDUCTION-JUDGMENT","left","0","","","","","","","","","","","","","","","","","","","","","","","","","","",""
"html-keyboard-response","158","1336913","0.0-4.0-1.0-2.45","1","0","zbz9azqabhzdmp7","","null","","<p style=""color:#690000;""><b>Incorrect!</b></p>","","null","","","","","","","","","","","","","","","","","","","","","","","","","","","","","","","",""
"audio-keyboard-response","159","1337707","0.0-4.0-1.0-0.46","1","0","zbz9azqabhzdmp7","","null","","sounds/induction/right_rev/ge_SWS.wav","","null","","","","","","","","","","","","","","","","","","","","","","","","","","","","","","","",""
"html-button-response","160","1338193","0.0-4.0-1.0-1.46","1","0","zbz9azqabhzdmp7","","485.0999999642372","","Was the sound coming from the left or the right?","0","","","0","INDUCTION-JUDGMENT","right","1","","","","","","","","","","","","","","","","","","","","","","","","","","",""
"html-keyboard-response","161","1339207","0.0-4.0-1.0-2.46","1","0","zbz9azqabhzdmp7","","null","","<p style=""color:#690000;""><b>Incorrect!</b></p>","","null","","","","","","","","","","","","","","","","","","","","","","","","","","","","","","","",""
"audio-keyboard-response","162","1340017","0.0-4.0-1.0-0.47","1","0","zbz9azqabhzdmp7","","null","","sounds/induction/left_rev/ru_SWS.wav","","null","","","","","","","","","","","","","","","","","","","","","","","","","","","","","","","",""
"html-button-response","163","1340530","0.0-4.0-1.0-1.47","1","0","zbz9azqabhzdmp7","","512.3999999761581","","Was the sound coming from the left or the right?","1","","","0","INDUCTION-JUDGMENT","left","0","","","","","","","","","","","","","","","","","","","","","","","","","","",""
"html-keyboard-response","164","1341533","0.0-4.0-1.0-2.47","1","0","zbz9azqabhzdmp7","","null","","<p style=""color:#690000;""><b>Incorrect!</b></p>","","null","","","","","","","","","","","","","","","","","","","","","","","","","","","","","","","",""
"html-button-response","165","1351882","0.0-5.0-0.0","1","0","zbz9azqabhzdmp7","","9836","","<p>Thank you for your answers.</p><p>You will now listen to similar sounds. The main difference is that the sounds will be longer.</p><p>Just as before, you will be asked to judge whether the sound was coming from the left or the right.</p><p>There are 10 of these longer sounds in total.","0","","","","","","","","","","","","","","","","","","","","","","","","","","","","","","","","",""
"audio-keyboard-response","166","1354477","0.0-5.0-1.0-0.0","1","0","zbz9azqabhzdmp7","","null","","sounds/sentences/left_rev/14_04_cfSWS.wav","","null","","","","","","","","","","","","","","","","","","","","","","","","","","","","","","","",""
"html-button-response","167","1355808","0.0-5.0-1.0-1.0","1","0","zbz9azqabhzdmp7","","1328.800000011921","","Was the sound coming from the left or the right?","0","","","1","INDUCTION-JUDGMENT","left","0","","","","","","","","","","","","","","","","","","","","","","","","","","",""
"html-keyboard-response","168","1356810","0.0-5.0-1.0-2.0","1","0","zbz9azqabhzdmp7","","null","","<p style=""color:#054d00;""><b>Correct!</b></p>","","null","","","","","","","","","","","","","","","","","","","","","","","","","","","","","","","",""
"html-button-response","169","1358492","0.0-5.0-1.0-3.0","1","0","zbz9azqabhzdmp7","","1177.8999999761581","","<p>Press the button below when you are ready to continue.</p>","0","","","","","","","","","","","","","","","","","","","","","","","","","","","","","","","","",""
"audio-keyboard-response","170","1361087","0.0-5.0-1.0-0.1","1","0","zbz9azqabhzdmp7","","null","","sounds/sentences/left_rev/14_03_cfSWS.wav","","null","","","","","","","","","","","","","","","","","","","","","","","","","","","","","","","",""
"html-button-response","171","1361737","0.0-5.0-1.0-1.1","1","0","zbz9azqabhzdmp7","","648.6999999880791","","Was the sound coming from the left or the right?","0","","","1","INDUCTION-JUDGMENT","left","0","","","","","","","","","","","","","","","","","","","","","","","","","","",""
"html-keyboard-response","172","1362745","0.0-5.0-1.0-2.1","1","0","zbz9azqabhzdmp7","","null","","<p style=""color:#054d00;""><b>Correct!</b></p>","","null","","","","","","","","","","","","","","","","","","","","","","","","","","","","","","","",""
"html-button-response","173","1364621","0.0-5.0-1.0-3.1","1","0","zbz9azqabhzdmp7","","1366","","<p>Press the button below when you are ready to continue.</p>","0","","","","","","","","","","","","","","","","","","","","","","","","","","","","","","","","",""
"audio-keyboard-response","174","1367646","0.0-5.0-1.0-0.2","1","0","zbz9azqabhzdmp7","","null","","sounds/sentences/right_rev/14_10_cfSWS.wav","","null","","","","","","","","","","","","","","","","","","","","","","","","","","","","","","","",""
"html-button-response","175","1368625","0.0-5.0-1.0-1.2","1","0","zbz9azqabhzdmp7","","976.5","","Was the sound coming from the left or the right?","1","","","1","INDUCTION-JUDGMENT","right","1","","","","","","","","","","","","","","","","","","","","","","","","","","",""
"html-keyboard-response","176","1369642","0.0-5.0-1.0-2.2","1","0","zbz9azqabhzdmp7","","null","","<p style=""color:#054d00;""><b>Correct!</b></p>","","null","","","","","","","","","","","","","","","","","","","","","","","","","","","","","","","",""
"html-button-response","177","1371055","0.0-5.0-1.0-3.2","1","0","zbz9azqabhzdmp7","","898.0999999642372","","<p>Press the button below when you are ready to continue.</p>","0","","","","","","","","","","","","","","","","","","","","","","","","","","","","","","","","",""
"audio-keyboard-response","178","1373877","0.0-5.0-1.0-0.3","1","0","zbz9azqabhzdmp7","","null","","sounds/sentences/left_rev/14_02_cfSWS.wav","","null","","","","","","","","","","","","","","","","","","","","","","","","","","","","","","","",""
"html-button-response","179","1374959","0.0-5.0-1.0-1.3","1","0","zbz9azqabhzdmp7","","1080.3999999761581","","Was the sound coming from the left or the right?","0","","","1","INDUCTION-JUDGMENT","left","0","","","","","","","","","","","","","","","","","","","","","","","","","","",""
"html-keyboard-response","180","1375973","0.0-5.0-1.0-2.3","1","0","zbz9azqabhzdmp7","","null","","<p style=""color:#054d00;""><b>Correct!</b></p>","","null","","","","","","","","","","","","","","","","","","","","","","","","","","","","","","","",""
"html-button-response","181","1377992","0.0-5.0-1.0-3.3","1","0","zbz9azqabhzdmp7","","1501.5","","<p>Press the button below when you are ready to continue.</p>","0","","","","","","","","","","","","","","","","","","","","","","","","","","","","","","","","",""
"audio-keyboard-response","182","1380757","0.0-5.0-1.0-0.4","1","0","zbz9azqabhzdmp7","","null","","sounds/sentences/right_rev/14_06_cfSWS.wav","","null","","","","","","","","","","","","","","","","","","","","","","","","","","","","","","","",""
"html-button-response","183","1381740","0.0-5.0-1.0-1.4","1","0","zbz9azqabhzdmp7","","981.3000000119209","","Was the sound coming from the left or the right?","1","","","1","INDUCTION-JUDGMENT","right","1","","","","","","","","","","","","","","","","","","","","","","","","","","",""
"html-keyboard-response","184","1382741","0.0-5.0-1.0-2.4","1","0","zbz9azqabhzdmp7","","null","","<p style=""color:#054d00;""><b>Correct!</b></p>","","null","","","","","","","","","","","","","","","","","","","","","","","","","","","","","","","",""
"html-button-response","185","1384347","0.0-5.0-1.0-3.4","1","0","zbz9azqabhzdmp7","","1091.8999999761581","","<p>Press the button below when you are ready to continue.</p>","0","","","","","","","","","","","","","","","","","","","","","","","","","","","","","","","","",""
"audio-keyboard-response","186","1387466","0.0-5.0-1.0-0.5","1","0","zbz9azqabhzdmp7","","null","","sounds/sentences/left_rev/14_01_cfSWS.wav","","null","","","","","","","","","","","","","","","","","","","","","","","","","","","","","","","",""
"html-button-response","187","1388734","0.0-5.0-1.0-1.5","1","0","zbz9azqabhzdmp7","","1265.6000000238419","","Was the sound coming from the left or the right?","0","","","1","INDUCTION-JUDGMENT","left","0","","","","","","","","","","","","","","","","","","","","","","","","","","",""
"html-keyboard-response","188","1389748","0.0-5.0-1.0-2.5","1","0","zbz9azqabhzdmp7","","null","","<p style=""color:#054d00;""><b>Correct!</b></p>","","null","","","","","","","","","","","","","","","","","","","","","","","","","","","","","","","",""
"html-button-response","189","1391476","0.0-5.0-1.0-3.5","1","0","zbz9azqabhzdmp7","","1210","","<p>Press the button below when you are ready to continue.</p>","0","","","","","","","","","","","","","","","","","","","","","","","","","","","","","","","","",""
"audio-keyboard-response","190","1394467","0.0-5.0-1.0-0.6","1","0","zbz9azqabhzdmp7","","null","","sounds/sentences/left_rev/14_05_cfSWS.wav","","null","","","","","","","","","","","","","","","","","","","","","","","","","","","","","","","",""
"html-button-response","191","1395542","0.0-5.0-1.0-1.6","1","0","zbz9azqabhzdmp7","","1073.8999999761581","","Was the sound coming from the left or the right?","0","","","1","INDUCTION-JUDGMENT","left","0","","","","","","","","","","","","","","","","","","","","","","","","","","",""
"html-keyboard-response","192","1396549","0.0-5.0-1.0-2.6","1","0","zbz9azqabhzdmp7","","null","","<p style=""color:#054d00;""><b>Correct!</b></p>","","null","","","","","","","","","","","","","","","","","","","","","","","","","","","","","","","",""
"html-button-response","193","1397923","0.0-5.0-1.0-3.6","1","0","zbz9azqabhzdmp7","","863.7999999523163","","<p>Press the button below when you are ready to continue.</p>","0","","","","","","","","","","","","","","","","","","","","","","","","","","","","","","","","",""
"audio-keyboard-response","194","1400826","0.0-5.0-1.0-0.7","1","0","zbz9azqabhzdmp7","","null","","sounds/sentences/right_rev/14_07_cfSWS.wav","","null","","","","","","","","","","","","","","","","","","","","","","","","","","","","","","","",""
"html-button-response","195","1402374","0.0-5.0-1.0-1.7","1","0","zbz9azqabhzdmp7","","1544.300000011921","","Was the sound coming from the left or the right?","1","","","1","INDUCTION-JUDGMENT","right","1","","","","","","","","","","","","","","","","","","","","","","","","","","",""
"html-keyboard-response","196","1403385","0.0-5.0-1.0-2.7","1","0","zbz9azqabhzdmp7","","null","","<p style=""color:#054d00;""><b>Correct!</b></p>","","null","","","","","","","","","","","","","","","","","","","","","","","","","","","","","","","",""
"html-button-response","197","1405413","0.0-5.0-1.0-3.7","1","0","zbz9azqabhzdmp7","","1514.699999988079","","<p>Press the button below when you are ready to continue.</p>","0","","","","","","","","","","","","","","","","","","","","","","","","","","","","","","","","",""
"audio-keyboard-response","198","1408136","0.0-5.0-1.0-0.8","1","0","zbz9azqabhzdmp7","","null","","sounds/sentences/right_rev/14_09_cfSWS.wav","","null","","","","","","","","","","","","","","","","","","","","","","","","","","","","","","","",""
"html-button-response","199","1408573","0.0-5.0-1.0-1.8","1","0","zbz9azqabhzdmp7","","435.19999998807907","","Was the sound coming from the left or the right?","1","","","1","INDUCTION-JUDGMENT","right","1","","","","","","","","","","","","","","","","","","","","","","","","","","",""
"html-keyboard-response","200","1409576","0.0-5.0-1.0-2.8","1","0","zbz9azqabhzdmp7","","null","","<p style=""color:#054d00;""><b>Correct!</b></p>","","null","","","","","","","","","","","","","","","","","","","","","","","","","","","","","","","",""
"html-button-response","201","1411203","0.0-5.0-1.0-3.8","1","0","zbz9azqabhzdmp7","","1115.3999999761581","","<p>Press the button below when you are ready to continue.</p>","0","","","","","","","","","","","","","","","","","","","","","","","","","","","","","","","","",""
"audio-keyboard-response","202","1413966","0.0-5.0-1.0-0.9","1","0","zbz9azqabhzdmp7","","null","","sounds/sentences/right_rev/14_08_cfSWS.wav","","null","","","","","","","","","","","","","","","","","","","","","","","","","","","","","","","",""
"html-button-response","203","1414425","0.0-5.0-1.0-1.9","1","0","zbz9azqabhzdmp7","","456.80000001192093","","Was the sound coming from the left or the right?","1","","","1","INDUCTION-JUDGMENT","right","1","","","","","","","","","","","","","","","","","","","","","","","","","","",""
"html-keyboard-response","204","1415435","0.0-5.0-1.0-2.9","1","0","zbz9azqabhzdmp7","","null","","<p style=""color:#054d00;""><b>Correct!</b></p>","","null","","","","","","","","","","","","","","","","","","","","","","","","","","","","","","","",""
"html-button-response","205","1416722","0.0-5.0-1.0-3.9","1","0","zbz9azqabhzdmp7","","773.6999999880791","","<p>Press the button below when you are ready to continue.</p>","0","","","","","","","","","","","","","","","","","","","","","","","","","","","","","","","","",""
"html-keyboard-response","206","1452732","0.0-6.0-0.0","1","0","zbz9azqabhzdmp7","","35493.10000002384","","<p>In this part of the study, you will hear sounds similar to those you just heard.</p><p>Please focus on these sounds, as you may be asked questions about them later.</p><p>Occasionally, the sounds will pause for up to two seconds. When this happens, please press SPACEBAR as quickly as you can.</br>This helps ensure that you are paying attention to the sounds.</p><p>This part of the study will take about 12 minutes to complete, and you will be given the opportunity to take a couple of short breaks every few minutes.</p><p><strong>Press SPACEBAR to begin</strong></p>","","32","","","","","","","","","","","","","","","","","","","","","","","","","","","","","","","",""
"html-keyboard-response","207","1453734","0.0-6.0-1.0-0.0","1","0","zbz9azqabhzdmp7","","null","","<p style=""font-size: 40px;"">+</p>","","null","","","","","","","","","","","","","","","","","","","","","","","","","","","","","","","",""
"html-keyboard-response","208","1638740","0.0-6.0-1.0-1.0","1","0","zbz9azqabhzdmp7","","null","","","","null","","","SL-TRAIN","","","0","1887.8999999761581","970.5","sounds/A/TRAIN/SEQ__05.mp3","275","","","","","","","","","","","","","","","","","","","","","",""
"html-button-response","209","1640482","0.0-6.0-1.0-2.0","1","0","zbz9azqabhzdmp7","","1740","","<p>You may take a short break if you wish.</p>","0","","","","","","","","","","","","","","","","","","","","","","","","","","","","","","","","",""
"html-keyboard-response","210","1641484","0.0-6.0-1.0-3.0","1","0","zbz9azqabhzdmp7","","null","","<p style=""font-size: 40px;"">+</p>","","null","","","","","","","","","","","","","","","","","","","","","","","","","","","","","","","",""
"html-keyboard-response","211","1826487","0.0-6.0-1.0-4.0","1","0","zbz9azqabhzdmp7","","null","","","","null","","","SL-TRAIN","","","0","1850.300000011921","1857.4000000357628","sounds/A/TRAIN/SEQ__01.mp3","1245","","","","","","","","","","","","","","","","","","","","","",""
"html-button-response","212","1829128","0.0-6.0-1.0-5.0","1","0","zbz9azqabhzdmp7","","2639.7000000476837","","<p>You may take a short break if you wish.</p>","0","","","","","","","","","","","","","","","","","","","","","","","","","","","","","","","","",""
"html-keyboard-response","213","1830130","0.0-6.0-1.0-6.0","1","0","zbz9azqabhzdmp7","","null","","<p style=""font-size: 40px;"">+</p>","","null","","","","","","","","","","","","","","","","","","","","","","","","","","","","","","","",""
"html-keyboard-response","214","2015132","0.0-6.0-1.0-7.0","1","0","zbz9azqabhzdmp7","","null","","","","null","","","SL-TRAIN","","","0","1912","1814.5","sounds/A/TRAIN/SEQ__09.mp3","1359","","","","","","","","","","","","","","","","","","","","","",""
"html-button-response","215","2022769","0.0-6.0-1.0-8.0","1","0","zbz9azqabhzdmp7","","7636","","<p>You may take a short break if you wish.</p>","0","","","","","","","","","","","","","","","","","","","","","","","","","","","","","","","","",""
"html-keyboard-response","216","2023771","0.0-6.0-1.0-9.0","1","0","zbz9azqabhzdmp7","","null","","<p style=""font-size: 40px;"">+</p>","","null","","","","","","","","","","","","","","","","","","","","","","","","","","","","","","","",""
"html-keyboard-response","217","2208774","0.0-6.0-1.0-10.0","1","0","zbz9azqabhzdmp7","","null","","","","null","","","SL-TRAIN","","","0","1892.4000000357628","1832.9000000357628","sounds/A/TRAIN/SEQ__07.mp3","1590","","","","","","","","","","","","","","","","","","","","","",""
"html-button-response","218","2210554","0.0-6.0-1.0-11.0","1","0","zbz9azqabhzdmp7","","1778.5","","<p>You may take a short break if you wish.</p>","0","","","","","","","","","","","","","","","","","","","","","","","","","","","","","","","","",""
"html-button-response","219","4315749","0.0-7.0-0.0","1","0","zbz9azqabhzdmp7","","2105192.899999976","","<p>Welcome to the second part of the study. This is a <u>familiarity task</u>.</p><p>You will now hear short sounds and will be asked to rate how familiar they sound to you <b>based on what you heard in the previous part of the study</b>.</p><p>You will rate 12 sounds in total.</p>","0","","","","","","","","","","","","","","","","","","","","","","","","","","","","","","","","",""
"html-keyboard-response","220","4316752","0.0-7.0-1.0-0.0","1","0","zbz9azqabhzdmp7","","null","","","","null","","","","","","","","","","","","","","","","","","","","","","","","","","","","","","","",""
"audio-keyboard-response","221","4318348","0.0-7.0-1.0-1.0","1","0","zbz9azqabhzdmp7","","null","","sounds/A/FAM/W002.mp3","","null","","","","","","","","","","","","","","","","","","","","","","","","","","","","","","","",""
"html-keyboard-response","222","4322205","0.0-7.0-1.0-2.0","1","0","zbz9azqabhzdmp7","","3354.600000023842","","<p>How familiar did this sound to you?</p><p>1&nbsp;&nbsp;&nbsp;&nbsp;&nbsp;&nbsp;&nbsp;&nbsp;&nbsp;&nbsp;&nbsp;&nbsp;&nbsp;&nbsp;&nbsp;&nbsp;&nbsp;&nbsp;&nbsp;2&nbsp;&nbsp;&nbsp;&nbsp;&nbsp;&nbsp;&nbsp;&nbsp;&nbsp;&nbsp;&nbsp;&nbsp;&nbsp;&nbsp;&nbsp;&nbsp;&nbsp;&nbsp;&nbsp;3&nbsp;&nbsp;&nbsp;&nbsp;&nbsp;&nbsp;&nbsp;&nbsp;&nbsp;&nbsp;&nbsp;&nbsp;&nbsp;&nbsp;&nbsp;&nbsp;&nbsp;&nbsp;&nbsp;4</p><p style=""font-size:14px"">Not at all familiar&nbsp;&nbsp;&nbsp;&nbsp;A little familiar&nbsp;&nbsp;&nbsp;Moderately familiar&nbsp;&nbsp;&nbsp;Extremely familiar</p><p>(press the corresponding number on your keyboard)</p>","","52","","","FAM-RESPONSE","","","","","","","","sounds/A/FAM/W002.mp3","word","","","","","","","","","","","","","","","","","","","",""
"html-keyboard-response","223","4324236","0.0-7.0-1.0-0.1","1","0","zbz9azqabhzdmp7","","null","","","","null","","","","","","","","","","","","","","","","","","","","","","","","","","","","","","","",""
"audio-keyboard-response","224","4325178","0.0-7.0-1.0-1.1","1","0","zbz9azqabhzdmp7","","null","","sounds/A/FAM/W001.mp3","","null","","","","","","","","","","","","","","","","","","","","","","","","","","","","","","","",""
"html-keyboard-response","225","4326010","0.0-7.0-1.0-2.1","1","0","zbz9azqabhzdmp7","","322","","<p>How familiar did this sound to you?</p><p>1&nbsp;&nbsp;&nbsp;&nbsp;&nbsp;&nbsp;&nbsp;&nbsp;&nbsp;&nbsp;&nbsp;&nbsp;&nbsp;&nbsp;&nbsp;&nbsp;&nbsp;&nbsp;&nbsp;2&nbsp;&nbsp;&nbsp;&nbsp;&nbsp;&nbsp;&nbsp;&nbsp;&nbsp;&nbsp;&nbsp;&nbsp;&nbsp;&nbsp;&nbsp;&nbsp;&nbsp;&nbsp;&nbsp;3&nbsp;&nbsp;&nbsp;&nbsp;&nbsp;&nbsp;&nbsp;&nbsp;&nbsp;&nbsp;&nbsp;&nbsp;&nbsp;&nbsp;&nbsp;&nbsp;&nbsp;&nbsp;&nbsp;4</p><p style=""font-size:14px"">Not at all familiar&nbsp;&nbsp;&nbsp;&nbsp;A little familiar&nbsp;&nbsp;&nbsp;Moderately familiar&nbsp;&nbsp;&nbsp;Extremely familiar</p><p>(press the corresponding number on your keyboard)</p>","","51","","","FAM-RESPONSE","","","","","","","","sounds/A/FAM/W001.mp3","word","","","","","","","","","","","","","","","","","","","",""
"html-keyboard-response","226","4327760","0.0-7.0-1.0-0.2","1","0","zbz9azqabhzdmp7","","748.1999999880791","","","","51","","","","","","","","","","","","","","","","","","","","","","","","","","","","","","","",""
"audio-keyboard-response","227","4327933","0.0-7.0-1.0-1.2","1","0","zbz9azqabhzdmp7","","171","","sounds/A/FAM/P002.mp3","","52","","","","","","","","","","","","","","","","","","","","","","","","","","","","","","","",""
"html-keyboard-response","228","4328511","0.0-7.0-1.0-2.2","1","0","zbz9azqabhzdmp7","","72","","<p>How familiar did this sound to you?</p><p>1&nbsp;&nbsp;&nbsp;&nbsp;&nbsp;&nbsp;&nbsp;&nbsp;&nbsp;&nbsp;&nbsp;&nbsp;&nbsp;&nbsp;&nbsp;&nbsp;&nbsp;&nbsp;&nbsp;2&nbsp;&nbsp;&nbsp;&nbsp;&nbsp;&nbsp;&nbsp;&nbsp;&nbsp;&nbsp;&nbsp;&nbsp;&nbsp;&nbsp;&nbsp;&nbsp;&nbsp;&nbsp;&nbsp;3&nbsp;&nbsp;&nbsp;&nbsp;&nbsp;&nbsp;&nbsp;&nbsp;&nbsp;&nbsp;&nbsp;&nbsp;&nbsp;&nbsp;&nbsp;&nbsp;&nbsp;&nbsp;&nbsp;4</p><p style=""font-size:14px"">Not at all familiar&nbsp;&nbsp;&nbsp;&nbsp;A little familiar&nbsp;&nbsp;&nbsp;Moderately familiar&nbsp;&nbsp;&nbsp;Extremely familiar</p><p>(press the corresponding number on your keyboard)</p>","","52","","","FAM-RESPONSE","","","","","","","","sounds/A/FAM/P002.mp3","partword","","","","","","","","","","","","","","","","","","","",""
"html-keyboard-response","229","4329582","0.0-7.0-1.0-0.3","1","0","zbz9azqabhzdmp7","","61.59999996423721","","","","51","","","","","","","","","","","","","","","","","","","","","","","","","","","","","","","",""
"audio-keyboard-response","230","4329705","0.0-7.0-1.0-1.3","1","0","zbz9azqabhzdmp7","","120","","sounds/A/FAM/P004.mp3","","52","","","","","","","","","","","","","","","","","","","","","","","","","","","","","","","",""
"html-keyboard-response","231","4330285","0.0-7.0-1.0-2.3","1","0","zbz9azqabhzdmp7","","62","","<p>How familiar did this sound to you?</p><p>1&nbsp;&nbsp;&nbsp;&nbsp;&nbsp;&nbsp;&nbsp;&nbsp;&nbsp;&nbsp;&nbsp;&nbsp;&nbsp;&nbsp;&nbsp;&nbsp;&nbsp;&nbsp;&nbsp;2&nbsp;&nbsp;&nbsp;&nbsp;&nbsp;&nbsp;&nbsp;&nbsp;&nbsp;&nbsp;&nbsp;&nbsp;&nbsp;&nbsp;&nbsp;&nbsp;&nbsp;&nbsp;&nbsp;3&nbsp;&nbsp;&nbsp;&nbsp;&nbsp;&nbsp;&nbsp;&nbsp;&nbsp;&nbsp;&nbsp;&nbsp;&nbsp;&nbsp;&nbsp;&nbsp;&nbsp;&nbsp;&nbsp;4</p><p style=""font-size:14px"">Not at all familiar&nbsp;&nbsp;&nbsp;&nbsp;A little familiar&nbsp;&nbsp;&nbsp;Moderately familiar&nbsp;&nbsp;&nbsp;Extremely familiar</p><p>(press the corresponding number on your keyboard)</p>","","52","","","FAM-RESPONSE","","","","","","","","sounds/A/FAM/P004.mp3","partword","","","","","","","","","","","","","","","","","","","",""
"html-keyboard-response","232","4331364","0.0-7.0-1.0-0.4","1","0","zbz9azqabhzdmp7","","71.60000002384186","","","","51","","","","","","","","","","","","","","","","","","","","","","","","","","","","","","","",""
"audio-keyboard-response","233","4331515","0.0-7.0-1.0-1.4","1","0","zbz9azqabhzdmp7","","152","","sounds/A/FAM/N001.mp3","","52","","","","","","","","","","","","","","","","","","","","","","","","","","","","","","","",""
"html-keyboard-response","234","4332023","0.0-7.0-1.0-2.4","1","0","zbz9azqabhzdmp7","","1.699999988079071","","<p>How familiar did this sound to you?</p><p>1&nbsp;&nbsp;&nbsp;&nbsp;&nbsp;&nbsp;&nbsp;&nbsp;&nbsp;&nbsp;&nbsp;&nbsp;&nbsp;&nbsp;&nbsp;&nbsp;&nbsp;&nbsp;&nbsp;2&nbsp;&nbsp;&nbsp;&nbsp;&nbsp;&nbsp;&nbsp;&nbsp;&nbsp;&nbsp;&nbsp;&nbsp;&nbsp;&nbsp;&nbsp;&nbsp;&nbsp;&nbsp;&nbsp;3&nbsp;&nbsp;&nbsp;&nbsp;&nbsp;&nbsp;&nbsp;&nbsp;&nbsp;&nbsp;&nbsp;&nbsp;&nbsp;&nbsp;&nbsp;&nbsp;&nbsp;&nbsp;&nbsp;4</p><p style=""font-size:14px"">Not at all familiar&nbsp;&nbsp;&nbsp;&nbsp;A little familiar&nbsp;&nbsp;&nbsp;Moderately familiar&nbsp;&nbsp;&nbsp;Extremely familiar</p><p>(press the corresponding number on your keyboard)</p>","","51","","","FAM-RESPONSE","","","","","","","","sounds/A/FAM/N001.mp3","nonword","","","","","","","","","","","","","","","","","","","",""
"html-keyboard-response","235","4333122","0.0-7.0-1.0-0.5","1","0","zbz9azqabhzdmp7","","96.30000001192093","","","","51","","","","","","","","","","","","","","","","","","","","","","","","","","","","","","","",""
"audio-keyboard-response","236","4333346","0.0-7.0-1.0-1.5","1","0","zbz9azqabhzdmp7","","221","","sounds/A/FAM/W004.mp3","","51","","","","","","","","","","","","","","","","","","","","","","","","","","","","","","","",""
"html-keyboard-response","237","4333966","0.0-7.0-1.0-2.5","1","0","zbz9azqabhzdmp7","","117","","<p>How familiar did this sound to you?</p><p>1&nbsp;&nbsp;&nbsp;&nbsp;&nbsp;&nbsp;&nbsp;&nbsp;&nbsp;&nbsp;&nbsp;&nbsp;&nbsp;&nbsp;&nbsp;&nbsp;&nbsp;&nbsp;&nbsp;2&nbsp;&nbsp;&nbsp;&nbsp;&nbsp;&nbsp;&nbsp;&nbsp;&nbsp;&nbsp;&nbsp;&nbsp;&nbsp;&nbsp;&nbsp;&nbsp;&nbsp;&nbsp;&nbsp;3&nbsp;&nbsp;&nbsp;&nbsp;&nbsp;&nbsp;&nbsp;&nbsp;&nbsp;&nbsp;&nbsp;&nbsp;&nbsp;&nbsp;&nbsp;&nbsp;&nbsp;&nbsp;&nbsp;4</p><p style=""font-size:14px"">Not at all familiar&nbsp;&nbsp;&nbsp;&nbsp;A little familiar&nbsp;&nbsp;&nbsp;Moderately familiar&nbsp;&nbsp;&nbsp;Extremely familiar</p><p>(press the corresponding number on your keyboard)</p>","","52","","","FAM-RESPONSE","","","","","","","","sounds/A/FAM/W004.mp3","word","","","","","","","","","","","","","","","","","","","",""
"html-keyboard-response","238","4335053","0.0-7.0-1.0-0.6","1","0","zbz9azqabhzdmp7","","77.89999997615814","","","","51","","","","","","","","","","","","","","","","","","","","","","","","","","","","","","","",""
"audio-keyboard-response","239","4335156","0.0-7.0-1.0-1.6","1","0","zbz9azqabhzdmp7","","101","","sounds/A/FAM/W003.mp3","","52","","","","","","","","","","","","","","","","","","","","","","","","","","","","","","","",""
"html-keyboard-response","240","4335781","0.0-7.0-1.0-2.6","1","0","zbz9azqabhzdmp7","","112.89999997615814","","<p>How familiar did this sound to you?</p><p>1&nbsp;&nbsp;&nbsp;&nbsp;&nbsp;&nbsp;&nbsp;&nbsp;&nbsp;&nbsp;&nbsp;&nbsp;&nbsp;&nbsp;&nbsp;&nbsp;&nbsp;&nbsp;&nbsp;2&nbsp;&nbsp;&nbsp;&nbsp;&nbsp;&nbsp;&nbsp;&nbsp;&nbsp;&nbsp;&nbsp;&nbsp;&nbsp;&nbsp;&nbsp;&nbsp;&nbsp;&nbsp;&nbsp;3&nbsp;&nbsp;&nbsp;&nbsp;&nbsp;&nbsp;&nbsp;&nbsp;&nbsp;&nbsp;&nbsp;&nbsp;&nbsp;&nbsp;&nbsp;&nbsp;&nbsp;&nbsp;&nbsp;4</p><p style=""font-size:14px"">Not at all familiar&nbsp;&nbsp;&nbsp;&nbsp;A little familiar&nbsp;&nbsp;&nbsp;Moderately familiar&nbsp;&nbsp;&nbsp;Extremely familiar</p><p>(press the corresponding number on your keyboard)</p>","","51","","","FAM-RESPONSE","","","","","","","","sounds/A/FAM/W003.mp3","word","","","","","","","","","","","","","","","","","","","",""
"html-keyboard-response","241","4336852","0.0-7.0-1.0-0.7","1","0","zbz9azqabhzdmp7","","56.30000001192093","","","","51","","","","","","","","","","","","","","","","","","","","","","","","","","","","","","","",""
"audio-keyboard-response","242","4336977","0.0-7.0-1.0-1.7","1","0","zbz9azqabhzdmp7","","120","","sounds/A/FAM/P003.mp3","","52","","","","","","","","","","","","","","","","","","","","","","","","","","","","","","","",""
"html-keyboard-response","243","4337585","0.0-7.0-1.0-2.7","1","0","zbz9azqabhzdmp7","","82","","<p>How familiar did this sound to you?</p><p>1&nbsp;&nbsp;&nbsp;&nbsp;&nbsp;&nbsp;&nbsp;&nbsp;&nbsp;&nbsp;&nbsp;&nbsp;&nbsp;&nbsp;&nbsp;&nbsp;&nbsp;&nbsp;&nbsp;2&nbsp;&nbsp;&nbsp;&nbsp;&nbsp;&nbsp;&nbsp;&nbsp;&nbsp;&nbsp;&nbsp;&nbsp;&nbsp;&nbsp;&nbsp;&nbsp;&nbsp;&nbsp;&nbsp;3&nbsp;&nbsp;&nbsp;&nbsp;&nbsp;&nbsp;&nbsp;&nbsp;&nbsp;&nbsp;&nbsp;&nbsp;&nbsp;&nbsp;&nbsp;&nbsp;&nbsp;&nbsp;&nbsp;4</p><p style=""font-size:14px"">Not at all familiar&nbsp;&nbsp;&nbsp;&nbsp;A little familiar&nbsp;&nbsp;&nbsp;Moderately familiar&nbsp;&nbsp;&nbsp;Extremely familiar</p><p>(press the corresponding number on your keyboard)</p>","","52","","","FAM-RESPONSE","","","","","","","","sounds/A/FAM/P003.mp3","partword","","","","","","","","","","","","","","","","","","","",""
"html-keyboard-response","244","4338671","0.0-7.0-1.0-0.8","1","0","zbz9azqabhzdmp7","","74.80000001192093","","","","51","","","","","","","","","","","","","","","","","","","","","","","","","","","","","","","",""
"audio-keyboard-response","245","4338814","0.0-7.0-1.0-1.8","1","0","zbz9azqabhzdmp7","","139","","sounds/A/FAM/N003.mp3","","52","","","","","","","","","","","","","","","","","","","","","","","","","","","","","","","",""
"html-keyboard-response","246","4339421","0.0-7.0-1.0-2.8","1","0","zbz9azqabhzdmp7","","99.89999997615814","","<p>How familiar did this sound to you?</p><p>1&nbsp;&nbsp;&nbsp;&nbsp;&nbsp;&nbsp;&nbsp;&nbsp;&nbsp;&nbsp;&nbsp;&nbsp;&nbsp;&nbsp;&nbsp;&nbsp;&nbsp;&nbsp;&nbsp;2&nbsp;&nbsp;&nbsp;&nbsp;&nbsp;&nbsp;&nbsp;&nbsp;&nbsp;&nbsp;&nbsp;&nbsp;&nbsp;&nbsp;&nbsp;&nbsp;&nbsp;&nbsp;&nbsp;3&nbsp;&nbsp;&nbsp;&nbsp;&nbsp;&nbsp;&nbsp;&nbsp;&nbsp;&nbsp;&nbsp;&nbsp;&nbsp;&nbsp;&nbsp;&nbsp;&nbsp;&nbsp;&nbsp;4</p><p style=""font-size:14px"">Not at all familiar&nbsp;&nbsp;&nbsp;&nbsp;A little familiar&nbsp;&nbsp;&nbsp;Moderately familiar&nbsp;&nbsp;&nbsp;Extremely familiar</p><p>(press the corresponding number on your keyboard)</p>","","51","","","FAM-RESPONSE","","","","","","","","sounds/A/FAM/N003.mp3","nonword","","","","","","","","","","","","","","","","","","","",""
"html-keyboard-response","247","4340466","0.0-7.0-1.0-0.9","1","0","zbz9azqabhzdmp7","","38.39999997615814","","","","51","","","","","","","","","","","","","","","","","","","","","","","","","","","","","","","",""
"audio-keyboard-response","248","4340636","0.0-7.0-1.0-1.9","1","0","zbz9azqabhzdmp7","","171","","sounds/A/FAM/P001.mp3","","52","","","","","","","","","","","","","","","","","","","","","","","","","","","","","","","",""
"html-keyboard-response","249","4341255","0.0-7.0-1.0-2.9","1","0","zbz9azqabhzdmp7","","115","","<p>How familiar did this sound to you?</p><p>1&nbsp;&nbsp;&nbsp;&nbsp;&nbsp;&nbsp;&nbsp;&nbsp;&nbsp;&nbsp;&nbsp;&nbsp;&nbsp;&nbsp;&nbsp;&nbsp;&nbsp;&nbsp;&nbsp;2&nbsp;&nbsp;&nbsp;&nbsp;&nbsp;&nbsp;&nbsp;&nbsp;&nbsp;&nbsp;&nbsp;&nbsp;&nbsp;&nbsp;&nbsp;&nbsp;&nbsp;&nbsp;&nbsp;3&nbsp;&nbsp;&nbsp;&nbsp;&nbsp;&nbsp;&nbsp;&nbsp;&nbsp;&nbsp;&nbsp;&nbsp;&nbsp;&nbsp;&nbsp;&nbsp;&nbsp;&nbsp;&nbsp;4</p><p style=""font-size:14px"">Not at all familiar&nbsp;&nbsp;&nbsp;&nbsp;A little familiar&nbsp;&nbsp;&nbsp;Moderately familiar&nbsp;&nbsp;&nbsp;Extremely familiar</p><p>(press the corresponding number on your keyboard)</p>","","52","","","FAM-RESPONSE","","","","","","","","sounds/A/FAM/P001.mp3","partword","","","","","","","","","","","","","","","","","","","",""
"html-keyboard-response","250","4342526","0.0-7.0-1.0-0.10","1","0","zbz9azqabhzdmp7","","255.80000001192093","","","","52","","","","","","","","","","","","","","","","","","","","","","","","","","","","","","","",""
"audio-keyboard-response","251","4342758","0.0-7.0-1.0-1.10","1","0","zbz9azqabhzdmp7","","240","","sounds/A/FAM/N002.mp3","","51","","","","","","","","","","","","","","","","","","","","","","","","","","","","","","","",""
"html-keyboard-response","252","4343701","0.0-7.0-1.0-2.10","1","0","zbz9azqabhzdmp7","","440.80000001192093","","<p>How familiar did this sound to you?</p><p>1&nbsp;&nbsp;&nbsp;&nbsp;&nbsp;&nbsp;&nbsp;&nbsp;&nbsp;&nbsp;&nbsp;&nbsp;&nbsp;&nbsp;&nbsp;&nbsp;&nbsp;&nbsp;&nbsp;2&nbsp;&nbsp;&nbsp;&nbsp;&nbsp;&nbsp;&nbsp;&nbsp;&nbsp;&nbsp;&nbsp;&nbsp;&nbsp;&nbsp;&nbsp;&nbsp;&nbsp;&nbsp;&nbsp;3&nbsp;&nbsp;&nbsp;&nbsp;&nbsp;&nbsp;&nbsp;&nbsp;&nbsp;&nbsp;&nbsp;&nbsp;&nbsp;&nbsp;&nbsp;&nbsp;&nbsp;&nbsp;&nbsp;4</p><p style=""font-size:14px"">Not at all familiar&nbsp;&nbsp;&nbsp;&nbsp;A little familiar&nbsp;&nbsp;&nbsp;Moderately familiar&nbsp;&nbsp;&nbsp;Extremely familiar</p><p>(press the corresponding number on your keyboard)</p>","","51","","","FAM-RESPONSE","","","","","","","","sounds/A/FAM/N002.mp3","nonword","","","","","","","","","","","","","","","","","","","",""
"html-keyboard-response","253","4344852","0.0-7.0-1.0-0.11","1","0","zbz9azqabhzdmp7","","137.0999999642372","","","","50","","","","","","","","","","","","","","","","","","","","","","","","","","","","","","","",""
"audio-keyboard-response","254","4345169","0.0-7.0-1.0-1.11","1","0","zbz9azqabhzdmp7","","320","","sounds/A/FAM/N004.mp3","","51","","","","","","","","","","","","","","","","","","","","","","","","","","","","","","","",""
"html-keyboard-response","255","4345677","0.0-7.0-1.0-2.11","1","0","zbz9azqabhzdmp7","","1.800000011920929","","<p>How familiar did this sound to you?</p><p>1&nbsp;&nbsp;&nbsp;&nbsp;&nbsp;&nbsp;&nbsp;&nbsp;&nbsp;&nbsp;&nbsp;&nbsp;&nbsp;&nbsp;&nbsp;&nbsp;&nbsp;&nbsp;&nbsp;2&nbsp;&nbsp;&nbsp;&nbsp;&nbsp;&nbsp;&nbsp;&nbsp;&nbsp;&nbsp;&nbsp;&nbsp;&nbsp;&nbsp;&nbsp;&nbsp;&nbsp;&nbsp;&nbsp;3&nbsp;&nbsp;&nbsp;&nbsp;&nbsp;&nbsp;&nbsp;&nbsp;&nbsp;&nbsp;&nbsp;&nbsp;&nbsp;&nbsp;&nbsp;&nbsp;&nbsp;&nbsp;&nbsp;4</p><p style=""font-size:14px"">Not at all familiar&nbsp;&nbsp;&nbsp;&nbsp;A little familiar&nbsp;&nbsp;&nbsp;Moderately familiar&nbsp;&nbsp;&nbsp;Extremely familiar</p><p>(press the corresponding number on your keyboard)</p>","","51","","","FAM-RESPONSE","","","","","","","","sounds/A/FAM/N004.mp3","nonword","","","","","","","","","","","","","","","","","","","",""
"html-button-response","256","4366320","0.0-8.0-0.0","1","0","zbz9azqabhzdmp7","","19625.80000001192","","<p>You will now listen to longer sound sequences.</p><p>Each sound sequence will last about 16 seconds.</p><p>On each trial, you will be given a <u>TARGET SOUND</u>. Your task is to listen very carefully for this sound.</p><p>Every time you hear the <u>TARGET SOUND</u>, you will press the <b>SPACEBAR</b> as quickly and accurately as you can.</p>","0","","","","","","","","","","","","","","","","","","","","","","","","","","","","","","","","",""
"html-button-response","257","4378880","0.0-8.0-1.0","1","0","zbz9azqabhzdmp7","","12297.400000035763","","<p>It is very important that you make your responses as quickly and accurately as possible.</p><p>To help you make your responses, you will be able to listen to the <u>TARGET SOUND</u> at the beginning of each trial.</p><p>There will be 36 total trials.</p><p><b>Note: This is meant to be a difficult task. We simply want you to try your best.</p>","0","","","","","","","","","","","","","","","","","","","","","","","","","","","","","","","","",""
"html-button-response","258","4379914","0.0-8.0-2.0-0.0","1","0","zbz9azqabhzdmp7","","780","","<p>Trial 1 of 36</p>","0","","","","","","","","","","","","","","PU","sounds/syllables/pu_SWS.wav","1200,7500,10200,12900","2","","","","","","","","","","","","","","","",""
"html-keyboard-response","259","4381649","0.0-8.0-2.0-1.0","1","0","zbz9azqabhzdmp7","","1733.7999999523163","","","","80","","","","","","","","","","","","","PU","","1200,7500,10200,12900","2","","","","","","","","","","","","","","","",""
"audio-keyboard-response","260","4382155","0.0-8.0-2.0-2.0-0.0","1","0","zbz9azqabhzdmp7","","null","","sounds/syllables/pu_SWS.wav","","null","","","","","","","","","","","","","","","","","","","","","","","","","","","","","","","",""
"html-keyboard-response","261","4382585","0.0-8.0-2.0-2.0-1.0","1","0","zbz9azqabhzdmp7","","428.7999999523163","","<p>To replay the <u>TARGET SOUND</u>, press P.</p> When you are ready to begin, press SPACEBAR.","","80","","","","","","","","","","","","","","","","","","","","","","","","","","","","","","","",""
"audio-keyboard-response","262","4383395","0.0-8.0-2.0-2.1-0.1","1","0","zbz9azqabhzdmp7","","null","","sounds/syllables/pu_SWS.wav","","null","","","","","","","","","","","","","","","","","","","","","","","","","","","","","","","",""
"html-keyboard-response","263","4383958","0.0-8.0-2.0-2.1-1.1","1","0","zbz9azqabhzdmp7","","562.3999999761581","","<p>To replay the <u>TARGET SOUND</u>, press P.</p> When you are ready to begin, press SPACEBAR.","","80","","","","","","","","","","","","","","","","","","","","","","","","","","","","","","","",""
"audio-keyboard-response","264","4384766","0.0-8.0-2.0-2.2-0.2","1","0","zbz9azqabhzdmp7","","null","","sounds/syllables/pu_SWS.wav","","null","","","","","","","","","","","","","","","","","","","","","","","","","","","","","","","",""
"html-keyboard-response","265","4385093","0.0-8.0-2.0-2.2-1.2","1","0","zbz9azqabhzdmp7","","326.4000000357628","","<p>To replay the <u>TARGET SOUND</u>, press P.</p> When you are ready to begin, press SPACEBAR.","","32","","","","","","","","","","","","","","","","","","","","","","","","","","","","","","","",""
"audio-keyboard-response","266","4400045","0.0-8.0-2.0-3.0","1","0","zbz9azqabhzdmp7","","2019","","sounds/A/TD/PU_06_TD.mp3","","32","","","TD_SUMMARY","","","","","","","","","","PU","","1200,7500,10200,12900","2","1200","7500","10200","12900","819.8999999761581","1172","1100.5","1026.5","2019.8999999761581_2895.100000023842_3056.600000023842_3234.300000011921_3424.199999988079_3665.5_3868_3992.199999988079_4169.899999976158_4330_4484.800000011921_4637.199999988079_4805.100000023842_4959.100000023842_5122.699999988079_5278.899999976158_5444_5608.899999976158_5786.5_5965.300000011921_6146.800000011921_6308_6481.100000023842_6660.100000023842_6853.899999976158_7006.399999976158_7200.399999976158_7380.100000023842_7565.699999988079_7753.300000011921_7926.100000023842_8276.199999988079_8477.800000011921_8672_8891.800000011921_9054.5_9244.5_9416.5_9591.600000023842_9811.399999976158_9932.300000011921_10096.600000023842_10265.100000023842_10444.5_10616.600000023842_10786.800000011921_10962.100000023842_11116.300000011921_11300.5_11479.199999988079_11659.899999976158_11803.100000023842_11976.5_12689.300000011921_12900_13104.800000011921_13310.199999988079_13513.100000023842_13719_13926.5_14132.199999988079_14316","3","","","","","",""
"html-button-response","267","4401375","0.0-8.0-2.0-0.1","1","0","zbz9azqabhzdmp7","","1326.3999999761581","","<p>Trial 2 of 36</p>","0","","","","","","","","","","","","","","TI","sounds/syllables/ti_SWS.wav","1200,3900,7500,12900","2","","","","","","","","","","","","","","","",""
"html-keyboard-response","268","4403140","0.0-8.0-2.0-1.1","1","0","zbz9azqabhzdmp7","","1764.7999999523163","","","","80","","","","","","","","","","","","","TI","","1200,3900,7500,12900","2","","","","","","","","","","","","","","","",""
"audio-keyboard-response","269","4403435","0.0-8.0-2.0-2.3-0.3","1","0","zbz9azqabhzdmp7","","null","","sounds/syllables/ti_SWS.wav","","null","","","","","","","","","","","","","","","","","","","","","","","","","","","","","","","",""
"html-keyboard-response","270","4403937","0.0-8.0-2.0-2.3-1.3","1","0","zbz9azqabhzdmp7","","500.89999997615814","","<p>To replay the <u>TARGET SOUND</u>, press P.</p> When you are ready to begin, press SPACEBAR.","","32","","","","","","","","","","","","","","","","","","","","","","","","","","","","","","","",""
"audio-keyboard-response","271","4418895","0.0-8.0-2.0-3.1","1","0","zbz9azqabhzdmp7","","48","","sounds/A/TD/TI_01_TD.mp3","","32","","","TD_SUMMARY","","","","","","","","","","TI","","1200,3900,7500,12900","2","1200","3900","7500","12900","1106","1045.5","1073.9000000357628","1182","______________________________________________________________44.40000003576279_211_380.5_552.5_720.5_900.6999999880791_1100.4000000357628_1315.4000000357628_1496_1701.6000000238419_1899.199999988079_2086.199999988079_2306_2525.300000011921_2715_2927.600000023842_3161.800000011921_3376.300000011921_3583.699999988079_3785.900000035763_3983.199999988079_4180.900000035763_4384.400000035763_4555.699999988079_4754.699999988079_4945.5_5134.100000023842_5336.300000011921_5524.699999988079_5721.5_5921.699999988079_6111.199999988079_6306.300000011921_6526.5_6719.100000023842_6903.5_7079.800000011921_7281.800000011921_7483.300000011921_7638.300000011921_7804.900000035763_8001.400000035763_8202_8396.800000011921_8573.900000035763_8752.400000035763_8961.300000011921_9159.699999988079_9362.100000023842_9565.600000023842_9744.699999988079_9956_10195.199999988079_10394.199999988079_10781.400000035763_10956.800000011921_11154.600000023842_11347.600000023842_11519.5_11718.100000023842_11918.900000035763_12148.5_12322_12516.900000035763_12700.400000035763_12879.900000035763_13107_13303.600000023842_13523.699999988079_13691.300000011921_13890_14082_14262","1","","","","","",""
"html-button-response","272","4420077","0.0-8.0-2.0-0.2","1","0","zbz9azqabhzdmp7","","1178.6000000238419","","<p>Trial 3 of 36</p>","0","","","","","","","","","","","","","","TI","sounds/syllables/ti_SWS.wav","3000,5700,7500,12000","2","","","","","","","","","","","","","","","",""
"html-keyboard-response","273","4421452","0.0-8.0-2.0-1.2","1","0","zbz9azqabhzdmp7","","1374","","","","80","","","","","","","","","","","","","TI","","3000,5700,7500,12000","2","","","","","","","","","","","","","","","",""
"audio-keyboard-response","274","4421755","0.0-8.0-2.0-2.4-0.4","1","0","zbz9azqabhzdmp7","","null","","sounds/syllables/ti_SWS.wav","","null","","","","","","","","","","","","","","","","","","","","","","","","","","","","","","","",""
"html-keyboard-response","275","4422110","0.0-8.0-2.0-2.4-1.4","1","0","zbz9azqabhzdmp7","","354.30000001192093","","<p>To replay the <u>TARGET SOUND</u>, press P.</p> When you are ready to begin, press SPACEBAR.","","32","","","","","","","","","","","","","","","","","","","","","","","","","","","","","","","",""
"audio-keyboard-response","276","4437055","0.0-8.0-2.0-3.2","1","0","zbz9azqabhzdmp7","","99","","sounds/A/TD/TI_09_TD.mp3","","32","","","TD_SUMMARY","","","","","","","","","","TI","","3000,5700,7500,12000","2","3000","5700","7500","12000","816.3999999761581","918","1052.5999999642372","1058.5999999642372","_______________________________________________________________________________________________________________________________________92.39999997615814_492.5999999642372_718.2999999523163_895.5999999642372_1095.199999988079_1306.699999988079_1514.199999988079_1729.8999999761581_1942_2346.599999964237_2684_2908.099999964237_3190.7999999523163_3492.2999999523163_3816.399999976158_4305.199999988079_4601.899999976158_4896.599999964237_5167.399999976158_5478.099999964237_5782.399999976158_6032_6321.299999952316_6618_6900.599999964237_7264.399999976158_7602.899999976158_7914.299999952316_8223.199999988079_8552.599999964237_8882.699999988079_9196.599999964237_9698.199999988079_9984.399999976158_10259.099999964237_10515.299999952316_10821.899999976158_11121.899999976158_11366.5_11573.799999952316_11744.5_11956.799999952316_12180.399999976158_12359_12597.599999964237_12843.099999964237_13058.599999964237_13269.099999964237_13530.899999976158_13728.299999952316_14340.899999976158","1","","","","","",""
"html-button-response","277","4438247","0.0-8.0-2.0-0.3","1","0","zbz9azqabhzdmp7","","1187.699999988079","","<p>Trial 4 of 36</p>","0","","","","","","","","","","","","","","RE","sounds/syllables/re_SWS.wav","900,5400,9900,12600","1","","","","","","","","","","","","","","","",""
"html-keyboard-response","278","4440623","0.0-8.0-2.0-1.3","1","0","zbz9azqabhzdmp7","","2375.600000023842","","","","80","","","","","","","","","","","","","RE","","900,5400,9900,12600","1","","","","","","","","","","","","","","","",""
"audio-keyboard-response","279","4440915","0.0-8.0-2.0-2.5-0.5","1","0","zbz9azqabhzdmp7","","null","","sounds/syllables/re_SWS.wav","","null","","","","","","","","","","","","","","","","","","","","","","","","","","","","","","","",""
"html-keyboard-response","280","4441260","0.0-8.0-2.0-2.5-1.5","1","0","zbz9azqabhzdmp7","","343.5","","<p>To replay the <u>TARGET SOUND</u>, press P.</p> When you are ready to begin, press SPACEBAR.","","32","","","","","","","","","","","","","","","","","","","","","","","","","","","","","","","",""
"audio-keyboard-response","281","4456216","0.0-8.0-2.0-3.3","1","0","zbz9azqabhzdmp7","","328","","sounds/A/TD/RE_03_TD.mp3","","32","","","TD_SUMMARY","","","","","","","","","","RE","","900,5400,9900,12600","1","900","5400","9900","12600","1181.0999999642372","null","null","null","__________________________________________________________________________________________________________________________________________________________________________________________333.39999997615814_575.1999999880791_793.7999999523163_1029.5_1260.0999999642372_1523.3999999761581_1789.5_2081.099999964237_2359_2658.7999999523163_2929.599999964237_3220.099999964237_3521.5_3803.7999999523163_4079.199999988079_4389.399999976158_4655.199999988079_5073.599999964237","1","","","","","",""
"html-button-response","282","4458750","0.0-8.0-2.0-0.4","1","0","zbz9azqabhzdmp7","","2531.600000023842","","<p>Trial 5 of 36</p>","0","","","","","","","","","","","","","","FU","sounds/syllables/fu_SWS.wav","3900,5700,7500,12000","2","","","","","","","","","","","","","","","",""
"html-keyboard-response","283","4459937","0.0-8.0-2.0-1.4","1","0","zbz9azqabhzdmp7","","1185.6000000238419","","","","80","","","","","","","","","","","","","FU","","3900,5700,7500,12000","2","","","","","","","","","","","","","","","",""
"audio-keyboard-response","284","4460235","0.0-8.0-2.0-2.6-0.6","1","0","zbz9azqabhzdmp7","","null","","sounds/syllables/fu_SWS.wav","","null","","","","","","","","","","","","","","","","","","","","","","","","","","","","","","","",""
"html-keyboard-response","285","4460586","0.0-8.0-2.0-2.6-1.6","1","0","zbz9azqabhzdmp7","","350","","<p>To replay the <u>TARGET SOUND</u>, press P.</p> When you are ready to begin, press SPACEBAR.","","32","","","","","","","","","","","","","","","","","","","","","","","","","","","","","","","",""
"audio-keyboard-response","286","4475535","0.0-8.0-2.0-3.4","1","0","zbz9azqabhzdmp7","","760","","sounds/A/TD/FU_05_TD.mp3","","32","","","TD_SUMMARY","","","","","","","","","","FU","","3900,5700,7500,12000","2","3900","5700","7500","12000","null","null","null","null","____________________________________________________________________________________________________________________________________________________________________________________________________________762.3999999761581_975.7999999523163_1166.3999999761581_1312.3999999761581_1449","1","","","","","",""
"html-button-response","287","4493126","0.0-8.0-2.0-0.5","1","0","zbz9azqabhzdmp7","","17588.599999964237","","<p>Trial 6 of 36</p>","0","","","","","","","","","","","","","","ME","sounds/syllables/me_SWS.wav","6000,7800,11400,13200","3","","","","","","","","","","","","","","","",""
"html-keyboard-response","288","4494219","0.0-8.0-2.0-1.5","1","0","zbz9azqabhzdmp7","","1090.5999999642372","","","","80","","","","","","","","","","","","","ME","","6000,7800,11400,13200","3","","","","","","","","","","","","","","","",""
"audio-keyboard-response","289","4494515","0.0-8.0-2.0-2.7-0.7","1","0","zbz9azqabhzdmp7","","null","","sounds/syllables/me_SWS.wav","","null","","","","","","","","","","","","","","","","","","","","","","","","","","","","","","","",""
"html-keyboard-response","290","4494968","0.0-8.0-2.0-2.7-1.7","1","0","zbz9azqabhzdmp7","","452.39999997615814","","<p>To replay the <u>TARGET SOUND</u>, press P.</p> When you are ready to begin, press SPACEBAR.","","32","","","","","","","","","","","","","","","","","","","","","","","","","","","","","","","",""
"audio-keyboard-response","291","4509925","0.0-8.0-2.0-3.5","1","0","zbz9azqabhzdmp7","","7389","","sounds/A/TD/ME_07_TD.mp3","","32","","","TD_SUMMARY","","","","","","","","","","ME","","6000,7800,11400,13200","3","6000","7800","11400","13200","null","null","null","null","_________________________________________________________________________________________________________________________________________________________________________________________________________________7397.600000023842_7765.600000023842_7959.100000023842","1","","","","","",""
"html-button-response","292","4512627","0.0-8.0-2.0-0.6","1","0","zbz9azqabhzdmp7","","2697.300000011921","","<p>Trial 7 of 36</p>","0","","","","","","","","","","","","","","FE","sounds/syllables/fe_SWS.wav","1800,6300,9000,12600","1","","","","","","","","","","","","","","","",""
"html-keyboard-response","293","4514774","0.0-8.0-2.0-1.6","1","0","zbz9azqabhzdmp7","","2146.100000023842","","","","80","","","","","","","","","","","","","FE","","1800,6300,9000,12600","1","","","","","","","","","","","","","","","",""
"audio-keyboard-response","294","4515075","0.0-8.0-2.0-2.8-0.8","1","0","zbz9azqabhzdmp7","","null","","sounds/syllables/fe_SWS.wav","","null","","","","","","","","","","","","","","","","","","","","","","","","","","","","","","","",""
"html-keyboard-response","295","4515827","0.0-8.0-2.0-2.8-1.8","1","0","zbz9azqabhzdmp7","","751.1000000238419","","<p>To replay the <u>TARGET SOUND</u>, press P.</p> When you are ready to begin, press SPACEBAR.","","32","","","","","","","","","","","","","","","","","","","","","","","","","","","","","","","",""
"audio-keyboard-response","296","4530775","0.0-8.0-2.0-3.6","1","0","zbz9azqabhzdmp7","","229","","sounds/A/TD/FE_07_TD.mp3","","32","","","TD_SUMMARY","","","","","","","","","","FE","","1800,6300,9000,12600","1","1800","6300","9000","12600","326.0999999642372","522.2999999523163","536.6999999880791","null","____________________________________________________________________________________________________________________________________________________________________________________________________________________226.39999997615814_2126.099999964237_5049.899999976158_6585_6822.299999952316_8931.699999988079_9273.199999988079_9536.699999988079","1","","","","","",""
"html-button-response","297","4533507","0.0-8.0-2.0-0.7","1","0","zbz9azqabhzdmp7","","2729.099999964237","","<p>Trial 8 of 36</p>","0","","","","","","","","","","","","","","GE","sounds/syllables/ge_SWS.wav","3000,4800,7500,10200","2","","","","","","","","","","","","","","","",""
"html-keyboard-response","298","4538904","0.0-8.0-2.0-1.7","1","0","zbz9azqabhzdmp7","","5395.800000011921","","","","80","","","","","","","","","","","","","GE","","3000,4800,7500,10200","2","","","","","","","","","","","","","","","",""
"audio-keyboard-response","299","4539205","0.0-8.0-2.0-2.9-0.9","1","0","zbz9azqabhzdmp7","","null","","sounds/syllables/ge_SWS.wav","","null","","","","","","","","","","","","","","","","","","","","","","","","","","","","","","","",""
"html-keyboard-response","300","4539211","0.0-8.0-2.0-2.9-1.9","1","0","zbz9azqabhzdmp7","","5.699999988079071","","<p>To replay the <u>TARGET SOUND</u>, press P.</p> When you are ready to begin, press SPACEBAR.","","32","","","","","","","","","","","","","","","","","","","","","","","","","","","","","","","",""
"audio-keyboard-response","301","4554165","0.0-8.0-2.0-3.7","1","0","zbz9azqabhzdmp7","","1371","","sounds/A/TD/GE_08_TD.mp3","","32","","","TD_SUMMARY","","","","","","","","","","GE","","3000,4800,7500,10200","2","3000","4800","7500","10200","null","null","null","null","____________________________________________________________________________________________________________________________________________________________________________________________________________________________1369.7999999523163_1586.199999988079_1774.699999988079_1961.5","1","","","","","",""
"html-button-response","302","4555776","0.0-8.0-2.0-0.8","1","0","zbz9azqabhzdmp7","","1608.4000000357628","","<p>Trial 9 of 36</p>","0","","","","","","","","","","","","","","ME","sounds/syllables/me_SWS.wav","2400,7800,9600,13200","3","","","","","","","","","","","","","","","",""
"html-keyboard-response","303","4556810","0.0-8.0-2.0-1.8","1","0","zbz9azqabhzdmp7","","1033.2000000476837","","","","80","","","","","","","","","","","","","ME","","2400,7800,9600,13200","3","","","","","","","","","","","","","","","",""
"audio-keyboard-response","304","4557115","0.0-8.0-2.0-2.10-0.10","1","0","zbz9azqabhzdmp7","","null","","sounds/syllables/me_SWS.wav","","null","","","","","","","","","","","","","","","","","","","","","","","","","","","","","","","",""
"html-keyboard-response","305","4557276","0.0-8.0-2.0-2.10-1.10","1","0","zbz9azqabhzdmp7","","160.39999997615814","","<p>To replay the <u>TARGET SOUND</u>, press P.</p> When you are ready to begin, press SPACEBAR.","","32","","","","","","","","","","","","","","","","","","","","","","","","","","","","","","","",""
"audio-keyboard-response","306","4572236","0.0-8.0-2.0-3.8","1","0","zbz9azqabhzdmp7","","null","","sounds/A/TD/ME_09_TD.mp3","","null","","","TD_SUMMARY","","","","","","","","","","ME","","2400,7800,9600,13200","3","2400","7800","9600","13200","null","null","null","null","","1","","","","","",""
"html-button-response","307","4577348","0.0-8.0-2.0-0.9","1","0","zbz9azqabhzdmp7","","5108.800000011921","","<p>Trial 10 of 36</p>","0","","","","","","","","","","","","","","PU","sounds/syllables/pu_SWS.wav","1200,5700,7500,9300","2","","","","","","","","","","","","","","","",""
"html-keyboard-response","308","4578527","0.0-8.0-2.0-1.9","1","0","zbz9azqabhzdmp7","","1177.6000000238419","","","","80","","","","","","","","","","","","","PU","","1200,5700,7500,9300","2","","","","","","","","","","","","","","","",""
"audio-keyboard-response","309","4578835","0.0-8.0-2.0-2.11-0.11","1","0","zbz9azqabhzdmp7","","null","","sounds/syllables/pu_SWS.wav","","null","","","","","","","","","","","","","","","","","","","","","","","","","","","","","","","",""
"html-keyboard-response","310","4579367","0.0-8.0-2.0-2.11-1.11","1","0","zbz9azqabhzdmp7","","530.5999999642372","","<p>To replay the <u>TARGET SOUND</u>, press P.</p> When you are ready to begin, press SPACEBAR.","","32","","","","","","","","","","","","","","","","","","","","","","","","","","","","","","","",""
"audio-keyboard-response","311","4594316","0.0-8.0-2.0-3.9","1","0","zbz9azqabhzdmp7","","461","","sounds/A/TD/PU_04_TD.mp3","","32","","","TD_SUMMARY","","","","","","","","","","PU","","1200,5700,7500,9300","2","1200","5700","7500","9300","267.60000002384186","null","null","null","________________________________________________________________________________________________________________________________________________________________________________________________________________________________456.89999997615814_999.6999999880791_1259.3999999761581_1467.6000000238419","1","","","","","",""
"html-button-response","312","4595495","0.0-8.0-2.0-0.10","1","0","zbz9azqabhzdmp7","","1176.5","","<p>Trial 11 of 36</p>","0","","","","","","","","","","","","","","NI","sounds/syllables/ni_SWS.wav","4200,6900,9600,11400","3","","","","","","","","","","","","","","","",""
"html-keyboard-response","313","4596883","0.0-8.0-2.0-1.10","1","0","zbz9azqabhzdmp7","","1387","","","","80","","","","","","","","","","","","","NI","","4200,6900,9600,11400","3","","","","","","","","","","","","","","","",""
"audio-keyboard-response","314","4597185","0.0-8.0-2.0-2.12-0.12","1","0","zbz9azqabhzdmp7","","null","","sounds/syllables/ni_SWS.wav","","null","","","","","","","","","","","","","","","","","","","","","","","","","","","","","","","",""
"html-keyboard-response","315","4597811","0.0-8.0-2.0-2.12-1.12","1","0","zbz9azqabhzdmp7","","625.2999999523163","","<p>To replay the <u>TARGET SOUND</u>, press P.</p> When you are ready to begin, press SPACEBAR.","","32","","","","","","","","","","","","","","","","","","","","","","","","","","","","","","","",""
"audio-keyboard-response","316","4612765","0.0-8.0-2.0-3.10","1","0","zbz9azqabhzdmp7","","6691","","sounds/A/TD/NI_02_TD.mp3","","32","","","TD_SUMMARY","","","","","","","","","","NI","","4200,6900,9600,11400","3","4200","6900","9600","11400","null","null","null","null","____________________________________________________________________________________________________________________________________________________________________________________________________________________________________6686.600000023842_6842.5","1","","","","","",""
"html-button-response","317","4614469","0.0-8.0-2.0-0.11","1","0","zbz9azqabhzdmp7","","1700.5999999642372","","<p>Trial 12 of 36</p>","0","","","","","","","","","","","","","","GE","sounds/syllables/ge_SWS.wav","3000,7500,9300,11100","2","","","","","","","","","","","","","","","",""
"html-keyboard-response","318","4615522","0.0-8.0-2.0-1.11","1","0","zbz9azqabhzdmp7","","1051.6000000238419","","","","80","","","","","","","","","","","","","GE","","3000,7500,9300,11100","2","","","","","","","","","","","","","","","",""
"audio-keyboard-response","319","4615825","0.0-8.0-2.0-2.13-0.13","1","0","zbz9azqabhzdmp7","","null","","sounds/syllables/ge_SWS.wav","","null","","","","","","","","","","","","","","","","","","","","","","","","","","","","","","","",""
"html-keyboard-response","320","4616544","0.0-8.0-2.0-2.13-1.13","1","0","zbz9azqabhzdmp7","","718.0999999642372","","<p>To replay the <u>TARGET SOUND</u>, press P.</p> When you are ready to begin, press SPACEBAR.","","32","","","","","","","","","","","","","","","","","","","","","","","","","","","","","","","",""
"audio-keyboard-response","321","4631506","0.0-8.0-2.0-3.11","1","0","zbz9azqabhzdmp7","","512","","sounds/A/TD/GE_03_TD.mp3","","80","","","TD_SUMMARY","","","","","","","","","","GE","","3000,7500,9300,11100","2","3000","7500","9300","11100","1195.699999988079","null","null","null","______________________________________________________________________________________________________________________________________________________________________________________________________________________________________3037.599999964237_3499_3697.300000011921_3887.699999988079_4195.699999988079_4722.5_4979.599999964237","1","","","","","",""
