"trial_type","trial_index","time_elapsed","internal_node_id","counterbalance","lang_instruct","ParticipantID","view_history","rt","url","stimulus","button_pressed","key_press","correctRESP","correct","designation","location","correctanswer","responses","sentence","keywords","typed_resp","keyword1_acc","keyword2_acc","keyword3_acc","keyword4_acc","keyword5_acc","total_acc","prop_acc","timeouts","pause_rt01","pause_rt02","train_file","numKeyPress","sound","fam_type","SYLLABLE","EXEMPLAR","TD_LOCS","TD_TYPE","TDLOC_01","TDLOC_02","TDLOC_03","TDLOC_04","TD_RT_01","TD_RT_02","TD_RT_03","TD_RT_04","TD_SUBJ_RTs","number_of_plays","slider_start","response","question_order","syllable","syllable_type"
"pavlovia","0","4","0.0-0.0","3","1","rj63xxeamfpoxnp","","","","","","","","","","","","","","","","","","","","","","","","","","","","","","","","","","","","","","","","","","","","","","","",""
"instructions","1","13670","0.0-1.0","3","1","rj63xxeamfpoxnp","[{""page_index"":0,""viewing_time"":3157.0999999940395},{""page_index"":1,""viewing_time"":10505.200000017881}]","13665.200000017881","","","","","","","","","","","","","","","","","","","","","","","","","","","","","","","","","","","","","","","","","","","","","",""
"external-html","2","19010","0.0-2.0","3","1","rj63xxeamfpoxnp","","5013.9000000059605","consent/consent.html","","","","","","","","","","","","","","","","","","","","","","","","","","","","","","","","","","","","","","","","","","","","",""
"html-button-response","3","25284","0.0-3.0-0.0-0.0","3","1","rj63xxeamfpoxnp","","6271.0999999940395","","<p>Welcome to the study. You will first complete a short volume calibration and headphone check.</p><p>Please make sure you are in a quiet listening environment, that you are wearing headphones, and that your computer's volume is turned on.<p></p>","0","","","","","","","","","","","","","","","","","","","","","","","","","","","","","","","","","","","","","","","","","","",""
"html-button-response","4","32323","0.0-3.0-0.0-1.0","3","1","rj63xxeamfpoxnp","","6786.700000017881","","<p>The volume calibration will be first.</p><p>You will hear a thirty-second noise. Please adjust your computer's volume so that this noise is being presented at a comfortable level.<p></p>","0","","","","","","","","","","","","","","","","","","","","","","","","","","","","","","","","","","","","","","","","","","",""
"audio-button-response","5","39399","0.0-3.0-0.0-2.0","3","1","rj63xxeamfpoxnp","","6800","","audCalib/volumetest.mp3","0","","","","","","","","","","","","","","","","","","","","","","","","","","","","","","","","","","","","","","","","","","",""
"html-button-response","6","45499","0.0-3.0-1.0-0.0","3","1","rj63xxeamfpoxnp","","6098.600000023842","","<p>You will now complete a short headphone check.</p><p>On each trial, you will hear three tones. One of these tones will be quieter than the others. Your task is to identify whether the quiet tone occured first, second, or third.</p><p>There are six trials in total.<p></p>","0","","","","","","","","","","","","","","","","","","","","","","","","","","","","","","","","","","","","","","","","","","",""
"html-keyboard-response","7","46269","0.0-3.0-1.0-1.0-0.0","3","1","rj63xxeamfpoxnp","","null","","<div style=""font-size:60px;"">+</div>","","null","","","","","","","","","","","","","","","","","","","","","","","","","","","","","","","","","","","","","","","","","",""
"audio-button-response","8","50763","0.0-3.0-1.0-1.0-1.0","3","1","rj63xxeamfpoxnp","","4488","","audCalib/t3_2.mp3","2","","2","1","headphone-test","","","","","","","","","","","","","","","","","","","","","","","","","","","","","","","","","","","","","","",""
"html-keyboard-response","9","51532","0.0-3.0-1.0-1.0-0.1","3","1","rj63xxeamfpoxnp","","null","","<div style=""font-size:60px;"">+</div>","","null","","","","","","","","","","","","","","","","","","","","","","","","","","","","","","","","","","","","","","","","","",""
"audio-button-response","10","56251","0.0-3.0-1.0-1.0-1.1","3","1","rj63xxeamfpoxnp","","4720","","audCalib/t1_2.mp3","0","","0","1","headphone-test","","","","","","","","","","","","","","","","","","","","","","","","","","","","","","","","","","","","","","",""
"html-keyboard-response","11","57023","0.0-3.0-1.0-1.0-0.2","3","1","rj63xxeamfpoxnp","","null","","<div style=""font-size:60px;"">+</div>","","null","","","","","","","","","","","","","","","","","","","","","","","","","","","","","","","","","","","","","","","","","",""
"audio-button-response","12","61370","0.0-3.0-1.0-1.0-1.2","3","1","rj63xxeamfpoxnp","","4339","","audCalib/t3_1.mp3","2","","2","1","headphone-test","","","","","","","","","","","","","","","","","","","","","","","","","","","","","","","","","","","","","","",""
"html-keyboard-response","13","62143","0.0-3.0-1.0-1.0-0.3","3","1","rj63xxeamfpoxnp","","null","","<div style=""font-size:60px;"">+</div>","","null","","","","","","","","","","","","","","","","","","","","","","","","","","","","","","","","","","","","","","","","","",""
"audio-button-response","14","66675","0.0-3.0-1.0-1.0-1.3","3","1","rj63xxeamfpoxnp","","4528","","audCalib/t2_1.mp3","1","","1","1","headphone-test","","","","","","","","","","","","","","","","","","","","","","","","","","","","","","","","","","","","","","",""
"html-keyboard-response","15","67439","0.0-3.0-1.0-1.0-0.4","3","1","rj63xxeamfpoxnp","","null","","<div style=""font-size:60px;"">+</div>","","null","","","","","","","","","","","","","","","","","","","","","","","","","","","","","","","","","","","","","","","","","",""
"audio-button-response","16","71924","0.0-3.0-1.0-1.0-1.4","3","1","rj63xxeamfpoxnp","","4480","","audCalib/t1_1.mp3","0","","0","1","headphone-test","","","","","","","","","","","","","","","","","","","","","","","","","","","","","","","","","","","","","","",""
"html-keyboard-response","17","72698","0.0-3.0-1.0-1.0-0.5","3","1","rj63xxeamfpoxnp","","null","","<div style=""font-size:60px;"">+</div>","","null","","","","","","","","","","","","","","","","","","","","","","","","","","","","","","","","","","","","","","","","","",""
"audio-button-response","18","77027","0.0-3.0-1.0-1.0-1.5","3","1","rj63xxeamfpoxnp","","4331","","audCalib/t2_2.mp3","1","","1","1","headphone-test","","","","","","","","","","","","","","","","","","","","","","","","","","","","","","","","","","","","","","",""
"html-button-response","19","78947","0.0-3.0-2.0","3","1","rj63xxeamfpoxnp","","1651.5999999940395","","<p>The volume calibration and headphone check are now complete.</p>","0","","","","","","","","","","","","","","","","","","","","","","","","","","","","","","","","","","","","","","","","","","",""
"instructions","20","91483","0.0-4.0-0.0","3","1","rj63xxeamfpoxnp","[{""page_index"":0,""viewing_time"":2455},{""page_index"":1,""viewing_time"":8544.09999999404},{""page_index"":2,""viewing_time"":1536}]","12535.5","","","","","","","","","","","","","","","","","","","","","","","","","","","","","","","","","","","","","","","","","","","","","",""
"audio-keyboard-response","21","91783","0.0-4.0-1.0-0.0","3","1","rj63xxeamfpoxnp","","null","","sounds/induction/left/fu_SWS.wav","","null","","","","","","","","","","","","","","","","","","","","","","","","","","","","","","","","","","","","","","","","","",""
"html-button-response","22","96467","0.0-4.0-1.0-1.0","3","1","rj63xxeamfpoxnp","","4682.600000023842","","What sound did you hear?","1","","","1","INDUCTION-JUDGMENT","left","1","","","","","","","","","","","","","","","","","","","","","","","","","","","","","","","","","","","","",""
"html-keyboard-response","23","97471","0.0-4.0-1.0-2.0","3","1","rj63xxeamfpoxnp","","null","","<p style=""color:green;""><b>Correct!</b></p>","","null","","","","","","","","","","","","","","","","","","","","","","","","","","","","","","","","","","","","","","","","","",""
"audio-keyboard-response","24","98294","0.0-4.0-1.0-0.1","3","1","rj63xxeamfpoxnp","","null","","sounds/induction/right/ko_SWS.wav","","null","","","","","","","","","","","","","","","","","","","","","","","","","","","","","","","","","","","","","","","","","",""
"html-button-response","25","101700","0.0-4.0-1.0-1.1","3","1","rj63xxeamfpoxnp","","3405.4000000059605","","What sound did you hear?","1","","","0","INDUCTION-JUDGMENT","right","0","","","","","","","","","","","","","","","","","","","","","","","","","","","","","","","","","","","","",""
"html-keyboard-response","26","102702","0.0-4.0-1.0-2.1","3","1","rj63xxeamfpoxnp","","null","","<p style=""color:red;""><b>Incorrect!</b></p>","","null","","","","","","","","","","","","","","","","","","","","","","","","","","","","","","","","","","","","","","","","","",""
"audio-keyboard-response","27","103493","0.0-4.0-1.0-0.2","3","1","rj63xxeamfpoxnp","","null","","sounds/induction/right/su_SWS.wav","","null","","","","","","","","","","","","","","","","","","","","","","","","","","","","","","","","","","","","","","","","","",""
"html-button-response","28","105026","0.0-4.0-1.0-1.2","3","1","rj63xxeamfpoxnp","","1532","","What sound did you hear?","0","","","0","INDUCTION-JUDGMENT","right","1","","","","","","","","","","","","","","","","","","","","","","","","","","","","","","","","","","","","",""
"html-keyboard-response","29","106043","0.0-4.0-1.0-2.2","3","1","rj63xxeamfpoxnp","","null","","<p style=""color:red;""><b>Incorrect!</b></p>","","null","","","","","","","","","","","","","","","","","","","","","","","","","","","","","","","","","","","","","","","","","",""
"audio-keyboard-response","30","106854","0.0-4.0-1.0-0.3","3","1","rj63xxeamfpoxnp","","null","","sounds/induction/right/fu_SWS.wav","","null","","","","","","","","","","","","","","","","","","","","","","","","","","","","","","","","","","","","","","","","","",""
"html-button-response","31","108298","0.0-4.0-1.0-1.3","3","1","rj63xxeamfpoxnp","","1442.699999988079","","What sound did you hear?","0","","","1","INDUCTION-JUDGMENT","right","0","","","","","","","","","","","","","","","","","","","","","","","","","","","","","","","","","","","","",""
"html-keyboard-response","32","109300","0.0-4.0-1.0-2.3","3","1","rj63xxeamfpoxnp","","null","","<p style=""color:green;""><b>Correct!</b></p>","","null","","","","","","","","","","","","","","","","","","","","","","","","","","","","","","","","","","","","","","","","","",""
"audio-keyboard-response","33","110125","0.0-4.0-1.0-0.4","3","1","rj63xxeamfpoxnp","","null","","sounds/induction/left/ti_SWS.wav","","null","","","","","","","","","","","","","","","","","","","","","","","","","","","","","","","","","","","","","","","","","",""
"html-button-response","34","111836","0.0-4.0-1.0-1.4","3","1","rj63xxeamfpoxnp","","1709.9000000059605","","What sound did you hear?","0","","","1","INDUCTION-JUDGMENT","left","0","","","","","","","","","","","","","","","","","","","","","","","","","","","","","","","","","","","","",""
"html-keyboard-response","35","112849","0.0-4.0-1.0-2.4","3","1","rj63xxeamfpoxnp","","null","","<p style=""color:green;""><b>Correct!</b></p>","","null","","","","","","","","","","","","","","","","","","","","","","","","","","","","","","","","","","","","","","","","","",""
"audio-keyboard-response","36","113655","0.0-4.0-1.0-0.5","3","1","rj63xxeamfpoxnp","","null","","sounds/induction/left/ge_SWS.wav","","null","","","","","","","","","","","","","","","","","","","","","","","","","","","","","","","","","","","","","","","","","",""
"html-button-response","37","115844","0.0-4.0-1.0-1.5","3","1","rj63xxeamfpoxnp","","2188.2999999821186","","What sound did you hear?","0","","","0","INDUCTION-JUDGMENT","left","1","","","","","","","","","","","","","","","","","","","","","","","","","","","","","","","","","","","","",""
"html-keyboard-response","38","116851","0.0-4.0-1.0-2.5","3","1","rj63xxeamfpoxnp","","null","","<p style=""color:red;""><b>Incorrect!</b></p>","","null","","","","","","","","","","","","","","","","","","","","","","","","","","","","","","","","","","","","","","","","","",""
"audio-keyboard-response","39","117665","0.0-4.0-1.0-0.6","3","1","rj63xxeamfpoxnp","","null","","sounds/induction/left/ko_SWS.wav","","null","","","","","","","","","","","","","","","","","","","","","","","","","","","","","","","","","","","","","","","","","",""
"html-button-response","40","120156","0.0-4.0-1.0-1.6","3","1","rj63xxeamfpoxnp","","2490.7999999821186","","What sound did you hear?","1","","","1","INDUCTION-JUDGMENT","left","1","","","","","","","","","","","","","","","","","","","","","","","","","","","","","","","","","","","","",""
"html-keyboard-response","41","121160","0.0-4.0-1.0-2.6","3","1","rj63xxeamfpoxnp","","null","","<p style=""color:green;""><b>Correct!</b></p>","","null","","","","","","","","","","","","","","","","","","","","","","","","","","","","","","","","","","","","","","","","","",""
"audio-keyboard-response","42","121975","0.0-4.0-1.0-0.7","3","1","rj63xxeamfpoxnp","","null","","sounds/induction/left/ge_SWS.wav","","null","","","","","","","","","","","","","","","","","","","","","","","","","","","","","","","","","","","","","","","","","",""
"html-button-response","43","124972","0.0-4.0-1.0-1.7","3","1","rj63xxeamfpoxnp","","2996.300000011921","","What sound did you hear?","1","","","1","INDUCTION-JUDGMENT","left","1","","","","","","","","","","","","","","","","","","","","","","","","","","","","","","","","","","","","",""
"html-keyboard-response","44","125974","0.0-4.0-1.0-2.7","3","1","rj63xxeamfpoxnp","","null","","<p style=""color:green;""><b>Correct!</b></p>","","null","","","","","","","","","","","","","","","","","","","","","","","","","","","","","","","","","","","","","","","","","",""
"audio-keyboard-response","45","126785","0.0-4.0-1.0-0.8","3","1","rj63xxeamfpoxnp","","null","","sounds/induction/left/fe_SWS.wav","","null","","","","","","","","","","","","","","","","","","","","","","","","","","","","","","","","","","","","","","","","","",""
"html-button-response","46","128412","0.0-4.0-1.0-1.8","3","1","rj63xxeamfpoxnp","","1626.7999999821186","","What sound did you hear?","0","","","0","INDUCTION-JUDGMENT","left","1","","","","","","","","","","","","","","","","","","","","","","","","","","","","","","","","","","","","",""
"html-keyboard-response","47","129421","0.0-4.0-1.0-2.8","3","1","rj63xxeamfpoxnp","","null","","<p style=""color:red;""><b>Incorrect!</b></p>","","null","","","","","","","","","","","","","","","","","","","","","","","","","","","","","","","","","","","","","","","","","",""
"audio-keyboard-response","48","130224","0.0-4.0-1.0-0.9","3","1","rj63xxeamfpoxnp","","null","","sounds/induction/right/pu_SWS.wav","","null","","","","","","","","","","","","","","","","","","","","","","","","","","","","","","","","","","","","","","","","","",""
"html-button-response","49","133828","0.0-4.0-1.0-1.9","3","1","rj63xxeamfpoxnp","","3603.199999988079","","What sound did you hear?","1","","","1","INDUCTION-JUDGMENT","right","1","","","","","","","","","","","","","","","","","","","","","","","","","","","","","","","","","","","","",""
"html-keyboard-response","50","134840","0.0-4.0-1.0-2.9","3","1","rj63xxeamfpoxnp","","null","","<p style=""color:green;""><b>Correct!</b></p>","","null","","","","","","","","","","","","","","","","","","","","","","","","","","","","","","","","","","","","","","","","","",""
"audio-keyboard-response","51","135645","0.0-4.0-1.0-0.10","3","1","rj63xxeamfpoxnp","","null","","sounds/induction/left/ru_SWS.wav","","null","","","","","","","","","","","","","","","","","","","","","","","","","","","","","","","","","","","","","","","","","",""
"html-button-response","52","137412","0.0-4.0-1.0-1.10","3","1","rj63xxeamfpoxnp","","1766.800000011921","","What sound did you hear?","0","","","1","INDUCTION-JUDGMENT","left","0","","","","","","","","","","","","","","","","","","","","","","","","","","","","","","","","","","","","",""
"html-keyboard-response","53","138421","0.0-4.0-1.0-2.10","3","1","rj63xxeamfpoxnp","","null","","<p style=""color:green;""><b>Correct!</b></p>","","null","","","","","","","","","","","","","","","","","","","","","","","","","","","","","","","","","","","","","","","","","",""
"audio-keyboard-response","54","139225","0.0-4.0-1.0-0.11","3","1","rj63xxeamfpoxnp","","null","","sounds/induction/right/ti_SWS.wav","","null","","","","","","","","","","","","","","","","","","","","","","","","","","","","","","","","","","","","","","","","","",""
"html-button-response","55","140348","0.0-4.0-1.0-1.11","3","1","rj63xxeamfpoxnp","","1121.800000011921","","What sound did you hear?","1","","","1","INDUCTION-JUDGMENT","right","1","","","","","","","","","","","","","","","","","","","","","","","","","","","","","","","","","","","","",""
"html-keyboard-response","56","141363","0.0-4.0-1.0-2.11","3","1","rj63xxeamfpoxnp","","null","","<p style=""color:green;""><b>Correct!</b></p>","","null","","","","","","","","","","","","","","","","","","","","","","","","","","","","","","","","","","","","","","","","","",""
"audio-keyboard-response","57","142174","0.0-4.0-1.0-0.12","3","1","rj63xxeamfpoxnp","","null","","sounds/induction/right/ta_SWS.wav","","null","","","","","","","","","","","","","","","","","","","","","","","","","","","","","","","","","","","","","","","","","",""
"html-button-response","58","144340","0.0-4.0-1.0-1.12","3","1","rj63xxeamfpoxnp","","2165.5","","What sound did you hear?","1","","","1","INDUCTION-JUDGMENT","right","1","","","","","","","","","","","","","","","","","","","","","","","","","","","","","","","","","","","","",""
"html-keyboard-response","59","145354","0.0-4.0-1.0-2.12","3","1","rj63xxeamfpoxnp","","null","","<p style=""color:green;""><b>Correct!</b></p>","","null","","","","","","","","","","","","","","","","","","","","","","","","","","","","","","","","","","","","","","","","","",""
"audio-keyboard-response","60","146175","0.0-4.0-1.0-0.13","3","1","rj63xxeamfpoxnp","","null","","sounds/induction/right/ni_SWS.wav","","null","","","","","","","","","","","","","","","","","","","","","","","","","","","","","","","","","","","","","","","","","",""
"html-button-response","61","148172","0.0-4.0-1.0-1.13","3","1","rj63xxeamfpoxnp","","1996.4000000059605","","What sound did you hear?","0","","","1","INDUCTION-JUDGMENT","right","0","","","","","","","","","","","","","","","","","","","","","","","","","","","","","","","","","","","","",""
"html-keyboard-response","62","149185","0.0-4.0-1.0-2.13","3","1","rj63xxeamfpoxnp","","null","","<p style=""color:green;""><b>Correct!</b></p>","","null","","","","","","","","","","","","","","","","","","","","","","","","","","","","","","","","","","","","","","","","","",""
"audio-keyboard-response","63","150005","0.0-4.0-1.0-0.14","3","1","rj63xxeamfpoxnp","","null","","sounds/induction/left/fu_SWS.wav","","null","","","","","","","","","","","","","","","","","","","","","","","","","","","","","","","","","","","","","","","","","",""
"html-button-response","64","151820","0.0-4.0-1.0-1.14","3","1","rj63xxeamfpoxnp","","1814","","What sound did you hear?","1","","","1","INDUCTION-JUDGMENT","left","1","","","","","","","","","","","","","","","","","","","","","","","","","","","","","","","","","","","","",""
"html-keyboard-response","65","152823","0.0-4.0-1.0-2.14","3","1","rj63xxeamfpoxnp","","null","","<p style=""color:green;""><b>Correct!</b></p>","","null","","","","","","","","","","","","","","","","","","","","","","","","","","","","","","","","","","","","","","","","","",""
"audio-keyboard-response","66","153645","0.0-4.0-1.0-0.15","3","1","rj63xxeamfpoxnp","","null","","sounds/induction/right/pu_SWS.wav","","null","","","","","","","","","","","","","","","","","","","","","","","","","","","","","","","","","","","","","","","","","",""
"html-button-response","67","154612","0.0-4.0-1.0-1.15","3","1","rj63xxeamfpoxnp","","965.6999999880791","","What sound did you hear?","1","","","1","INDUCTION-JUDGMENT","right","1","","","","","","","","","","","","","","","","","","","","","","","","","","","","","","","","","","","","",""
"html-keyboard-response","68","155619","0.0-4.0-1.0-2.15","3","1","rj63xxeamfpoxnp","","null","","<p style=""color:green;""><b>Correct!</b></p>","","null","","","","","","","","","","","","","","","","","","","","","","","","","","","","","","","","","","","","","","","","","",""
"audio-keyboard-response","69","156425","0.0-4.0-1.0-0.16","3","1","rj63xxeamfpoxnp","","null","","sounds/induction/right/re_SWS.wav","","null","","","","","","","","","","","","","","","","","","","","","","","","","","","","","","","","","","","","","","","","","",""
"html-button-response","70","158412","0.0-4.0-1.0-1.16","3","1","rj63xxeamfpoxnp","","1986.0999999940395","","What sound did you hear?","1","","","1","INDUCTION-JUDGMENT","right","1","","","","","","","","","","","","","","","","","","","","","","","","","","","","","","","","","","","","",""
"html-keyboard-response","71","159427","0.0-4.0-1.0-2.16","3","1","rj63xxeamfpoxnp","","null","","<p style=""color:green;""><b>Correct!</b></p>","","null","","","","","","","","","","","","","","","","","","","","","","","","","","","","","","","","","","","","","","","","","",""
"audio-keyboard-response","72","160225","0.0-4.0-1.0-0.17","3","1","rj63xxeamfpoxnp","","null","","sounds/induction/left/fe_SWS.wav","","null","","","","","","","","","","","","","","","","","","","","","","","","","","","","","","","","","","","","","","","","","",""
"html-button-response","73","161716","0.0-4.0-1.0-1.17","3","1","rj63xxeamfpoxnp","","1491","","What sound did you hear?","0","","","0","INDUCTION-JUDGMENT","left","1","","","","","","","","","","","","","","","","","","","","","","","","","","","","","","","","","","","","",""
"html-keyboard-response","74","162718","0.0-4.0-1.0-2.17","3","1","rj63xxeamfpoxnp","","null","","<p style=""color:red;""><b>Incorrect!</b></p>","","null","","","","","","","","","","","","","","","","","","","","","","","","","","","","","","","","","","","","","","","","","",""
"audio-keyboard-response","75","163525","0.0-4.0-1.0-0.18","3","1","rj63xxeamfpoxnp","","null","","sounds/induction/left/ni_SWS.wav","","null","","","","","","","","","","","","","","","","","","","","","","","","","","","","","","","","","","","","","","","","","",""
"html-button-response","76","165892","0.0-4.0-1.0-1.18","3","1","rj63xxeamfpoxnp","","2366.0999999940395","","What sound did you hear?","1","","","1","INDUCTION-JUDGMENT","left","1","","","","","","","","","","","","","","","","","","","","","","","","","","","","","","","","","","","","",""
"html-keyboard-response","77","166898","0.0-4.0-1.0-2.18","3","1","rj63xxeamfpoxnp","","null","","<p style=""color:green;""><b>Correct!</b></p>","","null","","","","","","","","","","","","","","","","","","","","","","","","","","","","","","","","","","","","","","","","","",""
"audio-keyboard-response","78","167705","0.0-4.0-1.0-0.19","3","1","rj63xxeamfpoxnp","","null","","sounds/induction/left/ta_SWS.wav","","null","","","","","","","","","","","","","","","","","","","","","","","","","","","","","","","","","","","","","","","","","",""
"html-button-response","79","169788","0.0-4.0-1.0-1.19","3","1","rj63xxeamfpoxnp","","2082.2000000178814","","What sound did you hear?","1","","","0","INDUCTION-JUDGMENT","left","0","","","","","","","","","","","","","","","","","","","","","","","","","","","","","","","","","","","","",""
"html-keyboard-response","80","170800","0.0-4.0-1.0-2.19","3","1","rj63xxeamfpoxnp","","null","","<p style=""color:red;""><b>Incorrect!</b></p>","","null","","","","","","","","","","","","","","","","","","","","","","","","","","","","","","","","","","","","","","","","","",""
"audio-keyboard-response","81","171616","0.0-4.0-1.0-0.20","3","1","rj63xxeamfpoxnp","","null","","sounds/induction/right/ge_SWS.wav","","null","","","","","","","","","","","","","","","","","","","","","","","","","","","","","","","","","","","","","","","","","",""
"html-button-response","82","172882","0.0-4.0-1.0-1.20","3","1","rj63xxeamfpoxnp","","1266.4000000059605","","What sound did you hear?","0","","","1","INDUCTION-JUDGMENT","right","0","","","","","","","","","","","","","","","","","","","","","","","","","","","","","","","","","","","","",""
"html-keyboard-response","83","173885","0.0-4.0-1.0-2.20","3","1","rj63xxeamfpoxnp","","null","","<p style=""color:green;""><b>Correct!</b></p>","","null","","","","","","","","","","","","","","","","","","","","","","","","","","","","","","","","","","","","","","","","","",""
"audio-keyboard-response","84","174695","0.0-4.0-1.0-0.21","3","1","rj63xxeamfpoxnp","","null","","sounds/induction/left/ko_SWS.wav","","null","","","","","","","","","","","","","","","","","","","","","","","","","","","","","","","","","","","","","","","","","",""
"html-button-response","85","177277","0.0-4.0-1.0-1.21","3","1","rj63xxeamfpoxnp","","2581","","What sound did you hear?","1","","","1","INDUCTION-JUDGMENT","left","1","","","","","","","","","","","","","","","","","","","","","","","","","","","","","","","","","","","","",""
"html-keyboard-response","86","178278","0.0-4.0-1.0-2.21","3","1","rj63xxeamfpoxnp","","null","","<p style=""color:green;""><b>Correct!</b></p>","","null","","","","","","","","","","","","","","","","","","","","","","","","","","","","","","","","","","","","","","","","","",""
"audio-keyboard-response","87","179085","0.0-4.0-1.0-0.22","3","1","rj63xxeamfpoxnp","","null","","sounds/induction/right/ru_SWS.wav","","null","","","","","","","","","","","","","","","","","","","","","","","","","","","","","","","","","","","","","","","","","",""
"html-button-response","88","181053","0.0-4.0-1.0-1.22","3","1","rj63xxeamfpoxnp","","1966.7999999821186","","What sound did you hear?","1","","","1","INDUCTION-JUDGMENT","right","1","","","","","","","","","","","","","","","","","","","","","","","","","","","","","","","","","","","","",""
"html-keyboard-response","89","182056","0.0-4.0-1.0-2.22","3","1","rj63xxeamfpoxnp","","null","","<p style=""color:green;""><b>Correct!</b></p>","","null","","","","","","","","","","","","","","","","","","","","","","","","","","","","","","","","","","","","","","","","","",""
"audio-keyboard-response","90","182865","0.0-4.0-1.0-0.23","3","1","rj63xxeamfpoxnp","","null","","sounds/induction/left/re_SWS.wav","","null","","","","","","","","","","","","","","","","","","","","","","","","","","","","","","","","","","","","","","","","","",""
"html-button-response","91","184236","0.0-4.0-1.0-1.23","3","1","rj63xxeamfpoxnp","","1370.4000000059605","","What sound did you hear?","0","","","1","INDUCTION-JUDGMENT","left","0","","","","","","","","","","","","","","","","","","","","","","","","","","","","","","","","","","","","",""
"html-keyboard-response","92","185252","0.0-4.0-1.0-2.23","3","1","rj63xxeamfpoxnp","","null","","<p style=""color:green;""><b>Correct!</b></p>","","null","","","","","","","","","","","","","","","","","","","","","","","","","","","","","","","","","","","","","","","","","",""
"audio-keyboard-response","93","186085","0.0-4.0-1.0-0.24","3","1","rj63xxeamfpoxnp","","null","","sounds/induction/left/ni_SWS.wav","","null","","","","","","","","","","","","","","","","","","","","","","","","","","","","","","","","","","","","","","","","","",""
"html-button-response","94","189589","0.0-4.0-1.0-1.24","3","1","rj63xxeamfpoxnp","","3503","","What sound did you hear?","1","","","1","INDUCTION-JUDGMENT","left","1","","","","","","","","","","","","","","","","","","","","","","","","","","","","","","","","","","","","",""
"html-keyboard-response","95","190590","0.0-4.0-1.0-2.24","3","1","rj63xxeamfpoxnp","","null","","<p style=""color:green;""><b>Correct!</b></p>","","null","","","","","","","","","","","","","","","","","","","","","","","","","","","","","","","","","","","","","","","","","",""
"audio-keyboard-response","96","191405","0.0-4.0-1.0-0.25","3","1","rj63xxeamfpoxnp","","null","","sounds/induction/right/ru_SWS.wav","","null","","","","","","","","","","","","","","","","","","","","","","","","","","","","","","","","","","","","","","","","","",""
"html-button-response","97","192661","0.0-4.0-1.0-1.25","3","1","rj63xxeamfpoxnp","","1254.3999999761581","","What sound did you hear?","0","","","0","INDUCTION-JUDGMENT","right","1","","","","","","","","","","","","","","","","","","","","","","","","","","","","","","","","","","","","",""
"html-keyboard-response","98","193667","0.0-4.0-1.0-2.25","3","1","rj63xxeamfpoxnp","","null","","<p style=""color:red;""><b>Incorrect!</b></p>","","null","","","","","","","","","","","","","","","","","","","","","","","","","","","","","","","","","","","","","","","","","",""
"audio-keyboard-response","99","194485","0.0-4.0-1.0-0.26","3","1","rj63xxeamfpoxnp","","null","","sounds/induction/left/ta_SWS.wav","","null","","","","","","","","","","","","","","","","","","","","","","","","","","","","","","","","","","","","","","","","","",""
"html-button-response","100","196564","0.0-4.0-1.0-1.26","3","1","rj63xxeamfpoxnp","","2078.300000011921","","What sound did you hear?","1","","","0","INDUCTION-JUDGMENT","left","0","","","","","","","","","","","","","","","","","","","","","","","","","","","","","","","","","","","","",""
"html-keyboard-response","101","197567","0.0-4.0-1.0-2.26","3","1","rj63xxeamfpoxnp","","null","","<p style=""color:red;""><b>Incorrect!</b></p>","","null","","","","","","","","","","","","","","","","","","","","","","","","","","","","","","","","","","","","","","","","","",""
"audio-keyboard-response","102","198374","0.0-4.0-1.0-0.27","3","1","rj63xxeamfpoxnp","","null","","sounds/induction/left/ti_SWS.wav","","null","","","","","","","","","","","","","","","","","","","","","","","","","","","","","","","","","","","","","","","","","",""
"html-button-response","103","199788","0.0-4.0-1.0-1.27","3","1","rj63xxeamfpoxnp","","1413.2999999821186","","What sound did you hear?","0","","","1","INDUCTION-JUDGMENT","left","0","","","","","","","","","","","","","","","","","","","","","","","","","","","","","","","","","","","","",""
"html-keyboard-response","104","200791","0.0-4.0-1.0-2.27","3","1","rj63xxeamfpoxnp","","null","","<p style=""color:green;""><b>Correct!</b></p>","","null","","","","","","","","","","","","","","","","","","","","","","","","","","","","","","","","","","","","","","","","","",""
"audio-keyboard-response","105","201605","0.0-4.0-1.0-0.28","3","1","rj63xxeamfpoxnp","","null","","sounds/induction/left/ru_SWS.wav","","null","","","","","","","","","","","","","","","","","","","","","","","","","","","","","","","","","","","","","","","","","",""
"html-button-response","106","202725","0.0-4.0-1.0-1.28","3","1","rj63xxeamfpoxnp","","1119.300000011921","","What sound did you hear?","0","","","1","INDUCTION-JUDGMENT","left","0","","","","","","","","","","","","","","","","","","","","","","","","","","","","","","","","","","","","",""
"html-keyboard-response","107","203733","0.0-4.0-1.0-2.28","3","1","rj63xxeamfpoxnp","","null","","<p style=""color:green;""><b>Correct!</b></p>","","null","","","","","","","","","","","","","","","","","","","","","","","","","","","","","","","","","","","","","","","","","",""
"audio-keyboard-response","108","204545","0.0-4.0-1.0-0.29","3","1","rj63xxeamfpoxnp","","null","","sounds/induction/left/re_SWS.wav","","null","","","","","","","","","","","","","","","","","","","","","","","","","","","","","","","","","","","","","","","","","",""
"html-button-response","109","206637","0.0-4.0-1.0-1.29","3","1","rj63xxeamfpoxnp","","2090.7999999821186","","What sound did you hear?","0","","","1","INDUCTION-JUDGMENT","left","0","","","","","","","","","","","","","","","","","","","","","","","","","","","","","","","","","","","","",""
"html-keyboard-response","110","207649","0.0-4.0-1.0-2.29","3","1","rj63xxeamfpoxnp","","null","","<p style=""color:green;""><b>Correct!</b></p>","","null","","","","","","","","","","","","","","","","","","","","","","","","","","","","","","","","","","","","","","","","","",""
"audio-keyboard-response","111","208455","0.0-4.0-1.0-0.30","3","1","rj63xxeamfpoxnp","","null","","sounds/induction/right/ko_SWS.wav","","null","","","","","","","","","","","","","","","","","","","","","","","","","","","","","","","","","","","","","","","","","",""
"html-button-response","112","209565","0.0-4.0-1.0-1.30","3","1","rj63xxeamfpoxnp","","1109.0999999940395","","What sound did you hear?","0","","","1","INDUCTION-JUDGMENT","right","0","","","","","","","","","","","","","","","","","","","","","","","","","","","","","","","","","","","","",""
"html-keyboard-response","113","210578","0.0-4.0-1.0-2.30","3","1","rj63xxeamfpoxnp","","null","","<p style=""color:green;""><b>Correct!</b></p>","","null","","","","","","","","","","","","","","","","","","","","","","","","","","","","","","","","","","","","","","","","","",""
"audio-keyboard-response","114","211385","0.0-4.0-1.0-0.31","3","1","rj63xxeamfpoxnp","","null","","sounds/induction/right/ta_SWS.wav","","null","","","","","","","","","","","","","","","","","","","","","","","","","","","","","","","","","","","","","","","","","",""
"html-button-response","115","213373","0.0-4.0-1.0-1.31","3","1","rj63xxeamfpoxnp","","1986.800000011921","","What sound did you hear?","1","","","1","INDUCTION-JUDGMENT","right","1","","","","","","","","","","","","","","","","","","","","","","","","","","","","","","","","","","","","",""
"html-keyboard-response","116","214374","0.0-4.0-1.0-2.31","3","1","rj63xxeamfpoxnp","","null","","<p style=""color:green;""><b>Correct!</b></p>","","null","","","","","","","","","","","","","","","","","","","","","","","","","","","","","","","","","","","","","","","","","",""
"audio-keyboard-response","117","215176","0.0-4.0-1.0-0.32","3","1","rj63xxeamfpoxnp","","null","","sounds/induction/right/su_SWS.wav","","null","","","","","","","","","","","","","","","","","","","","","","","","","","","","","","","","","","","","","","","","","",""
"html-button-response","118","216693","0.0-4.0-1.0-1.32","3","1","rj63xxeamfpoxnp","","1516.2000000178814","","What sound did you hear?","0","","","0","INDUCTION-JUDGMENT","right","1","","","","","","","","","","","","","","","","","","","","","","","","","","","","","","","","","","","","",""
"html-keyboard-response","119","217702","0.0-4.0-1.0-2.32","3","1","rj63xxeamfpoxnp","","null","","<p style=""color:red;""><b>Incorrect!</b></p>","","null","","","","","","","","","","","","","","","","","","","","","","","","","","","","","","","","","","","","","","","","","",""
"audio-keyboard-response","120","218526","0.0-4.0-1.0-0.33","3","1","rj63xxeamfpoxnp","","null","","sounds/induction/left/su_SWS.wav","","null","","","","","","","","","","","","","","","","","","","","","","","","","","","","","","","","","","","","","","","","","",""
"html-button-response","121","221005","0.0-4.0-1.0-1.33","3","1","rj63xxeamfpoxnp","","2478.199999988079","","What sound did you hear?","1","","","0","INDUCTION-JUDGMENT","left","0","","","","","","","","","","","","","","","","","","","","","","","","","","","","","","","","","","","","",""
"html-keyboard-response","122","222011","0.0-4.0-1.0-2.33","3","1","rj63xxeamfpoxnp","","null","","<p style=""color:red;""><b>Incorrect!</b></p>","","null","","","","","","","","","","","","","","","","","","","","","","","","","","","","","","","","","","","","","","","","","",""
"audio-keyboard-response","123","222825","0.0-4.0-1.0-0.34","3","1","rj63xxeamfpoxnp","","null","","sounds/induction/right/ni_SWS.wav","","null","","","","","","","","","","","","","","","","","","","","","","","","","","","","","","","","","","","","","","","","","",""
"html-button-response","124","224580","0.0-4.0-1.0-1.34","3","1","rj63xxeamfpoxnp","","1754.1000000238419","","What sound did you hear?","0","","","1","INDUCTION-JUDGMENT","right","0","","","","","","","","","","","","","","","","","","","","","","","","","","","","","","","","","","","","",""
"html-keyboard-response","125","225585","0.0-4.0-1.0-2.34","3","1","rj63xxeamfpoxnp","","null","","<p style=""color:green;""><b>Correct!</b></p>","","null","","","","","","","","","","","","","","","","","","","","","","","","","","","","","","","","","","","","","","","","","",""
"audio-keyboard-response","126","226405","0.0-4.0-1.0-0.35","3","1","rj63xxeamfpoxnp","","null","","sounds/induction/left/me_SWS.wav","","null","","","","","","","","","","","","","","","","","","","","","","","","","","","","","","","","","","","","","","","","","",""
"html-button-response","127","228925","0.0-4.0-1.0-1.35","3","1","rj63xxeamfpoxnp","","2519.300000011921","","What sound did you hear?","1","","","1","INDUCTION-JUDGMENT","left","1","","","","","","","","","","","","","","","","","","","","","","","","","","","","","","","","","","","","",""
"html-keyboard-response","128","229936","0.0-4.0-1.0-2.35","3","1","rj63xxeamfpoxnp","","null","","<p style=""color:green;""><b>Correct!</b></p>","","null","","","","","","","","","","","","","","","","","","","","","","","","","","","","","","","","","","","","","","","","","",""
"audio-keyboard-response","129","230745","0.0-4.0-1.0-0.36","3","1","rj63xxeamfpoxnp","","null","","sounds/induction/right/fu_SWS.wav","","null","","","","","","","","","","","","","","","","","","","","","","","","","","","","","","","","","","","","","","","","","",""
"html-button-response","130","232276","0.0-4.0-1.0-1.36","3","1","rj63xxeamfpoxnp","","1529.800000011921","","What sound did you hear?","1","","","0","INDUCTION-JUDGMENT","right","0","","","","","","","","","","","","","","","","","","","","","","","","","","","","","","","","","","","","",""
"html-keyboard-response","131","233293","0.0-4.0-1.0-2.36","3","1","rj63xxeamfpoxnp","","null","","<p style=""color:red;""><b>Incorrect!</b></p>","","null","","","","","","","","","","","","","","","","","","","","","","","","","","","","","","","","","","","","","","","","","",""
"audio-keyboard-response","132","234105","0.0-4.0-1.0-0.37","3","1","rj63xxeamfpoxnp","","null","","sounds/induction/right/ti_SWS.wav","","null","","","","","","","","","","","","","","","","","","","","","","","","","","","","","","","","","","","","","","","","","",""
"html-button-response","133","235701","0.0-4.0-1.0-1.37","3","1","rj63xxeamfpoxnp","","1595.0999999940395","","What sound did you hear?","1","","","1","INDUCTION-JUDGMENT","right","1","","","","","","","","","","","","","","","","","","","","","","","","","","","","","","","","","","","","",""
"html-keyboard-response","134","236712","0.0-4.0-1.0-2.37","3","1","rj63xxeamfpoxnp","","null","","<p style=""color:green;""><b>Correct!</b></p>","","null","","","","","","","","","","","","","","","","","","","","","","","","","","","","","","","","","","","","","","","","","",""
"audio-keyboard-response","135","237506","0.0-4.0-1.0-0.38","3","1","rj63xxeamfpoxnp","","null","","sounds/induction/right/re_SWS.wav","","null","","","","","","","","","","","","","","","","","","","","","","","","","","","","","","","","","","","","","","","","","",""
"html-button-response","136","240653","0.0-4.0-1.0-1.38","3","1","rj63xxeamfpoxnp","","3146.4000000059605","","What sound did you hear?","1","","","1","INDUCTION-JUDGMENT","right","1","","","","","","","","","","","","","","","","","","","","","","","","","","","","","","","","","","","","",""
"html-keyboard-response","137","241669","0.0-4.0-1.0-2.38","3","1","rj63xxeamfpoxnp","","null","","<p style=""color:green;""><b>Correct!</b></p>","","null","","","","","","","","","","","","","","","","","","","","","","","","","","","","","","","","","","","","","","","","","",""
"audio-keyboard-response","138","242485","0.0-4.0-1.0-0.39","3","1","rj63xxeamfpoxnp","","null","","sounds/induction/right/fe_SWS.wav","","null","","","","","","","","","","","","","","","","","","","","","","","","","","","","","","","","","","","","","","","","","",""
"html-button-response","139","245021","0.0-4.0-1.0-1.39","3","1","rj63xxeamfpoxnp","","2535.2000000178814","","What sound did you hear?","0","","","1","INDUCTION-JUDGMENT","right","0","","","","","","","","","","","","","","","","","","","","","","","","","","","","","","","","","","","","",""
"html-keyboard-response","140","246036","0.0-4.0-1.0-2.39","3","1","rj63xxeamfpoxnp","","null","","<p style=""color:green;""><b>Correct!</b></p>","","null","","","","","","","","","","","","","","","","","","","","","","","","","","","","","","","","","","","","","","","","","",""
"audio-keyboard-response","141","246856","0.0-4.0-1.0-0.40","3","1","rj63xxeamfpoxnp","","null","","sounds/induction/left/su_SWS.wav","","null","","","","","","","","","","","","","","","","","","","","","","","","","","","","","","","","","","","","","","","","","",""
"html-button-response","142","249260","0.0-4.0-1.0-1.40","3","1","rj63xxeamfpoxnp","","2403.9000000059605","","What sound did you hear?","1","","","0","INDUCTION-JUDGMENT","left","0","","","","","","","","","","","","","","","","","","","","","","","","","","","","","","","","","","","","",""
"html-keyboard-response","143","250270","0.0-4.0-1.0-2.40","3","1","rj63xxeamfpoxnp","","null","","<p style=""color:red;""><b>Incorrect!</b></p>","","null","","","","","","","","","","","","","","","","","","","","","","","","","","","","","","","","","","","","","","","","","",""
"audio-keyboard-response","144","251085","0.0-4.0-1.0-0.41","3","1","rj63xxeamfpoxnp","","null","","sounds/induction/left/pu_SWS.wav","","null","","","","","","","","","","","","","","","","","","","","","","","","","","","","","","","","","","","","","","","","","",""
"html-button-response","145","252573","0.0-4.0-1.0-1.41","3","1","rj63xxeamfpoxnp","","1487.2000000178814","","What sound did you hear?","0","","","1","INDUCTION-JUDGMENT","left","0","","","","","","","","","","","","","","","","","","","","","","","","","","","","","","","","","","","","",""
"html-keyboard-response","146","253586","0.0-4.0-1.0-2.41","3","1","rj63xxeamfpoxnp","","null","","<p style=""color:green;""><b>Correct!</b></p>","","null","","","","","","","","","","","","","","","","","","","","","","","","","","","","","","","","","","","","","","","","","",""
"audio-keyboard-response","147","254405","0.0-4.0-1.0-0.42","3","1","rj63xxeamfpoxnp","","null","","sounds/induction/left/me_SWS.wav","","null","","","","","","","","","","","","","","","","","","","","","","","","","","","","","","","","","","","","","","","","","",""
"html-button-response","148","256117","0.0-4.0-1.0-1.42","3","1","rj63xxeamfpoxnp","","1710.699999988079","","What sound did you hear?","1","","","1","INDUCTION-JUDGMENT","left","1","","","","","","","","","","","","","","","","","","","","","","","","","","","","","","","","","","","","",""
"html-keyboard-response","149","257124","0.0-4.0-1.0-2.42","3","1","rj63xxeamfpoxnp","","null","","<p style=""color:green;""><b>Correct!</b></p>","","null","","","","","","","","","","","","","","","","","","","","","","","","","","","","","","","","","","","","","","","","","",""
"audio-keyboard-response","150","257935","0.0-4.0-1.0-0.43","3","1","rj63xxeamfpoxnp","","null","","sounds/induction/right/ge_SWS.wav","","null","","","","","","","","","","","","","","","","","","","","","","","","","","","","","","","","","","","","","","","","","",""
"html-button-response","151","260293","0.0-4.0-1.0-1.43","3","1","rj63xxeamfpoxnp","","2356.300000011921","","What sound did you hear?","0","","","1","INDUCTION-JUDGMENT","right","0","","","","","","","","","","","","","","","","","","","","","","","","","","","","","","","","","","","","",""
"html-keyboard-response","152","261304","0.0-4.0-1.0-2.43","3","1","rj63xxeamfpoxnp","","null","","<p style=""color:green;""><b>Correct!</b></p>","","null","","","","","","","","","","","","","","","","","","","","","","","","","","","","","","","","","","","","","","","","","",""
"audio-keyboard-response","153","262106","0.0-4.0-1.0-0.44","3","1","rj63xxeamfpoxnp","","null","","sounds/induction/right/me_SWS.wav","","null","","","","","","","","","","","","","","","","","","","","","","","","","","","","","","","","","","","","","","","","","",""
"html-button-response","154","264060","0.0-4.0-1.0-1.44","3","1","rj63xxeamfpoxnp","","1953","","What sound did you hear?","0","","","1","INDUCTION-JUDGMENT","right","0","","","","","","","","","","","","","","","","","","","","","","","","","","","","","","","","","","","","",""
"html-keyboard-response","155","265068","0.0-4.0-1.0-2.44","3","1","rj63xxeamfpoxnp","","null","","<p style=""color:green;""><b>Correct!</b></p>","","null","","","","","","","","","","","","","","","","","","","","","","","","","","","","","","","","","","","","","","","","","",""
"audio-keyboard-response","156","265886","0.0-4.0-1.0-0.45","3","1","rj63xxeamfpoxnp","","null","","sounds/induction/right/me_SWS.wav","","null","","","","","","","","","","","","","","","","","","","","","","","","","","","","","","","","","","","","","","","","","",""
"html-button-response","157","267093","0.0-4.0-1.0-1.45","3","1","rj63xxeamfpoxnp","","1206.7000000178814","","What sound did you hear?","0","","","1","INDUCTION-JUDGMENT","right","0","","","","","","","","","","","","","","","","","","","","","","","","","","","","","","","","","","","","",""
"html-keyboard-response","158","268097","0.0-4.0-1.0-2.45","3","1","rj63xxeamfpoxnp","","null","","<p style=""color:green;""><b>Correct!</b></p>","","null","","","","","","","","","","","","","","","","","","","","","","","","","","","","","","","","","","","","","","","","","",""
"audio-keyboard-response","159","268907","0.0-4.0-1.0-0.46","3","1","rj63xxeamfpoxnp","","null","","sounds/induction/left/pu_SWS.wav","","null","","","","","","","","","","","","","","","","","","","","","","","","","","","","","","","","","","","","","","","","","",""
"html-button-response","160","270149","0.0-4.0-1.0-1.46","3","1","rj63xxeamfpoxnp","","1241.699999988079","","What sound did you hear?","0","","","1","INDUCTION-JUDGMENT","left","0","","","","","","","","","","","","","","","","","","","","","","","","","","","","","","","","","","","","",""
"html-keyboard-response","161","271156","0.0-4.0-1.0-2.46","3","1","rj63xxeamfpoxnp","","null","","<p style=""color:green;""><b>Correct!</b></p>","","null","","","","","","","","","","","","","","","","","","","","","","","","","","","","","","","","","","","","","","","","","",""
"audio-keyboard-response","162","271976","0.0-4.0-1.0-0.47","3","1","rj63xxeamfpoxnp","","null","","sounds/induction/right/fe_SWS.wav","","null","","","","","","","","","","","","","","","","","","","","","","","","","","","","","","","","","","","","","","","","","",""
"html-button-response","163","273501","0.0-4.0-1.0-1.47","3","1","rj63xxeamfpoxnp","","1524.4000000059605","","What sound did you hear?","0","","","1","INDUCTION-JUDGMENT","right","0","","","","","","","","","","","","","","","","","","","","","","","","","","","","","","","","","","","","",""
"html-keyboard-response","164","274509","0.0-4.0-1.0-2.47","3","1","rj63xxeamfpoxnp","","null","","<p style=""color:green;""><b>Correct!</b></p>","","null","","","","","","","","","","","","","","","","","","","","","","","","","","","","","","","","","","","","","","","","","",""
"html-button-response","165","285029","0.0-5.0-0.0","3","1","rj63xxeamfpoxnp","","10019.09999999404","","<p>Thank you for your answers.</p><p>You will now listen to similar sounds. The main difference is that the sounds will be longer and will make up complete sentences.</p><p>Please listen carefully to each sentence. After each sentence, you will be asked to type back what you heard to the best of your ability. After you provide your response, you will be given feedback about the correct answer.</p><p>There are 10 sentences in total.","0","","","","","","","","","","","","","","","","","","","","","","","","","","","","","","","","","","","","","","","","","","",""
"audio-keyboard-response","166","288166","0.0-5.0-1.0-0.0","3","1","rj63xxeamfpoxnp","","null","","sounds/sentences/left/14_01_cfSWS.wav","","null","","","","","","","","","","","","","","","","","","","","","","","","","","","","","","","","","","","","","","","","","",""
"sentence-resp","167","319983","0.0-5.0-1.0-1.0","3","1","rj63xxeamfpoxnp","","31814","","","","","","","SWS-SENT-RESPONSE","","","{""Q0"":""the tie was red in colour""}","A cramp is no small danger on a swim.","cramp,no,small,danger,swim","THE TIE WAS RED IN COLOUR","0","0","0","0","0","0","0","","","","","","","","","","","","","","","","","","","","","","","","","",""
"html-keyboard-response","168","321238","0.0-5.0-1.0-2.0","3","1","rj63xxeamfpoxnp","","null","","","","null","","","","","","","","","","","","","","","","","","","","","","","","","","","","","","","","","","","","","","","","","",""
"audio-keyboard-response","169","323857","0.0-5.0-1.0-3.0","3","1","rj63xxeamfpoxnp","","null","","sounds/sentences/left/14_01_cfSWS.wav","","null","","","","","","","","","","","","","","","","","","","","","","","","","","","","","","","","","","","","","","","","","",""
"html-keyboard-response","170","324866","0.0-5.0-1.0-4.0","3","1","rj63xxeamfpoxnp","","null","","","","null","","","","","","","","","","","","","","","","","","","","","","","","","","","","","","","","","","","","","","","","","",""
"html-button-response","171","327322","0.0-5.0-1.0-5.0","3","1","rj63xxeamfpoxnp","","1941.7999999821186","","<p>Press the button below when you are ready to continue.</p>","0","","","","","","","","","","","","","","","","","","","","","","","","","","","","","","","","","","","","","","","","","","",""
"audio-keyboard-response","172","330347","0.0-5.0-1.0-0.1","3","1","rj63xxeamfpoxnp","","null","","sounds/sentences/right/14_10_cfSWS.wav","","null","","","","","","","","","","","","","","","","","","","","","","","","","","","","","","","","","","","","","","","","","",""
"sentence-resp","173","345268","0.0-5.0-1.0-1.1","3","1","rj63xxeamfpoxnp","","14920","","","","","","","SWS-SENT-RESPONSE","","","{""Q0"":""seashells are very tasty""}","Port is a strong wine with a smoky taste.","port,strong,wine,smoky,taste","SEASHELLS ARE VERY TASTY","0","0","0","0","0","0","0","","","","","","","","","","","","","","","","","","","","","","","","","",""
"html-keyboard-response","174","346534","0.0-5.0-1.0-2.1","3","1","rj63xxeamfpoxnp","","null","","","","null","","","","","","","","","","","","","","","","","","","","","","","","","","","","","","","","","","","","","","","","","",""
"audio-keyboard-response","175","349047","0.0-5.0-1.0-3.1","3","1","rj63xxeamfpoxnp","","null","","sounds/sentences/right/14_10_cfSWS.wav","","null","","","","","","","","","","","","","","","","","","","","","","","","","","","","","","","","","","","","","","","","","",""
"html-keyboard-response","176","350054","0.0-5.0-1.0-4.1","3","1","rj63xxeamfpoxnp","","null","","","","null","","","","","","","","","","","","","","","","","","","","","","","","","","","","","","","","","","","","","","","","","",""
"html-button-response","177","351952","0.0-5.0-1.0-5.1","3","1","rj63xxeamfpoxnp","","1384.6000000238419","","<p>Press the button below when you are ready to continue.</p>","0","","","","","","","","","","","","","","","","","","","","","","","","","","","","","","","","","","","","","","","","","","",""
"audio-keyboard-response","178","354516","0.0-5.0-1.0-0.2","3","1","rj63xxeamfpoxnp","","null","","sounds/sentences/left/14_04_cfSWS.wav","","null","","","","","","","","","","","","","","","","","","","","","","","","","","","","","","","","","","","","","","","","","",""
"sentence-resp","179","365453","0.0-5.0-1.0-1.2","3","1","rj63xxeamfpoxnp","","10935","","","","","","","SWS-SENT-RESPONSE","","","{""Q0"":""see that kite over there?""}","Two plus seven is less than ten.","two,plus,seven,less,ten","SEE THAT KITE OVER THERE","0","0","0","0","0","0","0","","","","","","","","","","","","","","","","","","","","","","","","","",""
"html-keyboard-response","180","366724","0.0-5.0-1.0-2.2","3","1","rj63xxeamfpoxnp","","null","","","","null","","","","","","","","","","","","","","","","","","","","","","","","","","","","","","","","","","","","","","","","","",""
"audio-keyboard-response","181","368777","0.0-5.0-1.0-3.2","3","1","rj63xxeamfpoxnp","","null","","sounds/sentences/left/14_04_cfSWS.wav","","null","","","","","","","","","","","","","","","","","","","","","","","","","","","","","","","","","","","","","","","","","",""
"html-keyboard-response","182","369792","0.0-5.0-1.0-4.2","3","1","rj63xxeamfpoxnp","","null","","","","null","","","","","","","","","","","","","","","","","","","","","","","","","","","","","","","","","","","","","","","","","",""
"html-button-response","183","371454","0.0-5.0-1.0-5.2","3","1","rj63xxeamfpoxnp","","1150.4000000059605","","<p>Press the button below when you are ready to continue.</p>","0","","","","","","","","","","","","","","","","","","","","","","","","","","","","","","","","","","","","","","","","","","",""
"audio-keyboard-response","184","374356","0.0-5.0-1.0-0.3","3","1","rj63xxeamfpoxnp","","null","","sounds/sentences/right/14_07_cfSWS.wav","","null","","","","","","","","","","","","","","","","","","","","","","","","","","","","","","","","","","","","","","","","","",""
"sentence-resp","185","416902","0.0-5.0-1.0-1.3","3","1","rj63xxeamfpoxnp","","42545","","","","","","","SWS-SENT-RESPONSE","","","{""Q0"":""germs should be washed""}","Write a fond note to the friend you cherish.","write,fond,note,friend,cherish","GERMS SHOULD BE WASHED","0","0","0","0","0","0","0","","","","","","","","","","","","","","","","","","","","","","","","","",""
"html-keyboard-response","186","418155","0.0-5.0-1.0-2.3","3","1","rj63xxeamfpoxnp","","null","","","","null","","","","","","","","","","","","","","","","","","","","","","","","","","","","","","","","","","","","","","","","","",""
"audio-keyboard-response","187","420557","0.0-5.0-1.0-3.3","3","1","rj63xxeamfpoxnp","","null","","sounds/sentences/right/14_07_cfSWS.wav","","null","","","","","","","","","","","","","","","","","","","","","","","","","","","","","","","","","","","","","","","","","",""
"html-keyboard-response","188","421566","0.0-5.0-1.0-4.3","3","1","rj63xxeamfpoxnp","","null","","","","null","","","","","","","","","","","","","","","","","","","","","","","","","","","","","","","","","","","","","","","","","",""
"html-button-response","189","423478","0.0-5.0-1.0-5.3","3","1","rj63xxeamfpoxnp","","1399.3999999761581","","<p>Press the button below when you are ready to continue.</p>","0","","","","","","","","","","","","","","","","","","","","","","","","","","","","","","","","","","","","","","","","","","",""
"audio-keyboard-response","190","426077","0.0-5.0-1.0-0.4","3","1","rj63xxeamfpoxnp","","null","","sounds/sentences/left/14_03_cfSWS.wav","","null","","","","","","","","","","","","","","","","","","","","","","","","","","","","","","","","","","","","","","","","","",""
"sentence-resp","191","436647","0.0-5.0-1.0-1.4","3","1","rj63xxeamfpoxnp","","10569","","","","","","","SWS-SENT-RESPONSE","","","{""Q0"":""so many homework assignments""}","Pluck the bright rose without leaves.","pluck,bright,rose,without,leaves","SO MANY HOMEWORK ASSIGNMENTS","0","0","0","0","0","0","0","","","","","","","","","","","","","","","","","","","","","","","","","",""
"html-keyboard-response","192","437919","0.0-5.0-1.0-2.4","3","1","rj63xxeamfpoxnp","","null","","","","null","","","","","","","","","","","","","","","","","","","","","","","","","","","","","","","","","","","","","","","","","",""
"audio-keyboard-response","193","440007","0.0-5.0-1.0-3.4","3","1","rj63xxeamfpoxnp","","null","","sounds/sentences/left/14_03_cfSWS.wav","","null","","","","","","","","","","","","","","","","","","","","","","","","","","","","","","","","","","","","","","","","","",""
"html-keyboard-response","194","441012","0.0-5.0-1.0-4.4","3","1","rj63xxeamfpoxnp","","null","","","","null","","","","","","","","","","","","","","","","","","","","","","","","","","","","","","","","","","","","","","","","","",""
"html-button-response","195","442862","0.0-5.0-1.0-5.4","3","1","rj63xxeamfpoxnp","","1337.5999999940395","","<p>Press the button below when you are ready to continue.</p>","0","","","","","","","","","","","","","","","","","","","","","","","","","","","","","","","","","","","","","","","","","","",""
"audio-keyboard-response","196","445856","0.0-5.0-1.0-0.5","3","1","rj63xxeamfpoxnp","","null","","sounds/sentences/left/14_05_cfSWS.wav","","null","","","","","","","","","","","","","","","","","","","","","","","","","","","","","","","","","","","","","","","","","",""
"sentence-resp","197","454569","0.0-5.0-1.0-1.5","3","1","rj63xxeamfpoxnp","","8712","","","","","","","SWS-SENT-RESPONSE","","","{""Q0"":""people often tell me things""}","The glow deepened in the eyes of the sweet girl.","glow,deepened,eyes,sweet,girl","PEOPLE OFTEN TELL ME THINGS","0","0","0","0","0","0","0","","","","","","","","","","","","","","","","","","","","","","","","","",""
"html-keyboard-response","198","455844","0.0-5.0-1.0-2.5","3","1","rj63xxeamfpoxnp","","null","","","","null","","","","","","","","","","","","","","","","","","","","","","","","","","","","","","","","","","","","","","","","","",""
"audio-keyboard-response","199","458327","0.0-5.0-1.0-3.5","3","1","rj63xxeamfpoxnp","","null","","sounds/sentences/left/14_05_cfSWS.wav","","null","","","","","","","","","","","","","","","","","","","","","","","","","","","","","","","","","","","","","","","","","",""
"html-keyboard-response","200","459339","0.0-5.0-1.0-4.5","3","1","rj63xxeamfpoxnp","","null","","","","null","","","","","","","","","","","","","","","","","","","","","","","","","","","","","","","","","","","","","","","","","",""
"html-button-response","201","463494","0.0-5.0-1.0-5.5","3","1","rj63xxeamfpoxnp","","3653.300000011921","","<p>Press the button below when you are ready to continue.</p>","0","","","","","","","","","","","","","","","","","","","","","","","","","","","","","","","","","","","","","","","","","","",""
"audio-keyboard-response","202","466247","0.0-5.0-1.0-0.6","3","1","rj63xxeamfpoxnp","","null","","sounds/sentences/right/14_06_cfSWS.wav","","null","","","","","","","","","","","","","","","","","","","","","","","","","","","","","","","","","","","","","","","","","",""
"sentence-resp","203","474748","0.0-5.0-1.0-1.6","3","1","rj63xxeamfpoxnp","","8499","","","","","","","SWS-SENT-RESPONSE","","","{""Q0"":""what did you think of this one?""}","Bring your problems to the wise chief.","bring,your,problems,wise,chief","WHAT DID YOU THINK OF THIS ONE","0","0","0","0","0","0","0","","","","","","","","","","","","","","","","","","","","","","","","","",""
"html-keyboard-response","204","476021","0.0-5.0-1.0-2.6","3","1","rj63xxeamfpoxnp","","null","","","","null","","","","","","","","","","","","","","","","","","","","","","","","","","","","","","","","","","","","","","","","","",""
"audio-keyboard-response","205","478268","0.0-5.0-1.0-3.6","3","1","rj63xxeamfpoxnp","","null","","sounds/sentences/right/14_06_cfSWS.wav","","null","","","","","","","","","","","","","","","","","","","","","","","","","","","","","","","","","","","","","","","","","",""
"html-keyboard-response","206","479284","0.0-5.0-1.0-4.6","3","1","rj63xxeamfpoxnp","","null","","","","null","","","","","","","","","","","","","","","","","","","","","","","","","","","","","","","","","","","","","","","","","",""
"html-button-response","207","481102","0.0-5.0-1.0-5.6","3","1","rj63xxeamfpoxnp","","1306.0999999940395","","<p>Press the button below when you are ready to continue.</p>","0","","","","","","","","","","","","","","","","","","","","","","","","","","","","","","","","","","","","","","","","","","",""
"audio-keyboard-response","208","483868","0.0-5.0-1.0-0.7","3","1","rj63xxeamfpoxnp","","null","","sounds/sentences/right/14_08_cfSWS.wav","","null","","","","","","","","","","","","","","","","","","","","","","","","","","","","","","","","","","","","","","","","","",""
"sentence-resp","209","491456","0.0-5.0-1.0-1.7","3","1","rj63xxeamfpoxnp","","7587","","","","","","","SWS-SENT-RESPONSE","","","{""Q0"":""we can really learn from this""}","Clothes and lodging are free to new men.","clothes,lodging,free,new,men","WE CAN REALLY LEARN FROM THIS","0","0","0","0","0","0","0","","","","","","","","","","","","","","","","","","","","","","","","","",""
"html-keyboard-response","210","492730","0.0-5.0-1.0-2.7","3","1","rj63xxeamfpoxnp","","null","","","","null","","","","","","","","","","","","","","","","","","","","","","","","","","","","","","","","","","","","","","","","","",""
"audio-keyboard-response","211","494988","0.0-5.0-1.0-3.7","3","1","rj63xxeamfpoxnp","","null","","sounds/sentences/right/14_08_cfSWS.wav","","null","","","","","","","","","","","","","","","","","","","","","","","","","","","","","","","","","","","","","","","","","",""
"html-keyboard-response","212","495992","0.0-5.0-1.0-4.7","3","1","rj63xxeamfpoxnp","","null","","","","null","","","","","","","","","","","","","","","","","","","","","","","","","","","","","","","","","","","","","","","","","",""
"html-button-response","213","497703","0.0-5.0-1.0-5.7","3","1","rj63xxeamfpoxnp","","1201","","<p>Press the button below when you are ready to continue.</p>","0","","","","","","","","","","","","","","","","","","","","","","","","","","","","","","","","","","","","","","","","","","",""
"audio-keyboard-response","214","500528","0.0-5.0-1.0-0.8","3","1","rj63xxeamfpoxnp","","null","","sounds/sentences/left/14_02_cfSWS.wav","","null","","","","","","","","","","","","","","","","","","","","","","","","","","","","","","","","","","","","","","","","","",""
"sentence-resp","215","515663","0.0-5.0-1.0-1.8","3","1","rj63xxeamfpoxnp","","15133","","","","","","","SWS-SENT-RESPONSE","","","{""Q0"":""leaves change colours in the fall""}","He said the same phrase thirty times.","said,same,phrase,thirty,times","LEAVES CHANGE COLOURS IN THE FALL","0","0","0","0","0","0","0","","","","","","","","","","","","","","","","","","","","","","","","","",""
"html-keyboard-response","216","516932","0.0-5.0-1.0-2.8","3","1","rj63xxeamfpoxnp","","null","","","","null","","","","","","","","","","","","","","","","","","","","","","","","","","","","","","","","","","","","","","","","","",""
"audio-keyboard-response","217","519248","0.0-5.0-1.0-3.8","3","1","rj63xxeamfpoxnp","","null","","sounds/sentences/left/14_02_cfSWS.wav","","null","","","","","","","","","","","","","","","","","","","","","","","","","","","","","","","","","","","","","","","","","",""
"html-keyboard-response","218","520259","0.0-5.0-1.0-4.8","3","1","rj63xxeamfpoxnp","","null","","","","null","","","","","","","","","","","","","","","","","","","","","","","","","","","","","","","","","","","","","","","","","",""
"html-button-response","219","522442","0.0-5.0-1.0-5.8","3","1","rj63xxeamfpoxnp","","1675.5999999940395","","<p>Press the button below when you are ready to continue.</p>","0","","","","","","","","","","","","","","","","","","","","","","","","","","","","","","","","","","","","","","","","","","",""
"audio-keyboard-response","220","525178","0.0-5.0-1.0-0.9","3","1","rj63xxeamfpoxnp","","null","","sounds/sentences/right/14_09_cfSWS.wav","","null","","","","","","","","","","","","","","","","","","","","","","","","","","","","","","","","","","","","","","","","","",""
"sentence-resp","221","536370","0.0-5.0-1.0-1.9","3","1","rj63xxeamfpoxnp","","11190","","","","","","","SWS-SENT-RESPONSE","","","{""Q0"":""we like to play at the park""}","We frown when events take a bad turn.","frown,events,take,bad,turn","WE LIKE TO PLAY AT THE PARK","0","0","0","0","0","0","0","","","","","","","","","","","","","","","","","","","","","","","","","",""
"html-keyboard-response","222","537634","0.0-5.0-1.0-2.9","3","1","rj63xxeamfpoxnp","","null","","","","null","","","","","","","","","","","","","","","","","","","","","","","","","","","","","","","","","","","","","","","","","",""
"audio-keyboard-response","223","539857","0.0-5.0-1.0-3.9","3","1","rj63xxeamfpoxnp","","null","","sounds/sentences/right/14_09_cfSWS.wav","","null","","","","","","","","","","","","","","","","","","","","","","","","","","","","","","","","","","","","","","","","","",""
"html-keyboard-response","224","540862","0.0-5.0-1.0-4.9","3","1","rj63xxeamfpoxnp","","null","","","","null","","","","","","","","","","","","","","","","","","","","","","","","","","","","","","","","","","","","","","","","","",""
"html-button-response","225","543464","0.0-5.0-1.0-5.9","3","1","rj63xxeamfpoxnp","","2087.300000011921","","<p>Press the button below when you are ready to continue.</p>","0","","","","","","","","","","","","","","","","","","","","","","","","","","","","","","","","","","","","","","","","","","",""
"html-keyboard-response","226","556880","0.0-6.0-0.0","3","1","rj63xxeamfpoxnp","","12904.299999982119","","<p>In this part of the study, you will hear sounds similar to those you just heard.</p><p>Please focus on these sounds, as you may be asked questions about them later.</p><p>Occasionally, the sounds will pause for up to two seconds. When this happens, please press SPACEBAR as quickly as you can.</br>This helps ensure that you are paying attention to the sounds.</p><p>This part of the study will take about 12 minutes to complete, and you will be given the opportunity to take a couple of short breaks every few minutes.</p><p><strong>Press SPACEBAR to begin</strong></p>","","32","","","","","","","","","","","","","","","","","","","","","","","","","","","","","","","","","","","","","","","","","",""
"html-keyboard-response","227","557884","0.0-6.0-1.0-0.0","3","1","rj63xxeamfpoxnp","","null","","<p style=""font-size: 40px;"">+</p>","","null","","","","","","","","","","","","","","","","","","","","","","","","","","","","","","","","","","","","","","","","","",""
"html-keyboard-response","228","742887","0.0-6.0-1.0-1.0","3","1","rj63xxeamfpoxnp","","null","","","","null","","","SL-TRAIN","","","","","","","","","","","","","","0","584.0999999940395","507.59999999403954","sounds/C/TRAIN/SEQ__03.mp3","2","","","","","","","","","","","","","","","","","","","","",""
"html-button-response","229","745769","0.0-6.0-1.0-2.0","3","1","rj63xxeamfpoxnp","","2878.699999988079","","<p>You may take a short break if you wish.</p>","0","","","","","","","","","","","","","","","","","","","","","","","","","","","","","","","","","","","","","","","","","","",""
"html-keyboard-response","230","746773","0.0-6.0-1.0-3.0","3","1","rj63xxeamfpoxnp","","null","","<p style=""font-size: 40px;"">+</p>","","null","","","","","","","","","","","","","","","","","","","","","","","","","","","","","","","","","","","","","","","","","",""
"html-keyboard-response","231","931778","0.0-6.0-1.0-4.0","3","1","rj63xxeamfpoxnp","","null","","","","null","","","SL-TRAIN","","","","","","","","","","","","","","0","898.4000000059605","535.5","sounds/C/TRAIN/SEQ__06.mp3","5","","","","","","","","","","","","","","","","","","","","",""
"html-button-response","232","934490","0.0-6.0-1.0-5.0","3","1","rj63xxeamfpoxnp","","2711.100000023842","","<p>You may take a short break if you wish.</p>","0","","","","","","","","","","","","","","","","","","","","","","","","","","","","","","","","","","","","","","","","","","",""
"html-keyboard-response","233","935493","0.0-6.0-1.0-6.0","3","1","rj63xxeamfpoxnp","","null","","<p style=""font-size: 40px;"">+</p>","","null","","","","","","","","","","","","","","","","","","","","","","","","","","","","","","","","","","","","","","","","","",""
"html-keyboard-response","234","1120495","0.0-6.0-1.0-7.0","3","1","rj63xxeamfpoxnp","","null","","","","null","","","SL-TRAIN","","","","","","","","","","","","","","0","917.2000000178814","562.8000000119209","sounds/C/TRAIN/SEQ__07.mp3","6","","","","","","","","","","","","","","","","","","","","",""
"html-button-response","235","1122647","0.0-6.0-1.0-8.0","3","1","rj63xxeamfpoxnp","","2150.800000011921","","<p>You may take a short break if you wish.</p>","0","","","","","","","","","","","","","","","","","","","","","","","","","","","","","","","","","","","","","","","","","","",""
"html-keyboard-response","236","1123649","0.0-6.0-1.0-9.0","3","1","rj63xxeamfpoxnp","","null","","<p style=""font-size: 40px;"">+</p>","","null","","","","","","","","","","","","","","","","","","","","","","","","","","","","","","","","","","","","","","","","","",""
"html-keyboard-response","237","1308652","0.0-6.0-1.0-10.0","3","1","rj63xxeamfpoxnp","","null","","","","null","","","SL-TRAIN","","","","","","","","","","","","","","0","483.80000001192093","890.5","sounds/C/TRAIN/SEQ__04.mp3","8","","","","","","","","","","","","","","","","","","","","",""
"html-button-response","238","1312770","0.0-6.0-1.0-11.0","3","1","rj63xxeamfpoxnp","","4116.0999999940395","","<p>You may take a short break if you wish.</p>","0","","","","","","","","","","","","","","","","","","","","","","","","","","","","","","","","","","","","","","","","","","",""
"html-button-response","239","1318164","0.0-7.0-0.0","3","1","rj63xxeamfpoxnp","","5393.199999988079","","<p>Welcome to the second part of the study. This is a <u>familiarity task</u>.</p><p>You will now hear short sounds and will be asked to rate how familiar they sound to you <b>based on what you heard in the previous part of the study</b>.</p><p>You will rate 12 sounds in total.</p>","0","","","","","","","","","","","","","","","","","","","","","","","","","","","","","","","","","","","","","","","","","","",""
"html-keyboard-response","240","1319166","0.0-7.0-1.0-0.0","3","1","rj63xxeamfpoxnp","","null","","","","null","","","","","","","","","","","","","","","","","","","","","","","","","","","","","","","","","","","","","","","","","",""
"audio-keyboard-response","241","1320125","0.0-7.0-1.0-1.0","3","1","rj63xxeamfpoxnp","","null","","sounds/C/FAM/P001.mp3","","null","","","","","","","","","","","","","","","","","","","","","","","","","","","","","","","","","","","","","","","","","",""
"html-keyboard-response","242","1324926","0.0-7.0-1.0-2.0","3","1","rj63xxeamfpoxnp","","4296.300000011921","","<p>How familiar did this sound to you?</p><p>1&nbsp;&nbsp;&nbsp;&nbsp;&nbsp;&nbsp;&nbsp;&nbsp;&nbsp;&nbsp;&nbsp;&nbsp;&nbsp;&nbsp;&nbsp;&nbsp;&nbsp;&nbsp;&nbsp;2&nbsp;&nbsp;&nbsp;&nbsp;&nbsp;&nbsp;&nbsp;&nbsp;&nbsp;&nbsp;&nbsp;&nbsp;&nbsp;&nbsp;&nbsp;&nbsp;&nbsp;&nbsp;&nbsp;3&nbsp;&nbsp;&nbsp;&nbsp;&nbsp;&nbsp;&nbsp;&nbsp;&nbsp;&nbsp;&nbsp;&nbsp;&nbsp;&nbsp;&nbsp;&nbsp;&nbsp;&nbsp;&nbsp;4</p><p style=""font-size:14px"">Not at all familiar&nbsp;&nbsp;&nbsp;&nbsp;A little familiar&nbsp;&nbsp;&nbsp;Moderately familiar&nbsp;&nbsp;&nbsp;Extremely familiar</p><p>(press the corresponding number on your keyboard)</p>","","52","","","FAM-RESPONSE","","","","","","","","","","","","","","","","","","","sounds/C/FAM/P001.mp3","partword","","","","","","","","","","","","","","","","","","",""
"html-keyboard-response","243","1326942","0.0-7.0-1.0-0.1","3","1","rj63xxeamfpoxnp","","null","","","","null","","","","","","","","","","","","","","","","","","","","","","","","","","","","","","","","","","","","","","","","","",""
"audio-keyboard-response","244","1327885","0.0-7.0-1.0-1.1","3","1","rj63xxeamfpoxnp","","null","","sounds/C/FAM/N002.mp3","","null","","","","","","","","","","","","","","","","","","","","","","","","","","","","","","","","","","","","","","","","","",""
"html-keyboard-response","245","1332897","0.0-7.0-1.0-2.1","3","1","rj63xxeamfpoxnp","","4507.200000017881","","<p>How familiar did this sound to you?</p><p>1&nbsp;&nbsp;&nbsp;&nbsp;&nbsp;&nbsp;&nbsp;&nbsp;&nbsp;&nbsp;&nbsp;&nbsp;&nbsp;&nbsp;&nbsp;&nbsp;&nbsp;&nbsp;&nbsp;2&nbsp;&nbsp;&nbsp;&nbsp;&nbsp;&nbsp;&nbsp;&nbsp;&nbsp;&nbsp;&nbsp;&nbsp;&nbsp;&nbsp;&nbsp;&nbsp;&nbsp;&nbsp;&nbsp;3&nbsp;&nbsp;&nbsp;&nbsp;&nbsp;&nbsp;&nbsp;&nbsp;&nbsp;&nbsp;&nbsp;&nbsp;&nbsp;&nbsp;&nbsp;&nbsp;&nbsp;&nbsp;&nbsp;4</p><p style=""font-size:14px"">Not at all familiar&nbsp;&nbsp;&nbsp;&nbsp;A little familiar&nbsp;&nbsp;&nbsp;Moderately familiar&nbsp;&nbsp;&nbsp;Extremely familiar</p><p>(press the corresponding number on your keyboard)</p>","","52","","","FAM-RESPONSE","","","","","","","","","","","","","","","","","","","sounds/C/FAM/N002.mp3","nonword","","","","","","","","","","","","","","","","","","",""
"html-keyboard-response","246","1334926","0.0-7.0-1.0-0.2","3","1","rj63xxeamfpoxnp","","null","","","","null","","","","","","","","","","","","","","","","","","","","","","","","","","","","","","","","","","","","","","","","","",""
"audio-keyboard-response","247","1335875","0.0-7.0-1.0-1.2","3","1","rj63xxeamfpoxnp","","null","","sounds/C/FAM/P002.mp3","","null","","","","","","","","","","","","","","","","","","","","","","","","","","","","","","","","","","","","","","","","","",""
"html-keyboard-response","248","1339676","0.0-7.0-1.0-2.2","3","1","rj63xxeamfpoxnp","","3290.199999988079","","<p>How familiar did this sound to you?</p><p>1&nbsp;&nbsp;&nbsp;&nbsp;&nbsp;&nbsp;&nbsp;&nbsp;&nbsp;&nbsp;&nbsp;&nbsp;&nbsp;&nbsp;&nbsp;&nbsp;&nbsp;&nbsp;&nbsp;2&nbsp;&nbsp;&nbsp;&nbsp;&nbsp;&nbsp;&nbsp;&nbsp;&nbsp;&nbsp;&nbsp;&nbsp;&nbsp;&nbsp;&nbsp;&nbsp;&nbsp;&nbsp;&nbsp;3&nbsp;&nbsp;&nbsp;&nbsp;&nbsp;&nbsp;&nbsp;&nbsp;&nbsp;&nbsp;&nbsp;&nbsp;&nbsp;&nbsp;&nbsp;&nbsp;&nbsp;&nbsp;&nbsp;4</p><p style=""font-size:14px"">Not at all familiar&nbsp;&nbsp;&nbsp;&nbsp;A little familiar&nbsp;&nbsp;&nbsp;Moderately familiar&nbsp;&nbsp;&nbsp;Extremely familiar</p><p>(press the corresponding number on your keyboard)</p>","","50","","","FAM-RESPONSE","","","","","","","","","","","","","","","","","","","sounds/C/FAM/P002.mp3","partword","","","","","","","","","","","","","","","","","","",""
"html-keyboard-response","249","1341688","0.0-7.0-1.0-0.3","3","1","rj63xxeamfpoxnp","","null","","","","null","","","","","","","","","","","","","","","","","","","","","","","","","","","","","","","","","","","","","","","","","",""
"audio-keyboard-response","250","1342635","0.0-7.0-1.0-1.3","3","1","rj63xxeamfpoxnp","","null","","sounds/C/FAM/N004.mp3","","null","","","","","","","","","","","","","","","","","","","","","","","","","","","","","","","","","","","","","","","","","",""
"html-keyboard-response","251","1345296","0.0-7.0-1.0-2.3","3","1","rj63xxeamfpoxnp","","2151.5999999940395","","<p>How familiar did this sound to you?</p><p>1&nbsp;&nbsp;&nbsp;&nbsp;&nbsp;&nbsp;&nbsp;&nbsp;&nbsp;&nbsp;&nbsp;&nbsp;&nbsp;&nbsp;&nbsp;&nbsp;&nbsp;&nbsp;&nbsp;2&nbsp;&nbsp;&nbsp;&nbsp;&nbsp;&nbsp;&nbsp;&nbsp;&nbsp;&nbsp;&nbsp;&nbsp;&nbsp;&nbsp;&nbsp;&nbsp;&nbsp;&nbsp;&nbsp;3&nbsp;&nbsp;&nbsp;&nbsp;&nbsp;&nbsp;&nbsp;&nbsp;&nbsp;&nbsp;&nbsp;&nbsp;&nbsp;&nbsp;&nbsp;&nbsp;&nbsp;&nbsp;&nbsp;4</p><p style=""font-size:14px"">Not at all familiar&nbsp;&nbsp;&nbsp;&nbsp;A little familiar&nbsp;&nbsp;&nbsp;Moderately familiar&nbsp;&nbsp;&nbsp;Extremely familiar</p><p>(press the corresponding number on your keyboard)</p>","","49","","","FAM-RESPONSE","","","","","","","","","","","","","","","","","","","sounds/C/FAM/N004.mp3","nonword","","","","","","","","","","","","","","","","","","",""
"html-keyboard-response","252","1347306","0.0-7.0-1.0-0.4","3","1","rj63xxeamfpoxnp","","null","","","","null","","","","","","","","","","","","","","","","","","","","","","","","","","","","","","","","","","","","","","","","","",""
"audio-keyboard-response","253","1348244","0.0-7.0-1.0-1.4","3","1","rj63xxeamfpoxnp","","null","","sounds/C/FAM/N001.mp3","","null","","","","","","","","","","","","","","","","","","","","","","","","","","","","","","","","","","","","","","","","","",""
"html-keyboard-response","254","1350913","0.0-7.0-1.0-2.4","3","1","rj63xxeamfpoxnp","","2160.699999988079","","<p>How familiar did this sound to you?</p><p>1&nbsp;&nbsp;&nbsp;&nbsp;&nbsp;&nbsp;&nbsp;&nbsp;&nbsp;&nbsp;&nbsp;&nbsp;&nbsp;&nbsp;&nbsp;&nbsp;&nbsp;&nbsp;&nbsp;2&nbsp;&nbsp;&nbsp;&nbsp;&nbsp;&nbsp;&nbsp;&nbsp;&nbsp;&nbsp;&nbsp;&nbsp;&nbsp;&nbsp;&nbsp;&nbsp;&nbsp;&nbsp;&nbsp;3&nbsp;&nbsp;&nbsp;&nbsp;&nbsp;&nbsp;&nbsp;&nbsp;&nbsp;&nbsp;&nbsp;&nbsp;&nbsp;&nbsp;&nbsp;&nbsp;&nbsp;&nbsp;&nbsp;4</p><p style=""font-size:14px"">Not at all familiar&nbsp;&nbsp;&nbsp;&nbsp;A little familiar&nbsp;&nbsp;&nbsp;Moderately familiar&nbsp;&nbsp;&nbsp;Extremely familiar</p><p>(press the corresponding number on your keyboard)</p>","","51","","","FAM-RESPONSE","","","","","","","","","","","","","","","","","","","sounds/C/FAM/N001.mp3","nonword","","","","","","","","","","","","","","","","","","",""
"html-keyboard-response","255","1352934","0.0-7.0-1.0-0.5","3","1","rj63xxeamfpoxnp","","null","","","","null","","","","","","","","","","","","","","","","","","","","","","","","","","","","","","","","","","","","","","","","","",""
"audio-keyboard-response","256","1353887","0.0-7.0-1.0-1.5","3","1","rj63xxeamfpoxnp","","null","","sounds/C/FAM/P004.mp3","","null","","","","","","","","","","","","","","","","","","","","","","","","","","","","","","","","","","","","","","","","","",""
"html-keyboard-response","257","1355411","0.0-7.0-1.0-2.5","3","1","rj63xxeamfpoxnp","","1011.5999999940395","","<p>How familiar did this sound to you?</p><p>1&nbsp;&nbsp;&nbsp;&nbsp;&nbsp;&nbsp;&nbsp;&nbsp;&nbsp;&nbsp;&nbsp;&nbsp;&nbsp;&nbsp;&nbsp;&nbsp;&nbsp;&nbsp;&nbsp;2&nbsp;&nbsp;&nbsp;&nbsp;&nbsp;&nbsp;&nbsp;&nbsp;&nbsp;&nbsp;&nbsp;&nbsp;&nbsp;&nbsp;&nbsp;&nbsp;&nbsp;&nbsp;&nbsp;3&nbsp;&nbsp;&nbsp;&nbsp;&nbsp;&nbsp;&nbsp;&nbsp;&nbsp;&nbsp;&nbsp;&nbsp;&nbsp;&nbsp;&nbsp;&nbsp;&nbsp;&nbsp;&nbsp;4</p><p style=""font-size:14px"">Not at all familiar&nbsp;&nbsp;&nbsp;&nbsp;A little familiar&nbsp;&nbsp;&nbsp;Moderately familiar&nbsp;&nbsp;&nbsp;Extremely familiar</p><p>(press the corresponding number on your keyboard)</p>","","51","","","FAM-RESPONSE","","","","","","","","","","","","","","","","","","","sounds/C/FAM/P004.mp3","partword","","","","","","","","","","","","","","","","","","",""
"html-keyboard-response","258","1357429","0.0-7.0-1.0-0.6","3","1","rj63xxeamfpoxnp","","null","","","","null","","","","","","","","","","","","","","","","","","","","","","","","","","","","","","","","","","","","","","","","","",""
"audio-keyboard-response","259","1358365","0.0-7.0-1.0-1.6","3","1","rj63xxeamfpoxnp","","null","","sounds/C/FAM/W003.mp3","","null","","","","","","","","","","","","","","","","","","","","","","","","","","","","","","","","","","","","","","","","","",""
"html-keyboard-response","260","1359561","0.0-7.0-1.0-2.6","3","1","rj63xxeamfpoxnp","","680","","<p>How familiar did this sound to you?</p><p>1&nbsp;&nbsp;&nbsp;&nbsp;&nbsp;&nbsp;&nbsp;&nbsp;&nbsp;&nbsp;&nbsp;&nbsp;&nbsp;&nbsp;&nbsp;&nbsp;&nbsp;&nbsp;&nbsp;2&nbsp;&nbsp;&nbsp;&nbsp;&nbsp;&nbsp;&nbsp;&nbsp;&nbsp;&nbsp;&nbsp;&nbsp;&nbsp;&nbsp;&nbsp;&nbsp;&nbsp;&nbsp;&nbsp;3&nbsp;&nbsp;&nbsp;&nbsp;&nbsp;&nbsp;&nbsp;&nbsp;&nbsp;&nbsp;&nbsp;&nbsp;&nbsp;&nbsp;&nbsp;&nbsp;&nbsp;&nbsp;&nbsp;4</p><p style=""font-size:14px"">Not at all familiar&nbsp;&nbsp;&nbsp;&nbsp;A little familiar&nbsp;&nbsp;&nbsp;Moderately familiar&nbsp;&nbsp;&nbsp;Extremely familiar</p><p>(press the corresponding number on your keyboard)</p>","","52","","","FAM-RESPONSE","","","","","","","","","","","","","","","","","","","sounds/C/FAM/W003.mp3","word","","","","","","","","","","","","","","","","","","",""
"html-keyboard-response","261","1361582","0.0-7.0-1.0-0.7","3","1","rj63xxeamfpoxnp","","null","","","","null","","","","","","","","","","","","","","","","","","","","","","","","","","","","","","","","","","","","","","","","","",""
"audio-keyboard-response","262","1362525","0.0-7.0-1.0-1.7","3","1","rj63xxeamfpoxnp","","null","","sounds/C/FAM/W004.mp3","","null","","","","","","","","","","","","","","","","","","","","","","","","","","","","","","","","","","","","","","","","","",""
"html-keyboard-response","263","1363602","0.0-7.0-1.0-2.7","3","1","rj63xxeamfpoxnp","","561.0999999940395","","<p>How familiar did this sound to you?</p><p>1&nbsp;&nbsp;&nbsp;&nbsp;&nbsp;&nbsp;&nbsp;&nbsp;&nbsp;&nbsp;&nbsp;&nbsp;&nbsp;&nbsp;&nbsp;&nbsp;&nbsp;&nbsp;&nbsp;2&nbsp;&nbsp;&nbsp;&nbsp;&nbsp;&nbsp;&nbsp;&nbsp;&nbsp;&nbsp;&nbsp;&nbsp;&nbsp;&nbsp;&nbsp;&nbsp;&nbsp;&nbsp;&nbsp;3&nbsp;&nbsp;&nbsp;&nbsp;&nbsp;&nbsp;&nbsp;&nbsp;&nbsp;&nbsp;&nbsp;&nbsp;&nbsp;&nbsp;&nbsp;&nbsp;&nbsp;&nbsp;&nbsp;4</p><p style=""font-size:14px"">Not at all familiar&nbsp;&nbsp;&nbsp;&nbsp;A little familiar&nbsp;&nbsp;&nbsp;Moderately familiar&nbsp;&nbsp;&nbsp;Extremely familiar</p><p>(press the corresponding number on your keyboard)</p>","","52","","","FAM-RESPONSE","","","","","","","","","","","","","","","","","","","sounds/C/FAM/W004.mp3","word","","","","","","","","","","","","","","","","","","",""
"html-keyboard-response","264","1365617","0.0-7.0-1.0-0.8","3","1","rj63xxeamfpoxnp","","null","","","","null","","","","","","","","","","","","","","","","","","","","","","","","","","","","","","","","","","","","","","","","","",""
"audio-keyboard-response","265","1366565","0.0-7.0-1.0-1.8","3","1","rj63xxeamfpoxnp","","null","","sounds/C/FAM/W001.mp3","","null","","","","","","","","","","","","","","","","","","","","","","","","","","","","","","","","","","","","","","","","","",""
"html-keyboard-response","266","1368476","0.0-7.0-1.0-2.8","3","1","rj63xxeamfpoxnp","","1399.0999999940395","","<p>How familiar did this sound to you?</p><p>1&nbsp;&nbsp;&nbsp;&nbsp;&nbsp;&nbsp;&nbsp;&nbsp;&nbsp;&nbsp;&nbsp;&nbsp;&nbsp;&nbsp;&nbsp;&nbsp;&nbsp;&nbsp;&nbsp;2&nbsp;&nbsp;&nbsp;&nbsp;&nbsp;&nbsp;&nbsp;&nbsp;&nbsp;&nbsp;&nbsp;&nbsp;&nbsp;&nbsp;&nbsp;&nbsp;&nbsp;&nbsp;&nbsp;3&nbsp;&nbsp;&nbsp;&nbsp;&nbsp;&nbsp;&nbsp;&nbsp;&nbsp;&nbsp;&nbsp;&nbsp;&nbsp;&nbsp;&nbsp;&nbsp;&nbsp;&nbsp;&nbsp;4</p><p style=""font-size:14px"">Not at all familiar&nbsp;&nbsp;&nbsp;&nbsp;A little familiar&nbsp;&nbsp;&nbsp;Moderately familiar&nbsp;&nbsp;&nbsp;Extremely familiar</p><p>(press the corresponding number on your keyboard)</p>","","51","","","FAM-RESPONSE","","","","","","","","","","","","","","","","","","","sounds/C/FAM/W001.mp3","word","","","","","","","","","","","","","","","","","","",""
"html-keyboard-response","267","1370498","0.0-7.0-1.0-0.9","3","1","rj63xxeamfpoxnp","","null","","","","null","","","","","","","","","","","","","","","","","","","","","","","","","","","","","","","","","","","","","","","","","",""
"audio-keyboard-response","268","1371444","0.0-7.0-1.0-1.9","3","1","rj63xxeamfpoxnp","","null","","sounds/C/FAM/N003.mp3","","null","","","","","","","","","","","","","","","","","","","","","","","","","","","","","","","","","","","","","","","","","",""
"html-keyboard-response","269","1373005","0.0-7.0-1.0-2.9","3","1","rj63xxeamfpoxnp","","1044.5999999940395","","<p>How familiar did this sound to you?</p><p>1&nbsp;&nbsp;&nbsp;&nbsp;&nbsp;&nbsp;&nbsp;&nbsp;&nbsp;&nbsp;&nbsp;&nbsp;&nbsp;&nbsp;&nbsp;&nbsp;&nbsp;&nbsp;&nbsp;2&nbsp;&nbsp;&nbsp;&nbsp;&nbsp;&nbsp;&nbsp;&nbsp;&nbsp;&nbsp;&nbsp;&nbsp;&nbsp;&nbsp;&nbsp;&nbsp;&nbsp;&nbsp;&nbsp;3&nbsp;&nbsp;&nbsp;&nbsp;&nbsp;&nbsp;&nbsp;&nbsp;&nbsp;&nbsp;&nbsp;&nbsp;&nbsp;&nbsp;&nbsp;&nbsp;&nbsp;&nbsp;&nbsp;4</p><p style=""font-size:14px"">Not at all familiar&nbsp;&nbsp;&nbsp;&nbsp;A little familiar&nbsp;&nbsp;&nbsp;Moderately familiar&nbsp;&nbsp;&nbsp;Extremely familiar</p><p>(press the corresponding number on your keyboard)</p>","","51","","","FAM-RESPONSE","","","","","","","","","","","","","","","","","","","sounds/C/FAM/N003.mp3","nonword","","","","","","","","","","","","","","","","","","",""
"html-keyboard-response","270","1375022","0.0-7.0-1.0-0.10","3","1","rj63xxeamfpoxnp","","null","","","","null","","","","","","","","","","","","","","","","","","","","","","","","","","","","","","","","","","","","","","","","","",""
"audio-keyboard-response","271","1375965","0.0-7.0-1.0-1.10","3","1","rj63xxeamfpoxnp","","null","","sounds/C/FAM/W002.mp3","","null","","","","","","","","","","","","","","","","","","","","","","","","","","","","","","","","","","","","","","","","","",""
"html-keyboard-response","272","1376977","0.0-7.0-1.0-2.10","3","1","rj63xxeamfpoxnp","","499.09999999403954","","<p>How familiar did this sound to you?</p><p>1&nbsp;&nbsp;&nbsp;&nbsp;&nbsp;&nbsp;&nbsp;&nbsp;&nbsp;&nbsp;&nbsp;&nbsp;&nbsp;&nbsp;&nbsp;&nbsp;&nbsp;&nbsp;&nbsp;2&nbsp;&nbsp;&nbsp;&nbsp;&nbsp;&nbsp;&nbsp;&nbsp;&nbsp;&nbsp;&nbsp;&nbsp;&nbsp;&nbsp;&nbsp;&nbsp;&nbsp;&nbsp;&nbsp;3&nbsp;&nbsp;&nbsp;&nbsp;&nbsp;&nbsp;&nbsp;&nbsp;&nbsp;&nbsp;&nbsp;&nbsp;&nbsp;&nbsp;&nbsp;&nbsp;&nbsp;&nbsp;&nbsp;4</p><p style=""font-size:14px"">Not at all familiar&nbsp;&nbsp;&nbsp;&nbsp;A little familiar&nbsp;&nbsp;&nbsp;Moderately familiar&nbsp;&nbsp;&nbsp;Extremely familiar</p><p>(press the corresponding number on your keyboard)</p>","","49","","","FAM-RESPONSE","","","","","","","","","","","","","","","","","","","sounds/C/FAM/W002.mp3","word","","","","","","","","","","","","","","","","","","",""
"html-keyboard-response","273","1379006","0.0-7.0-1.0-0.11","3","1","rj63xxeamfpoxnp","","null","","","","null","","","","","","","","","","","","","","","","","","","","","","","","","","","","","","","","","","","","","","","","","",""
"audio-keyboard-response","274","1379955","0.0-7.0-1.0-1.11","3","1","rj63xxeamfpoxnp","","null","","sounds/C/FAM/P003.mp3","","null","","","","","","","","","","","","","","","","","","","","","","","","","","","","","","","","","","","","","","","","","",""
"html-keyboard-response","275","1381080","0.0-7.0-1.0-2.11","3","1","rj63xxeamfpoxnp","","610.9000000059605","","<p>How familiar did this sound to you?</p><p>1&nbsp;&nbsp;&nbsp;&nbsp;&nbsp;&nbsp;&nbsp;&nbsp;&nbsp;&nbsp;&nbsp;&nbsp;&nbsp;&nbsp;&nbsp;&nbsp;&nbsp;&nbsp;&nbsp;2&nbsp;&nbsp;&nbsp;&nbsp;&nbsp;&nbsp;&nbsp;&nbsp;&nbsp;&nbsp;&nbsp;&nbsp;&nbsp;&nbsp;&nbsp;&nbsp;&nbsp;&nbsp;&nbsp;3&nbsp;&nbsp;&nbsp;&nbsp;&nbsp;&nbsp;&nbsp;&nbsp;&nbsp;&nbsp;&nbsp;&nbsp;&nbsp;&nbsp;&nbsp;&nbsp;&nbsp;&nbsp;&nbsp;4</p><p style=""font-size:14px"">Not at all familiar&nbsp;&nbsp;&nbsp;&nbsp;A little familiar&nbsp;&nbsp;&nbsp;Moderately familiar&nbsp;&nbsp;&nbsp;Extremely familiar</p><p>(press the corresponding number on your keyboard)</p>","","50","","","FAM-RESPONSE","","","","","","","","","","","","","","","","","","","sounds/C/FAM/P003.mp3","partword","","","","","","","","","","","","","","","","","","",""
"html-button-response","276","1389189","0.0-8.0-0.0","3","1","rj63xxeamfpoxnp","","7105.300000011921","","<p>You will now listen to longer sound sequences.</p><p>Each sound sequence will last about 16 seconds.</p><p>On each trial, you will be given a <u>TARGET SOUND</u>. Your task is to listen very carefully for this sound.</p><p>Every time you hear the <u>TARGET SOUND</u>, you will press the <b>SPACEBAR</b> as quickly and accurately as you can.</p>","0","","","","","","","","","","","","","","","","","","","","","","","","","","","","","","","","","","","","","","","","","","",""
"html-button-response","277","1397136","0.0-8.0-1.0","3","1","rj63xxeamfpoxnp","","7688.5999999940395","","<p>It is very important that you make your responses as quickly and accurately as possible.</p><p>To help you make your responses, you will be able to listen to the <u>TARGET SOUND</u> at the beginning of each trial.</p><p>There will be 36 total trials.</p><p><b>Note: This is meant to be a difficult task. We simply want you to try your best.</p>","0","","","","","","","","","","","","","","","","","","","","","","","","","","","","","","","","","","","","","","","","","","",""
"html-button-response","278","1399217","0.0-8.0-2.0-0.0","3","1","rj63xxeamfpoxnp","","1824.7000000178814","","<p>Trial 1 of 36</p>","0","","","","","","","","","","","","","","","","","","","","","","","","","FU","sounds/syllables/fu_SWS.wav","1500,6900,9600,13200","3","","","","","","","","","","","","","","",""
"html-keyboard-response","279","1402587","0.0-8.0-2.0-1.0","3","1","rj63xxeamfpoxnp","","3368.7999999821186","","","","80","","","","","","","","","","","","","","","","","","","","","","","","FU","","1500,6900,9600,13200","3","","","","","","","","","","","","","","",""
"audio-keyboard-response","280","1402885","0.0-8.0-2.0-2.0-0.0","3","1","rj63xxeamfpoxnp","","null","","sounds/syllables/fu_SWS.wav","","null","","","","","","","","","","","","","","","","","","","","","","","","","","","","","","","","","","","","","","","","","",""
"html-keyboard-response","281","1405175","0.0-8.0-2.0-2.0-1.0","3","1","rj63xxeamfpoxnp","","2289.899999976158","","<p>To replay the <u>TARGET SOUND</u>, press P.</p> When you are ready to begin, press SPACEBAR.","","80","","","","","","","","","","","","","","","","","","","","","","","","","","","","","","","","","","","","","","","","","",""
"audio-keyboard-response","282","1405995","0.0-8.0-2.0-2.1-0.1","3","1","rj63xxeamfpoxnp","","null","","sounds/syllables/fu_SWS.wav","","null","","","","","","","","","","","","","","","","","","","","","","","","","","","","","","","","","","","","","","","","","",""
"html-keyboard-response","283","1406346","0.0-8.0-2.0-2.1-1.1","3","1","rj63xxeamfpoxnp","","350.2000000178814","","<p>To replay the <u>TARGET SOUND</u>, press P.</p> When you are ready to begin, press SPACEBAR.","","80","","","","","","","","","","","","","","","","","","","","","","","","","","","","","","","","","","","","","","","","","",""
"audio-keyboard-response","284","1407155","0.0-8.0-2.0-2.2-0.2","3","1","rj63xxeamfpoxnp","","null","","sounds/syllables/fu_SWS.wav","","null","","","","","","","","","","","","","","","","","","","","","","","","","","","","","","","","","","","","","","","","","",""
"html-keyboard-response","285","1407693","0.0-8.0-2.0-2.2-1.2","3","1","rj63xxeamfpoxnp","","537.5","","<p>To replay the <u>TARGET SOUND</u>, press P.</p> When you are ready to begin, press SPACEBAR.","","32","","","","","","","","","","","","","","","","","","","","","","","","","","","","","","","","","","","","","","","","","",""
"audio-keyboard-response","286","1422646","0.0-8.0-2.0-3.0","3","1","rj63xxeamfpoxnp","","2320","","sounds/C/TD/FU_02_TD.mp3","","32","","","TD_SUMMARY","","","","","","","","","","","","","","","","","","","","","FU","","1500,6900,9600,13200","3","1500","6900","9600","13200","817.0999999940395","767.5999999940395","null","751.5999999940395","2317.0999999940395_4374.5999999940395_7667.5999999940395_10961.899999976158_13951.59999999404","3","","","","",""
"html-button-response","287","1424335","0.0-8.0-2.0-0.1","3","1","rj63xxeamfpoxnp","","1687.0999999940395","","<p>Trial 2 of 36</p>","0","","","","","","","","","","","","","","","","","","","","","","","","","KO","sounds/syllables/ko_SWS.wav","1800,3600,8100,10800","1","","","","","","","","","","","","","","",""
"html-keyboard-response","288","1426019","0.0-8.0-2.0-1.1","3","1","rj63xxeamfpoxnp","","1682.5999999940395","","","","80","","","","","","","","","","","","","","","","","","","","","","","","KO","","1800,3600,8100,10800","1","","","","","","","","","","","","","","",""
"audio-keyboard-response","289","1426325","0.0-8.0-2.0-2.3-0.3","3","1","rj63xxeamfpoxnp","","null","","sounds/syllables/ko_SWS.wav","","null","","","","","","","","","","","","","","","","","","","","","","","","","","","","","","","","","","","","","","","","","",""
"html-keyboard-response","290","1427122","0.0-8.0-2.0-2.3-1.3","3","1","rj63xxeamfpoxnp","","797","","<p>To replay the <u>TARGET SOUND</u>, press P.</p> When you are ready to begin, press SPACEBAR.","","80","","","","","","","","","","","","","","","","","","","","","","","","","","","","","","","","","","","","","","","","","",""
"audio-keyboard-response","291","1427925","0.0-8.0-2.0-2.4-0.4","3","1","rj63xxeamfpoxnp","","null","","sounds/syllables/ko_SWS.wav","","null","","","","","","","","","","","","","","","","","","","","","","","","","","","","","","","","","","","","","","","","","",""
"html-keyboard-response","292","1429241","0.0-8.0-2.0-2.4-1.4","3","1","rj63xxeamfpoxnp","","1315.7999999821186","","<p>To replay the <u>TARGET SOUND</u>, press P.</p> When you are ready to begin, press SPACEBAR.","","32","","","","","","","","","","","","","","","","","","","","","","","","","","","","","","","","","","","","","","","","","",""
"audio-keyboard-response","293","1444196","0.0-8.0-2.0-3.1","3","1","rj63xxeamfpoxnp","","1251","","sounds/C/TD/KO_02_TD.mp3","","32","","","TD_SUMMARY","","","","","","","","","","","","","","","","","","","","","KO","","1800,3600,8100,10800","1","1800","3600","8100","10800","776.4000000059605","443.80000001192093","null","582.3000000119209","_____1255.9000000059605_2576.4000000059605_4043.800000011921_5160.199999988079_6652.800000011921_8180.699999988079_9810.5_11382.300000011921_12976.800000011921_14327.09999999404","2","","","","",""
"html-button-response","294","1445784","0.0-8.0-2.0-0.2","3","1","rj63xxeamfpoxnp","","1585.199999988079","","<p>Trial 3 of 36</p>","0","","","","","","","","","","","","","","","","","","","","","","","","","TI","sounds/syllables/ti_SWS.wav","1500,5100,8700,11400","3","","","","","","","","","","","","","","",""
"html-keyboard-response","295","1447698","0.0-8.0-2.0-1.2","3","1","rj63xxeamfpoxnp","","1913.0999999940395","","","","80","","","","","","","","","","","","","","","","","","","","","","","","TI","","1500,5100,8700,11400","3","","","","","","","","","","","","","","",""
"audio-keyboard-response","296","1448006","0.0-8.0-2.0-2.5-0.5","3","1","rj63xxeamfpoxnp","","null","","sounds/syllables/ti_SWS.wav","","null","","","","","","","","","","","","","","","","","","","","","","","","","","","","","","","","","","","","","","","","","",""
"html-keyboard-response","297","1448406","0.0-8.0-2.0-2.5-1.5","3","1","rj63xxeamfpoxnp","","399.7999999821186","","<p>To replay the <u>TARGET SOUND</u>, press P.</p> When you are ready to begin, press SPACEBAR.","","80","","","","","","","","","","","","","","","","","","","","","","","","","","","","","","","","","","","","","","","","","",""
"audio-keyboard-response","298","1449205","0.0-8.0-2.0-2.6-0.6","3","1","rj63xxeamfpoxnp","","null","","sounds/syllables/ti_SWS.wav","","null","","","","","","","","","","","","","","","","","","","","","","","","","","","","","","","","","","","","","","","","","",""
"html-keyboard-response","299","1449562","0.0-8.0-2.0-2.6-1.6","3","1","rj63xxeamfpoxnp","","355.5","","<p>To replay the <u>TARGET SOUND</u>, press P.</p> When you are ready to begin, press SPACEBAR.","","80","","","","","","","","","","","","","","","","","","","","","","","","","","","","","","","","","","","","","","","","","",""
"audio-keyboard-response","300","1450366","0.0-8.0-2.0-2.7-0.7","3","1","rj63xxeamfpoxnp","","null","","sounds/syllables/ti_SWS.wav","","null","","","","","","","","","","","","","","","","","","","","","","","","","","","","","","","","","","","","","","","","","",""
"html-keyboard-response","301","1451583","0.0-8.0-2.0-2.7-1.7","3","1","rj63xxeamfpoxnp","","1216.1000000238419","","<p>To replay the <u>TARGET SOUND</u>, press P.</p> When you are ready to begin, press SPACEBAR.","","32","","","","","","","","","","","","","","","","","","","","","","","","","","","","","","","","","","","","","","","","","",""
"audio-keyboard-response","302","1466546","0.0-8.0-2.0-3.2","3","1","rj63xxeamfpoxnp","","1960","","sounds/C/TD/TI_07_TD.mp3","","32","","","TD_SUMMARY","","","","","","","","","","","","","","","","","","","","","TI","","1500,5100,8700,11400","3","1500","5100","8700","11400","468.59999999403954","541.6999999880791","427.7999999821186","613.7999999821186","_______________1968.5999999940395_3911.0999999940395_5641.699999988079_7156.399999976158_9127.799999982119_10613.299999982119_12013.799999982119_13475.399999976158","3","","","","",""
"html-button-response","303","1468606","0.0-8.0-2.0-0.3","3","1","rj63xxeamfpoxnp","","2058.199999988079","","<p>Trial 4 of 36</p>","0","","","","","","","","","","","","","","","","","","","","","","","","","NI","sounds/syllables/ni_SWS.wav","3600,5400,8100,11700","1","","","","","","","","","","","","","","",""
"html-keyboard-response","304","1469068","0.0-8.0-2.0-1.3","3","1","rj63xxeamfpoxnp","","460.59999999403954","","","","80","","","","","","","","","","","","","","","","","","","","","","","","NI","","3600,5400,8100,11700","1","","","","","","","","","","","","","","",""
"audio-keyboard-response","305","1469365","0.0-8.0-2.0-2.8-0.8","3","1","rj63xxeamfpoxnp","","null","","sounds/syllables/ni_SWS.wav","","null","","","","","","","","","","","","","","","","","","","","","","","","","","","","","","","","","","","","","","","","","",""
"html-keyboard-response","306","1469791","0.0-8.0-2.0-2.8-1.8","3","1","rj63xxeamfpoxnp","","425.39999997615814","","<p>To replay the <u>TARGET SOUND</u>, press P.</p> When you are ready to begin, press SPACEBAR.","","80","","","","","","","","","","","","","","","","","","","","","","","","","","","","","","","","","","","","","","","","","",""
"audio-keyboard-response","307","1470595","0.0-8.0-2.0-2.9-0.9","3","1","rj63xxeamfpoxnp","","null","","sounds/syllables/ni_SWS.wav","","null","","","","","","","","","","","","","","","","","","","","","","","","","","","","","","","","","","","","","","","","","",""
"html-keyboard-response","308","1471143","0.0-8.0-2.0-2.9-1.9","3","1","rj63xxeamfpoxnp","","546.8999999761581","","<p>To replay the <u>TARGET SOUND</u>, press P.</p> When you are ready to begin, press SPACEBAR.","","80","","","","","","","","","","","","","","","","","","","","","","","","","","","","","","","","","","","","","","","","","",""
"audio-keyboard-response","309","1471966","0.0-8.0-2.0-2.10-0.10","3","1","rj63xxeamfpoxnp","","null","","sounds/syllables/ni_SWS.wav","","null","","","","","","","","","","","","","","","","","","","","","","","","","","","","","","","","","","","","","","","","","",""
"html-keyboard-response","310","1472593","0.0-8.0-2.0-2.10-1.10","3","1","rj63xxeamfpoxnp","","626.4000000059605","","<p>To replay the <u>TARGET SOUND</u>, press P.</p> When you are ready to begin, press SPACEBAR.","","32","","","","","","","","","","","","","","","","","","","","","","","","","","","","","","","","","","","","","","","","","",""
"audio-keyboard-response","311","1487546","0.0-8.0-2.0-3.3","3","1","rj63xxeamfpoxnp","","1928","","sounds/C/TD/NI_09_TD.mp3","","32","","","TD_SUMMARY","","","","","","","","","","","","","","","","","","","","","NI","","3600,5400,8100,11700","1","3600","5400","8100","11700","null","385.40000000596046","null","308.40000000596046","_______________________1928.7999999821186_3721.4000000059605_5785.4000000059605_7902.5_9710.90000000596_12008.40000000596_13822.59999999404","3","","","","",""
"html-button-response","312","1488801","0.0-8.0-2.0-0.4","3","1","rj63xxeamfpoxnp","","1252.3999999761581","","<p>Trial 5 of 36</p>","0","","","","","","","","","","","","","","","","","","","","","","","","","TI","sounds/syllables/ti_SWS.wav","2400,4200,6900,10500","3","","","","","","","","","","","","","","",""
"html-keyboard-response","313","1489404","0.0-8.0-2.0-1.4","3","1","rj63xxeamfpoxnp","","602.2999999821186","","","","80","","","","","","","","","","","","","","","","","","","","","","","","TI","","2400,4200,6900,10500","3","","","","","","","","","","","","","","",""
