"trial_type","trial_index","time_elapsed","internal_node_id","counterbalance","lang_instruct","ParticipantID","view_history","rt","url","stimulus","button_pressed","key_press","correctRESP","correct","designation","location","correctanswer","timeouts","pause_rt01","pause_rt02","train_file","numKeyPress","sound","fam_type","SYLLABLE","EXEMPLAR","TD_LOCS","TD_TYPE","TDLOC_01","TDLOC_02","TDLOC_03","TDLOC_04","TD_RT_01","TD_RT_02","TD_RT_03","TD_RT_04","TD_SUBJ_RTs","number_of_plays","responses","slider_start","response","question_order","syllable","syllable_type"
"pavlovia","0","4","0.0-0.0","1","0","7gmbq23avrlfnq0","","","","","","","","","","","","","","","","","","","","","","","","","","","","","","","","","","","","","",""
"instructions","1","636472","0.0-1.0","1","0","7gmbq23avrlfnq0","[{""page_index"":0,""viewing_time"":385069.799999997},{""page_index"":1,""viewing_time"":251401.29999999702}]","636473.799999997","","","","","","","","","","","","","","","","","","","","","","","","","","","","","","","","","","","",""
"external-html","2","676403","0.0-2.0","1","0","7gmbq23avrlfnq0","","39528.20000000298","consent/consent.html","","","","","","","","","","","","","","","","","","","","","","","","","","","","","","","","","","",""
"html-button-response","3","681474","0.0-3.0-0.0-0.0","1","0","7gmbq23avrlfnq0","","5067.70000000298","","<p>Welcome to the study. You will first complete a short volume calibration and headphone check.</p><p>Please make sure you are in a quiet listening environment, that you are wearing headphones, and that your computer's volume is turned on.<p></p>","0","","","","","","","","","","","","","","","","","","","","","","","","","","","","","","","","",""
"html-button-response","4","686091","0.0-3.0-0.0-1.0","1","0","7gmbq23avrlfnq0","","4360.70000000298","","<p>The volume calibration will be first.</p><p>You will hear a thirty-second noise. Please adjust your computer's volume so that this noise is being presented at a comfortable level.<p></p>","0","","","","","","","","","","","","","","","","","","","","","","","","","","","","","","","","",""
"audio-button-response","5","702816","0.0-3.0-0.0-2.0","1","0","7gmbq23avrlfnq0","","16053","","audCalib/volumetest.mp3","0","","","","","","","","","","","","","","","","","","","","","","","","","","","","","","","","",""
"html-button-response","6","815384","0.0-3.0-1.0-0.0","1","0","7gmbq23avrlfnq0","","112563.19999998808","","<p>You will now complete a short headphone check.</p><p>On each trial, you will hear three tones. One of these tones will be quieter than the others. Your task is to identify whether the quiet tone occured first, second, or third.</p><p>There are six trials in total.<p></p>","0","","","","","","","","","","","","","","","","","","","","","","","","","","","","","","","","",""
"html-keyboard-response","7","816136","0.0-3.0-1.0-1.0-0.0","1","0","7gmbq23avrlfnq0","","null","","<div style=""font-size:60px;"">+</div>","","null","","","","","","","","","","","","","","","","","","","","","","","","","","","","","","","",""
"audio-button-response","8","830155","0.0-3.0-1.0-1.0-1.0","1","0","7gmbq23avrlfnq0","","13552","","audCalib/t1_1.mp3","0","","0","1","headphone-test","","","","","","","","","","","","","","","","","","","","","","","","","","","","",""
"html-keyboard-response","9","830913","0.0-3.0-1.0-1.0-0.1","1","0","7gmbq23avrlfnq0","","null","","<div style=""font-size:60px;"">+</div>","","null","","","","","","","","","","","","","","","","","","","","","","","","","","","","","","","",""
"audio-button-response","10","836882","0.0-3.0-1.0-1.0-1.1","1","0","7gmbq23avrlfnq0","","5968","","audCalib/t1_2.mp3","0","","0","1","headphone-test","","","","","","","","","","","","","","","","","","","","","","","","","","","","",""
"html-keyboard-response","11","837636","0.0-3.0-1.0-1.0-0.2","1","0","7gmbq23avrlfnq0","","null","","<div style=""font-size:60px;"">+</div>","","null","","","","","","","","","","","","","","","","","","","","","","","","","","","","","","","",""
"audio-button-response","12","842200","0.0-3.0-1.0-1.0-1.2","1","0","7gmbq23avrlfnq0","","4560","","audCalib/t2_2.mp3","1","","1","1","headphone-test","","","","","","","","","","","","","","","","","","","","","","","","","","","","",""
"html-keyboard-response","13","842956","0.0-3.0-1.0-1.0-0.3","1","0","7gmbq23avrlfnq0","","null","","<div style=""font-size:60px;"">+</div>","","null","","","","","","","","","","","","","","","","","","","","","","","","","","","","","","","",""
"audio-button-response","14","847223","0.0-3.0-1.0-1.0-1.3","1","0","7gmbq23avrlfnq0","","4267","","audCalib/t3_1.mp3","2","","2","1","headphone-test","","","","","","","","","","","","","","","","","","","","","","","","","","","","",""
"html-keyboard-response","15","847981","0.0-3.0-1.0-1.0-0.4","1","0","7gmbq23avrlfnq0","","null","","<div style=""font-size:60px;"">+</div>","","null","","","","","","","","","","","","","","","","","","","","","","","","","","","","","","","",""
"audio-button-response","16","855462","0.0-3.0-1.0-1.0-1.4","1","0","7gmbq23avrlfnq0","","7483","","audCalib/t2_1.mp3","1","","1","1","headphone-test","","","","","","","","","","","","","","","","","","","","","","","","","","","","",""
"html-keyboard-response","17","856218","0.0-3.0-1.0-1.0-0.5","1","0","7gmbq23avrlfnq0","","null","","<div style=""font-size:60px;"">+</div>","","null","","","","","","","","","","","","","","","","","","","","","","","","","","","","","","","",""
"audio-button-response","18","860566","0.0-3.0-1.0-1.0-1.5","1","0","7gmbq23avrlfnq0","","4347","","audCalib/t3_2.mp3","2","","2","1","headphone-test","","","","","","","","","","","","","","","","","","","","","","","","","","","","",""
"html-button-response","19","866119","0.0-3.0-2.0","1","0","7gmbq23avrlfnq0","","5297.699999988079","","<p>The volume calibration and headphone check are now complete.</p>","0","","","","","","","","","","","","","","","","","","","","","","","","","","","","","","","","",""
"instructions","20","891431","0.0-4.0-0.0","1","0","7gmbq23avrlfnq0","[{""page_index"":0,""viewing_time"":5232.800000011921},{""page_index"":1,""viewing_time"":16337.40000000596},{""page_index"":2,""viewing_time"":3740.5999999940395}]","25311.09999999404","","","","","","","","","","","","","","","","","","","","","","","","","","","","","","","","","","","",""
"audio-keyboard-response","21","892267","0.0-4.0-1.0-0.0","1","0","7gmbq23avrlfnq0","","null","","sounds/induction/right_rev/ge_SWS.wav","","null","","","","","","","","","","","","","","","","","","","","","","","","","","","","","","","",""
"html-button-response","22","894121","0.0-4.0-1.0-1.0","1","0","7gmbq23avrlfnq0","","1853.2999999821186","","Was the sound coming from the left or the right?","1","","","1","INDUCTION-JUDGMENT","right","1","","","","","","","","","","","","","","","","","","","","","","","","","","",""
"html-keyboard-response","23","895126","0.0-4.0-1.0-2.0","1","0","7gmbq23avrlfnq0","","null","","<p style=""color:#054d00;""><b>Correct!</b></p>","","null","","","","","","","","","","","","","","","","","","","","","","","","","","","","","","","",""
"audio-keyboard-response","24","895931","0.0-4.0-1.0-0.1","1","0","7gmbq23avrlfnq0","","null","","sounds/induction/left_rev/fu_SWS.wav","","null","","","","","","","","","","","","","","","","","","","","","","","","","","","","","","","",""
"html-button-response","25","896854","0.0-4.0-1.0-1.1","1","0","7gmbq23avrlfnq0","","922.0999999940395","","Was the sound coming from the left or the right?","0","","","1","INDUCTION-JUDGMENT","left","0","","","","","","","","","","","","","","","","","","","","","","","","","","",""
"html-keyboard-response","26","897858","0.0-4.0-1.0-2.1","1","0","7gmbq23avrlfnq0","","null","","<p style=""color:#054d00;""><b>Correct!</b></p>","","null","","","","","","","","","","","","","","","","","","","","","","","","","","","","","","","",""
"audio-keyboard-response","27","898662","0.0-4.0-1.0-0.2","1","0","7gmbq23avrlfnq0","","null","","sounds/induction/right_rev/fe_SWS.wav","","null","","","","","","","","","","","","","","","","","","","","","","","","","","","","","","","",""
"html-button-response","28","899513","0.0-4.0-1.0-1.2","1","0","7gmbq23avrlfnq0","","850","","Was the sound coming from the left or the right?","1","","","1","INDUCTION-JUDGMENT","right","1","","","","","","","","","","","","","","","","","","","","","","","","","","",""
"html-keyboard-response","29","900518","0.0-4.0-1.0-2.2","1","0","7gmbq23avrlfnq0","","null","","<p style=""color:#054d00;""><b>Correct!</b></p>","","null","","","","","","","","","","","","","","","","","","","","","","","","","","","","","","","",""
"audio-keyboard-response","30","901323","0.0-4.0-1.0-0.3","1","0","7gmbq23avrlfnq0","","null","","sounds/induction/right_rev/pu_SWS.wav","","null","","","","","","","","","","","","","","","","","","","","","","","","","","","","","","","",""
"html-button-response","31","902302","0.0-4.0-1.0-1.3","1","0","7gmbq23avrlfnq0","","977.6999999880791","","Was the sound coming from the left or the right?","1","","","1","INDUCTION-JUDGMENT","right","1","","","","","","","","","","","","","","","","","","","","","","","","","","",""
"html-keyboard-response","32","903308","0.0-4.0-1.0-2.3","1","0","7gmbq23avrlfnq0","","null","","<p style=""color:#054d00;""><b>Correct!</b></p>","","null","","","","","","","","","","","","","","","","","","","","","","","","","","","","","","","",""
"audio-keyboard-response","33","904113","0.0-4.0-1.0-0.4","1","0","7gmbq23avrlfnq0","","null","","sounds/induction/left_rev/re_SWS.wav","","null","","","","","","","","","","","","","","","","","","","","","","","","","","","","","","","",""
"html-button-response","34","905206","0.0-4.0-1.0-1.4","1","0","7gmbq23avrlfnq0","","1093","","Was the sound coming from the left or the right?","0","","","1","INDUCTION-JUDGMENT","left","0","","","","","","","","","","","","","","","","","","","","","","","","","","",""
"html-keyboard-response","35","906207","0.0-4.0-1.0-2.4","1","0","7gmbq23avrlfnq0","","null","","<p style=""color:#054d00;""><b>Correct!</b></p>","","null","","","","","","","","","","","","","","","","","","","","","","","","","","","","","","","",""
"audio-keyboard-response","36","907014","0.0-4.0-1.0-0.5","1","0","7gmbq23avrlfnq0","","null","","sounds/induction/left_rev/me_SWS.wav","","null","","","","","","","","","","","","","","","","","","","","","","","","","","","","","","","",""
"html-button-response","37","907954","0.0-4.0-1.0-1.5","1","0","7gmbq23avrlfnq0","","939.8000000119209","","Was the sound coming from the left or the right?","0","","","1","INDUCTION-JUDGMENT","left","0","","","","","","","","","","","","","","","","","","","","","","","","","","",""
"html-keyboard-response","38","908955","0.0-4.0-1.0-2.5","1","0","7gmbq23avrlfnq0","","null","","<p style=""color:#054d00;""><b>Correct!</b></p>","","null","","","","","","","","","","","","","","","","","","","","","","","","","","","","","","","",""
"audio-keyboard-response","39","909755","0.0-4.0-1.0-0.6","1","0","7gmbq23avrlfnq0","","null","","sounds/induction/right_rev/ko_SWS.wav","","null","","","","","","","","","","","","","","","","","","","","","","","","","","","","","","","",""
"html-button-response","40","910891","0.0-4.0-1.0-1.6","1","0","7gmbq23avrlfnq0","","1135.4000000059605","","Was the sound coming from the left or the right?","1","","","1","INDUCTION-JUDGMENT","right","1","","","","","","","","","","","","","","","","","","","","","","","","","","",""
"html-keyboard-response","41","911894","0.0-4.0-1.0-2.6","1","0","7gmbq23avrlfnq0","","null","","<p style=""color:#054d00;""><b>Correct!</b></p>","","null","","","","","","","","","","","","","","","","","","","","","","","","","","","","","","","",""
"audio-keyboard-response","42","912700","0.0-4.0-1.0-0.7","1","0","7gmbq23avrlfnq0","","null","","sounds/induction/right_rev/ko_SWS.wav","","null","","","","","","","","","","","","","","","","","","","","","","","","","","","","","","","",""
"html-button-response","43","913427","0.0-4.0-1.0-1.7","1","0","7gmbq23avrlfnq0","","727.1999999880791","","Was the sound coming from the left or the right?","1","","","1","INDUCTION-JUDGMENT","right","1","","","","","","","","","","","","","","","","","","","","","","","","","","",""
"html-keyboard-response","44","914433","0.0-4.0-1.0-2.7","1","0","7gmbq23avrlfnq0","","null","","<p style=""color:#054d00;""><b>Correct!</b></p>","","null","","","","","","","","","","","","","","","","","","","","","","","","","","","","","","","",""
"audio-keyboard-response","45","915238","0.0-4.0-1.0-0.8","1","0","7gmbq23avrlfnq0","","null","","sounds/induction/left_rev/ge_SWS.wav","","null","","","","","","","","","","","","","","","","","","","","","","","","","","","","","","","",""
"html-button-response","46","916250","0.0-4.0-1.0-1.8","1","0","7gmbq23avrlfnq0","","1010.6999999880791","","Was the sound coming from the left or the right?","0","","","1","INDUCTION-JUDGMENT","left","0","","","","","","","","","","","","","","","","","","","","","","","","","","",""
"html-keyboard-response","47","917251","0.0-4.0-1.0-2.8","1","0","7gmbq23avrlfnq0","","null","","<p style=""color:#054d00;""><b>Correct!</b></p>","","null","","","","","","","","","","","","","","","","","","","","","","","","","","","","","","","",""
"audio-keyboard-response","48","918060","0.0-4.0-1.0-0.9","1","0","7gmbq23avrlfnq0","","null","","sounds/induction/left_rev/pu_SWS.wav","","null","","","","","","","","","","","","","","","","","","","","","","","","","","","","","","","",""
"html-button-response","49","919122","0.0-4.0-1.0-1.9","1","0","7gmbq23avrlfnq0","","1061.300000011921","","Was the sound coming from the left or the right?","0","","","1","INDUCTION-JUDGMENT","left","0","","","","","","","","","","","","","","","","","","","","","","","","","","",""
"html-keyboard-response","50","920126","0.0-4.0-1.0-2.9","1","0","7gmbq23avrlfnq0","","null","","<p style=""color:#054d00;""><b>Correct!</b></p>","","null","","","","","","","","","","","","","","","","","","","","","","","","","","","","","","","",""
"audio-keyboard-response","51","920934","0.0-4.0-1.0-0.10","1","0","7gmbq23avrlfnq0","","null","","sounds/induction/right_rev/ru_SWS.wav","","null","","","","","","","","","","","","","","","","","","","","","","","","","","","","","","","",""
"html-button-response","52","921837","0.0-4.0-1.0-1.10","1","0","7gmbq23avrlfnq0","","901.5","","Was the sound coming from the left or the right?","1","","","1","INDUCTION-JUDGMENT","right","1","","","","","","","","","","","","","","","","","","","","","","","","","","",""
"html-keyboard-response","53","922838","0.0-4.0-1.0-2.10","1","0","7gmbq23avrlfnq0","","null","","<p style=""color:#054d00;""><b>Correct!</b></p>","","null","","","","","","","","","","","","","","","","","","","","","","","","","","","","","","","",""
"audio-keyboard-response","54","923638","0.0-4.0-1.0-0.11","1","0","7gmbq23avrlfnq0","","null","","sounds/induction/right_rev/ti_SWS.wav","","null","","","","","","","","","","","","","","","","","","","","","","","","","","","","","","","",""
"html-button-response","55","924349","0.0-4.0-1.0-1.11","1","0","7gmbq23avrlfnq0","","710.3999999761581","","Was the sound coming from the left or the right?","1","","","1","INDUCTION-JUDGMENT","right","1","","","","","","","","","","","","","","","","","","","","","","","","","","",""
"html-keyboard-response","56","925349","0.0-4.0-1.0-2.11","1","0","7gmbq23avrlfnq0","","null","","<p style=""color:#054d00;""><b>Correct!</b></p>","","null","","","","","","","","","","","","","","","","","","","","","","","","","","","","","","","",""
"audio-keyboard-response","57","926154","0.0-4.0-1.0-0.12","1","0","7gmbq23avrlfnq0","","null","","sounds/induction/left_rev/fu_SWS.wav","","null","","","","","","","","","","","","","","","","","","","","","","","","","","","","","","","",""
"html-button-response","58","927112","0.0-4.0-1.0-1.12","1","0","7gmbq23avrlfnq0","","957.7999999821186","","Was the sound coming from the left or the right?","0","","","1","INDUCTION-JUDGMENT","left","0","","","","","","","","","","","","","","","","","","","","","","","","","","",""
"html-keyboard-response","59","928114","0.0-4.0-1.0-2.12","1","0","7gmbq23avrlfnq0","","null","","<p style=""color:#054d00;""><b>Correct!</b></p>","","null","","","","","","","","","","","","","","","","","","","","","","","","","","","","","","","",""
"audio-keyboard-response","60","928920","0.0-4.0-1.0-0.13","1","0","7gmbq23avrlfnq0","","null","","sounds/induction/left_rev/fe_SWS.wav","","null","","","","","","","","","","","","","","","","","","","","","","","","","","","","","","","",""
"html-button-response","61","929696","0.0-4.0-1.0-1.13","1","0","7gmbq23avrlfnq0","","775.2000000178814","","Was the sound coming from the left or the right?","0","","","1","INDUCTION-JUDGMENT","left","0","","","","","","","","","","","","","","","","","","","","","","","","","","",""
"html-keyboard-response","62","930701","0.0-4.0-1.0-2.13","1","0","7gmbq23avrlfnq0","","null","","<p style=""color:#054d00;""><b>Correct!</b></p>","","null","","","","","","","","","","","","","","","","","","","","","","","","","","","","","","","",""
"audio-keyboard-response","63","931506","0.0-4.0-1.0-0.14","1","0","7gmbq23avrlfnq0","","null","","sounds/induction/left_rev/fe_SWS.wav","","null","","","","","","","","","","","","","","","","","","","","","","","","","","","","","","","",""
"html-button-response","64","932180","0.0-4.0-1.0-1.14","1","0","7gmbq23avrlfnq0","","674.3999999761581","","Was the sound coming from the left or the right?","0","","","1","INDUCTION-JUDGMENT","left","0","","","","","","","","","","","","","","","","","","","","","","","","","","",""
"html-keyboard-response","65","933185","0.0-4.0-1.0-2.14","1","0","7gmbq23avrlfnq0","","null","","<p style=""color:#054d00;""><b>Correct!</b></p>","","null","","","","","","","","","","","","","","","","","","","","","","","","","","","","","","","",""
"audio-keyboard-response","66","933990","0.0-4.0-1.0-0.15","1","0","7gmbq23avrlfnq0","","null","","sounds/induction/left_rev/pu_SWS.wav","","null","","","","","","","","","","","","","","","","","","","","","","","","","","","","","","","",""
"html-button-response","67","934887","0.0-4.0-1.0-1.15","1","0","7gmbq23avrlfnq0","","896.6999999880791","","Was the sound coming from the left or the right?","0","","","1","INDUCTION-JUDGMENT","left","0","","","","","","","","","","","","","","","","","","","","","","","","","","",""
"html-keyboard-response","68","935888","0.0-4.0-1.0-2.15","1","0","7gmbq23avrlfnq0","","null","","<p style=""color:#054d00;""><b>Correct!</b></p>","","null","","","","","","","","","","","","","","","","","","","","","","","","","","","","","","","",""
"audio-keyboard-response","69","936693","0.0-4.0-1.0-0.16","1","0","7gmbq23avrlfnq0","","null","","sounds/induction/left_rev/ni_SWS.wav","","null","","","","","","","","","","","","","","","","","","","","","","","","","","","","","","","",""
"html-button-response","70","937333","0.0-4.0-1.0-1.16","1","0","7gmbq23avrlfnq0","","637.9000000059605","","Was the sound coming from the left or the right?","0","","","1","INDUCTION-JUDGMENT","left","0","","","","","","","","","","","","","","","","","","","","","","","","","","",""
"html-keyboard-response","71","938335","0.0-4.0-1.0-2.16","1","0","7gmbq23avrlfnq0","","null","","<p style=""color:#054d00;""><b>Correct!</b></p>","","null","","","","","","","","","","","","","","","","","","","","","","","","","","","","","","","",""
"audio-keyboard-response","72","939140","0.0-4.0-1.0-0.17","1","0","7gmbq23avrlfnq0","","null","","sounds/induction/left_rev/ko_SWS.wav","","null","","","","","","","","","","","","","","","","","","","","","","","","","","","","","","","",""
"html-button-response","73","939744","0.0-4.0-1.0-1.17","1","0","7gmbq23avrlfnq0","","603.4000000059605","","Was the sound coming from the left or the right?","0","","","1","INDUCTION-JUDGMENT","left","0","","","","","","","","","","","","","","","","","","","","","","","","","","",""
"html-keyboard-response","74","940746","0.0-4.0-1.0-2.17","1","0","7gmbq23avrlfnq0","","null","","<p style=""color:#054d00;""><b>Correct!</b></p>","","null","","","","","","","","","","","","","","","","","","","","","","","","","","","","","","","",""
"audio-keyboard-response","75","941550","0.0-4.0-1.0-0.18","1","0","7gmbq23avrlfnq0","","null","","sounds/induction/right_rev/ni_SWS.wav","","null","","","","","","","","","","","","","","","","","","","","","","","","","","","","","","","",""
"html-button-response","76","942321","0.0-4.0-1.0-1.18","1","0","7gmbq23avrlfnq0","","769.5999999940395","","Was the sound coming from the left or the right?","1","","","1","INDUCTION-JUDGMENT","right","1","","","","","","","","","","","","","","","","","","","","","","","","","","",""
"html-keyboard-response","77","943326","0.0-4.0-1.0-2.18","1","0","7gmbq23avrlfnq0","","null","","<p style=""color:#054d00;""><b>Correct!</b></p>","","null","","","","","","","","","","","","","","","","","","","","","","","","","","","","","","","",""
"audio-keyboard-response","78","944131","0.0-4.0-1.0-0.19","1","0","7gmbq23avrlfnq0","","null","","sounds/induction/left_rev/ta_SWS.wav","","null","","","","","","","","","","","","","","","","","","","","","","","","","","","","","","","",""
"html-button-response","79","944986","0.0-4.0-1.0-1.19","1","0","7gmbq23avrlfnq0","","854.6000000238419","","Was the sound coming from the left or the right?","0","","","1","INDUCTION-JUDGMENT","left","0","","","","","","","","","","","","","","","","","","","","","","","","","","",""
"html-keyboard-response","80","945987","0.0-4.0-1.0-2.19","1","0","7gmbq23avrlfnq0","","null","","<p style=""color:#054d00;""><b>Correct!</b></p>","","null","","","","","","","","","","","","","","","","","","","","","","","","","","","","","","","",""
"audio-keyboard-response","81","946792","0.0-4.0-1.0-0.20","1","0","7gmbq23avrlfnq0","","null","","sounds/induction/right_rev/me_SWS.wav","","null","","","","","","","","","","","","","","","","","","","","","","","","","","","","","","","",""
"html-button-response","82","947645","0.0-4.0-1.0-1.20","1","0","7gmbq23avrlfnq0","","852.5","","Was the sound coming from the left or the right?","1","","","1","INDUCTION-JUDGMENT","right","1","","","","","","","","","","","","","","","","","","","","","","","","","","",""
"html-keyboard-response","83","948646","0.0-4.0-1.0-2.20","1","0","7gmbq23avrlfnq0","","null","","<p style=""color:#054d00;""><b>Correct!</b></p>","","null","","","","","","","","","","","","","","","","","","","","","","","","","","","","","","","",""
"audio-keyboard-response","84","949448","0.0-4.0-1.0-0.21","1","0","7gmbq23avrlfnq0","","null","","sounds/induction/right_rev/fu_SWS.wav","","null","","","","","","","","","","","","","","","","","","","","","","","","","","","","","","","",""
"html-button-response","85","950450","0.0-4.0-1.0-1.21","1","0","7gmbq23avrlfnq0","","1001.5999999940395","","Was the sound coming from the left or the right?","1","","","1","INDUCTION-JUDGMENT","right","1","","","","","","","","","","","","","","","","","","","","","","","","","","",""
"html-keyboard-response","86","951453","0.0-4.0-1.0-2.21","1","0","7gmbq23avrlfnq0","","null","","<p style=""color:#054d00;""><b>Correct!</b></p>","","null","","","","","","","","","","","","","","","","","","","","","","","","","","","","","","","",""
"audio-keyboard-response","87","952258","0.0-4.0-1.0-0.22","1","0","7gmbq23avrlfnq0","","null","","sounds/induction/right_rev/su_SWS.wav","","null","","","","","","","","","","","","","","","","","","","","","","","","","","","","","","","",""
"html-button-response","88","952985","0.0-4.0-1.0-1.22","1","0","7gmbq23avrlfnq0","","726.5","","Was the sound coming from the left or the right?","1","","","1","INDUCTION-JUDGMENT","right","1","","","","","","","","","","","","","","","","","","","","","","","","","","",""
"html-keyboard-response","89","953986","0.0-4.0-1.0-2.22","1","0","7gmbq23avrlfnq0","","null","","<p style=""color:#054d00;""><b>Correct!</b></p>","","null","","","","","","","","","","","","","","","","","","","","","","","","","","","","","","","",""
"audio-keyboard-response","90","954791","0.0-4.0-1.0-0.23","1","0","7gmbq23avrlfnq0","","null","","sounds/induction/left_rev/re_SWS.wav","","null","","","","","","","","","","","","","","","","","","","","","","","","","","","","","","","",""
"html-button-response","91","955545","0.0-4.0-1.0-1.23","1","0","7gmbq23avrlfnq0","","753.5999999940395","","Was the sound coming from the left or the right?","0","","","1","INDUCTION-JUDGMENT","left","0","","","","","","","","","","","","","","","","","","","","","","","","","","",""
"html-keyboard-response","92","956549","0.0-4.0-1.0-2.23","1","0","7gmbq23avrlfnq0","","null","","<p style=""color:#054d00;""><b>Correct!</b></p>","","null","","","","","","","","","","","","","","","","","","","","","","","","","","","","","","","",""
"audio-keyboard-response","93","957351","0.0-4.0-1.0-0.24","1","0","7gmbq23avrlfnq0","","null","","sounds/induction/right_rev/ti_SWS.wav","","null","","","","","","","","","","","","","","","","","","","","","","","","","","","","","","","",""
"html-button-response","94","958024","0.0-4.0-1.0-1.24","1","0","7gmbq23avrlfnq0","","672.5999999940395","","Was the sound coming from the left or the right?","1","","","1","INDUCTION-JUDGMENT","right","1","","","","","","","","","","","","","","","","","","","","","","","","","","",""
"html-keyboard-response","95","959027","0.0-4.0-1.0-2.24","1","0","7gmbq23avrlfnq0","","null","","<p style=""color:#054d00;""><b>Correct!</b></p>","","null","","","","","","","","","","","","","","","","","","","","","","","","","","","","","","","",""
"audio-keyboard-response","96","959836","0.0-4.0-1.0-0.25","1","0","7gmbq23avrlfnq0","","null","","sounds/induction/right_rev/me_SWS.wav","","null","","","","","","","","","","","","","","","","","","","","","","","","","","","","","","","",""
"html-button-response","97","960462","0.0-4.0-1.0-1.25","1","0","7gmbq23avrlfnq0","","625","","Was the sound coming from the left or the right?","1","","","1","INDUCTION-JUDGMENT","right","1","","","","","","","","","","","","","","","","","","","","","","","","","","",""
"html-keyboard-response","98","961463","0.0-4.0-1.0-2.25","1","0","7gmbq23avrlfnq0","","null","","<p style=""color:#054d00;""><b>Correct!</b></p>","","null","","","","","","","","","","","","","","","","","","","","","","","","","","","","","","","",""
"audio-keyboard-response","99","962268","0.0-4.0-1.0-0.26","1","0","7gmbq23avrlfnq0","","null","","sounds/induction/right_rev/pu_SWS.wav","","null","","","","","","","","","","","","","","","","","","","","","","","","","","","","","","","",""
"html-button-response","100","963783","0.0-4.0-1.0-1.26","1","0","7gmbq23avrlfnq0","","1514.2000000178814","","Was the sound coming from the left or the right?","1","","","1","INDUCTION-JUDGMENT","right","1","","","","","","","","","","","","","","","","","","","","","","","","","","",""
"html-keyboard-response","101","964785","0.0-4.0-1.0-2.26","1","0","7gmbq23avrlfnq0","","null","","<p style=""color:#054d00;""><b>Correct!</b></p>","","null","","","","","","","","","","","","","","","","","","","","","","","","","","","","","","","",""
"audio-keyboard-response","102","965591","0.0-4.0-1.0-0.27","1","0","7gmbq23avrlfnq0","","null","","sounds/induction/left_rev/ti_SWS.wav","","null","","","","","","","","","","","","","","","","","","","","","","","","","","","","","","","",""
"html-button-response","103","966286","0.0-4.0-1.0-1.27","1","0","7gmbq23avrlfnq0","","694.5","","Was the sound coming from the left or the right?","0","","","1","INDUCTION-JUDGMENT","left","0","","","","","","","","","","","","","","","","","","","","","","","","","","",""
"html-keyboard-response","104","967288","0.0-4.0-1.0-2.27","1","0","7gmbq23avrlfnq0","","null","","<p style=""color:#054d00;""><b>Correct!</b></p>","","null","","","","","","","","","","","","","","","","","","","","","","","","","","","","","","","",""
"audio-keyboard-response","105","968097","0.0-4.0-1.0-0.28","1","0","7gmbq23avrlfnq0","","null","","sounds/induction/left_rev/me_SWS.wav","","null","","","","","","","","","","","","","","","","","","","","","","","","","","","","","","","",""
"html-button-response","106","968781","0.0-4.0-1.0-1.28","1","0","7gmbq23avrlfnq0","","682.9000000059605","","Was the sound coming from the left or the right?","0","","","1","INDUCTION-JUDGMENT","left","0","","","","","","","","","","","","","","","","","","","","","","","","","","",""
"html-keyboard-response","107","969782","0.0-4.0-1.0-2.28","1","0","7gmbq23avrlfnq0","","null","","<p style=""color:#054d00;""><b>Correct!</b></p>","","null","","","","","","","","","","","","","","","","","","","","","","","","","","","","","","","",""
"audio-keyboard-response","108","970588","0.0-4.0-1.0-0.29","1","0","7gmbq23avrlfnq0","","null","","sounds/induction/left_rev/ge_SWS.wav","","null","","","","","","","","","","","","","","","","","","","","","","","","","","","","","","","",""
"html-button-response","109","971259","0.0-4.0-1.0-1.29","1","0","7gmbq23avrlfnq0","","670.7999999821186","","Was the sound coming from the left or the right?","0","","","1","INDUCTION-JUDGMENT","left","0","","","","","","","","","","","","","","","","","","","","","","","","","","",""
"html-keyboard-response","110","972262","0.0-4.0-1.0-2.29","1","0","7gmbq23avrlfnq0","","null","","<p style=""color:#054d00;""><b>Correct!</b></p>","","null","","","","","","","","","","","","","","","","","","","","","","","","","","","","","","","",""
"audio-keyboard-response","111","973068","0.0-4.0-1.0-0.30","1","0","7gmbq23avrlfnq0","","null","","sounds/induction/left_rev/ru_SWS.wav","","null","","","","","","","","","","","","","","","","","","","","","","","","","","","","","","","",""
"html-button-response","112","973762","0.0-4.0-1.0-1.30","1","0","7gmbq23avrlfnq0","","693.5999999940395","","Was the sound coming from the left or the right?","0","","","1","INDUCTION-JUDGMENT","left","0","","","","","","","","","","","","","","","","","","","","","","","","","","",""
"html-keyboard-response","113","974764","0.0-4.0-1.0-2.30","1","0","7gmbq23avrlfnq0","","null","","<p style=""color:#054d00;""><b>Correct!</b></p>","","null","","","","","","","","","","","","","","","","","","","","","","","","","","","","","","","",""
"audio-keyboard-response","114","975569","0.0-4.0-1.0-0.31","1","0","7gmbq23avrlfnq0","","null","","sounds/induction/right_rev/fe_SWS.wav","","null","","","","","","","","","","","","","","","","","","","","","","","","","","","","","","","",""
"html-button-response","115","976290","0.0-4.0-1.0-1.31","1","0","7gmbq23avrlfnq0","","720.2000000178814","","Was the sound coming from the left or the right?","1","","","1","INDUCTION-JUDGMENT","right","1","","","","","","","","","","","","","","","","","","","","","","","","","","",""
"html-keyboard-response","116","977291","0.0-4.0-1.0-2.31","1","0","7gmbq23avrlfnq0","","null","","<p style=""color:#054d00;""><b>Correct!</b></p>","","null","","","","","","","","","","","","","","","","","","","","","","","","","","","","","","","",""
"audio-keyboard-response","117","978097","0.0-4.0-1.0-0.32","1","0","7gmbq23avrlfnq0","","null","","sounds/induction/left_rev/ko_SWS.wav","","null","","","","","","","","","","","","","","","","","","","","","","","","","","","","","","","",""
"html-button-response","118","978735","0.0-4.0-1.0-1.32","1","0","7gmbq23avrlfnq0","","637.7000000178814","","Was the sound coming from the left or the right?","0","","","1","INDUCTION-JUDGMENT","left","0","","","","","","","","","","","","","","","","","","","","","","","","","","",""
"html-keyboard-response","119","979740","0.0-4.0-1.0-2.32","1","0","7gmbq23avrlfnq0","","null","","<p style=""color:#054d00;""><b>Correct!</b></p>","","null","","","","","","","","","","","","","","","","","","","","","","","","","","","","","","","",""
"audio-keyboard-response","120","980545","0.0-4.0-1.0-0.33","1","0","7gmbq23avrlfnq0","","null","","sounds/induction/left_rev/ta_SWS.wav","","null","","","","","","","","","","","","","","","","","","","","","","","","","","","","","","","",""
"html-button-response","121","981533","0.0-4.0-1.0-1.33","1","0","7gmbq23avrlfnq0","","986.5999999940395","","Was the sound coming from the left or the right?","0","","","1","INDUCTION-JUDGMENT","left","0","","","","","","","","","","","","","","","","","","","","","","","","","","",""
"html-keyboard-response","122","982534","0.0-4.0-1.0-2.33","1","0","7gmbq23avrlfnq0","","null","","<p style=""color:#054d00;""><b>Correct!</b></p>","","null","","","","","","","","","","","","","","","","","","","","","","","","","","","","","","","",""
"audio-keyboard-response","123","983340","0.0-4.0-1.0-0.34","1","0","7gmbq23avrlfnq0","","null","","sounds/induction/left_rev/ni_SWS.wav","","null","","","","","","","","","","","","","","","","","","","","","","","","","","","","","","","",""
"html-button-response","124","983921","0.0-4.0-1.0-1.34","1","0","7gmbq23avrlfnq0","","580.3999999761581","","Was the sound coming from the left or the right?","0","","","1","INDUCTION-JUDGMENT","left","0","","","","","","","","","","","","","","","","","","","","","","","","","","",""
"html-keyboard-response","125","984924","0.0-4.0-1.0-2.34","1","0","7gmbq23avrlfnq0","","null","","<p style=""color:#054d00;""><b>Correct!</b></p>","","null","","","","","","","","","","","","","","","","","","","","","","","","","","","","","","","",""
"audio-keyboard-response","126","985729","0.0-4.0-1.0-0.35","1","0","7gmbq23avrlfnq0","","null","","sounds/induction/left_rev/su_SWS.wav","","null","","","","","","","","","","","","","","","","","","","","","","","","","","","","","","","",""
"html-button-response","127","986563","0.0-4.0-1.0-1.35","1","0","7gmbq23avrlfnq0","","833.2999999821186","","Was the sound coming from the left or the right?","0","","","1","INDUCTION-JUDGMENT","left","0","","","","","","","","","","","","","","","","","","","","","","","","","","",""
"html-keyboard-response","128","987569","0.0-4.0-1.0-2.35","1","0","7gmbq23avrlfnq0","","null","","<p style=""color:#054d00;""><b>Correct!</b></p>","","null","","","","","","","","","","","","","","","","","","","","","","","","","","","","","","","",""
"audio-keyboard-response","129","988375","0.0-4.0-1.0-0.36","1","0","7gmbq23avrlfnq0","","null","","sounds/induction/right_rev/re_SWS.wav","","null","","","","","","","","","","","","","","","","","","","","","","","","","","","","","","","",""
"html-button-response","130","989051","0.0-4.0-1.0-1.36","1","0","7gmbq23avrlfnq0","","675.5999999940395","","Was the sound coming from the left or the right?","1","","","1","INDUCTION-JUDGMENT","right","1","","","","","","","","","","","","","","","","","","","","","","","","","","",""
"html-keyboard-response","131","990053","0.0-4.0-1.0-2.36","1","0","7gmbq23avrlfnq0","","null","","<p style=""color:#054d00;""><b>Correct!</b></p>","","null","","","","","","","","","","","","","","","","","","","","","","","","","","","","","","","",""
"audio-keyboard-response","132","990855","0.0-4.0-1.0-0.37","1","0","7gmbq23avrlfnq0","","null","","sounds/induction/right_rev/ta_SWS.wav","","null","","","","","","","","","","","","","","","","","","","","","","","","","","","","","","","",""
"html-button-response","133","992584","0.0-4.0-1.0-1.37","1","0","7gmbq23avrlfnq0","","1728.5999999940395","","Was the sound coming from the left or the right?","1","","","1","INDUCTION-JUDGMENT","right","1","","","","","","","","","","","","","","","","","","","","","","","","","","",""
"html-keyboard-response","134","993588","0.0-4.0-1.0-2.37","1","0","7gmbq23avrlfnq0","","null","","<p style=""color:#054d00;""><b>Correct!</b></p>","","null","","","","","","","","","","","","","","","","","","","","","","","","","","","","","","","",""
"audio-keyboard-response","135","994391","0.0-4.0-1.0-0.38","1","0","7gmbq23avrlfnq0","","null","","sounds/induction/right_rev/re_SWS.wav","","null","","","","","","","","","","","","","","","","","","","","","","","","","","","","","","","",""
"html-button-response","136","995177","0.0-4.0-1.0-1.38","1","0","7gmbq23avrlfnq0","","785.5999999940395","","Was the sound coming from the left or the right?","1","","","1","INDUCTION-JUDGMENT","right","1","","","","","","","","","","","","","","","","","","","","","","","","","","",""
"html-keyboard-response","137","996183","0.0-4.0-1.0-2.38","1","0","7gmbq23avrlfnq0","","null","","<p style=""color:#054d00;""><b>Correct!</b></p>","","null","","","","","","","","","","","","","","","","","","","","","","","","","","","","","","","",""
"audio-keyboard-response","138","996988","0.0-4.0-1.0-0.39","1","0","7gmbq23avrlfnq0","","null","","sounds/induction/left_rev/su_SWS.wav","","null","","","","","","","","","","","","","","","","","","","","","","","","","","","","","","","",""
"html-button-response","139","997624","0.0-4.0-1.0-1.39","1","0","7gmbq23avrlfnq0","","635","","Was the sound coming from the left or the right?","0","","","1","INDUCTION-JUDGMENT","left","0","","","","","","","","","","","","","","","","","","","","","","","","","","",""
"html-keyboard-response","140","998627","0.0-4.0-1.0-2.39","1","0","7gmbq23avrlfnq0","","null","","<p style=""color:#054d00;""><b>Correct!</b></p>","","null","","","","","","","","","","","","","","","","","","","","","","","","","","","","","","","",""
"audio-keyboard-response","141","999436","0.0-4.0-1.0-0.40","1","0","7gmbq23avrlfnq0","","null","","sounds/induction/left_rev/ti_SWS.wav","","null","","","","","","","","","","","","","","","","","","","","","","","","","","","","","","","",""
"html-button-response","142","1000168","0.0-4.0-1.0-1.40","1","0","7gmbq23avrlfnq0","","731","","Was the sound coming from the left or the right?","0","","","1","INDUCTION-JUDGMENT","left","0","","","","","","","","","","","","","","","","","","","","","","","","","","",""
"html-keyboard-response","143","1001170","0.0-4.0-1.0-2.40","1","0","7gmbq23avrlfnq0","","null","","<p style=""color:#054d00;""><b>Correct!</b></p>","","null","","","","","","","","","","","","","","","","","","","","","","","","","","","","","","","",""
"audio-keyboard-response","144","1001975","0.0-4.0-1.0-0.41","1","0","7gmbq23avrlfnq0","","null","","sounds/induction/left_rev/ru_SWS.wav","","null","","","","","","","","","","","","","","","","","","","","","","","","","","","","","","","",""
"html-button-response","145","1002637","0.0-4.0-1.0-1.41","1","0","7gmbq23avrlfnq0","","661.6000000238419","","Was the sound coming from the left or the right?","0","","","1","INDUCTION-JUDGMENT","left","0","","","","","","","","","","","","","","","","","","","","","","","","","","",""
"html-keyboard-response","146","1003639","0.0-4.0-1.0-2.41","1","0","7gmbq23avrlfnq0","","null","","<p style=""color:#054d00;""><b>Correct!</b></p>","","null","","","","","","","","","","","","","","","","","","","","","","","","","","","","","","","",""
"audio-keyboard-response","147","1004444","0.0-4.0-1.0-0.42","1","0","7gmbq23avrlfnq0","","null","","sounds/induction/right_rev/ta_SWS.wav","","null","","","","","","","","","","","","","","","","","","","","","","","","","","","","","","","",""
"html-button-response","148","1005141","0.0-4.0-1.0-1.42","1","0","7gmbq23avrlfnq0","","695.5999999940395","","Was the sound coming from the left or the right?","1","","","1","INDUCTION-JUDGMENT","right","1","","","","","","","","","","","","","","","","","","","","","","","","","","",""
"html-keyboard-response","149","1006144","0.0-4.0-1.0-2.42","1","0","7gmbq23avrlfnq0","","null","","<p style=""color:#054d00;""><b>Correct!</b></p>","","null","","","","","","","","","","","","","","","","","","","","","","","","","","","","","","","",""
"audio-keyboard-response","150","1006951","0.0-4.0-1.0-0.43","1","0","7gmbq23avrlfnq0","","null","","sounds/induction/right_rev/fu_SWS.wav","","null","","","","","","","","","","","","","","","","","","","","","","","","","","","","","","","",""
"html-button-response","151","1007644","0.0-4.0-1.0-1.43","1","0","7gmbq23avrlfnq0","","692.2000000178814","","Was the sound coming from the left or the right?","1","","","1","INDUCTION-JUDGMENT","right","1","","","","","","","","","","","","","","","","","","","","","","","","","","",""
"html-keyboard-response","152","1008647","0.0-4.0-1.0-2.43","1","0","7gmbq23avrlfnq0","","null","","<p style=""color:#054d00;""><b>Correct!</b></p>","","null","","","","","","","","","","","","","","","","","","","","","","","","","","","","","","","",""
"audio-keyboard-response","153","1009452","0.0-4.0-1.0-0.44","1","0","7gmbq23avrlfnq0","","null","","sounds/induction/right_rev/ge_SWS.wav","","null","","","","","","","","","","","","","","","","","","","","","","","","","","","","","","","",""
"html-button-response","154","1010122","0.0-4.0-1.0-1.44","1","0","7gmbq23avrlfnq0","","669.3999999761581","","Was the sound coming from the left or the right?","1","","","1","INDUCTION-JUDGMENT","right","1","","","","","","","","","","","","","","","","","","","","","","","","","","",""
"html-keyboard-response","155","1011124","0.0-4.0-1.0-2.44","1","0","7gmbq23avrlfnq0","","null","","<p style=""color:#054d00;""><b>Correct!</b></p>","","null","","","","","","","","","","","","","","","","","","","","","","","","","","","","","","","",""
"audio-keyboard-response","156","1011933","0.0-4.0-1.0-0.45","1","0","7gmbq23avrlfnq0","","null","","sounds/induction/right_rev/su_SWS.wav","","null","","","","","","","","","","","","","","","","","","","","","","","","","","","","","","","",""
"html-button-response","157","1012879","0.0-4.0-1.0-1.45","1","0","7gmbq23avrlfnq0","","945.5","","Was the sound coming from the left or the right?","1","","","1","INDUCTION-JUDGMENT","right","1","","","","","","","","","","","","","","","","","","","","","","","","","","",""
"html-keyboard-response","158","1013880","0.0-4.0-1.0-2.45","1","0","7gmbq23avrlfnq0","","null","","<p style=""color:#054d00;""><b>Correct!</b></p>","","null","","","","","","","","","","","","","","","","","","","","","","","","","","","","","","","",""
"audio-keyboard-response","159","1014684","0.0-4.0-1.0-0.46","1","0","7gmbq23avrlfnq0","","null","","sounds/induction/right_rev/ni_SWS.wav","","null","","","","","","","","","","","","","","","","","","","","","","","","","","","","","","","",""
"html-button-response","160","1015447","0.0-4.0-1.0-1.46","1","0","7gmbq23avrlfnq0","","762.4000000059605","","Was the sound coming from the left or the right?","1","","","1","INDUCTION-JUDGMENT","right","1","","","","","","","","","","","","","","","","","","","","","","","","","","",""
"html-keyboard-response","161","1016449","0.0-4.0-1.0-2.46","1","0","7gmbq23avrlfnq0","","null","","<p style=""color:#054d00;""><b>Correct!</b></p>","","null","","","","","","","","","","","","","","","","","","","","","","","","","","","","","","","",""
"audio-keyboard-response","162","1017256","0.0-4.0-1.0-0.47","1","0","7gmbq23avrlfnq0","","null","","sounds/induction/right_rev/ru_SWS.wav","","null","","","","","","","","","","","","","","","","","","","","","","","","","","","","","","","",""
"html-button-response","163","1017747","0.0-4.0-1.0-1.47","1","0","7gmbq23avrlfnq0","","490.2999999821186","","Was the sound coming from the left or the right?","1","","","1","INDUCTION-JUDGMENT","right","1","","","","","","","","","","","","","","","","","","","","","","","","","","",""
"html-keyboard-response","164","1018749","0.0-4.0-1.0-2.47","1","0","7gmbq23avrlfnq0","","null","","<p style=""color:#054d00;""><b>Correct!</b></p>","","null","","","","","","","","","","","","","","","","","","","","","","","","","","","","","","","",""
"html-button-response","165","1032333","0.0-5.0-0.0","1","0","7gmbq23avrlfnq0","","13079.799999982119","","<p>Thank you for your answers.</p><p>You will now listen to similar sounds. The main difference is that the sounds will be longer.</p><p>Just as before, you will be asked to judge whether the sound was coming from the left or the right.</p><p>There are 10 of these longer sounds in total.","0","","","","","","","","","","","","","","","","","","","","","","","","","","","","","","","","",""
"audio-keyboard-response","166","1035320","0.0-5.0-1.0-0.0","1","0","7gmbq23avrlfnq0","","null","","sounds/sentences/left_rev/14_05_cfSWS.wav","","null","","","","","","","","","","","","","","","","","","","","","","","","","","","","","","","",""
"html-button-response","167","1036724","0.0-5.0-1.0-1.0","1","0","7gmbq23avrlfnq0","","1403.9000000059605","","Was the sound coming from the left or the right?","0","","","1","INDUCTION-JUDGMENT","left","0","","","","","","","","","","","","","","","","","","","","","","","","","","",""
"html-keyboard-response","168","1037725","0.0-5.0-1.0-2.0","1","0","7gmbq23avrlfnq0","","null","","<p style=""color:#054d00;""><b>Correct!</b></p>","","null","","","","","","","","","","","","","","","","","","","","","","","","","","","","","","","",""
"html-button-response","169","1039631","0.0-5.0-1.0-3.0","1","0","7gmbq23avrlfnq0","","1400.5","","<p>Press the button below when you are ready to continue.</p>","0","","","","","","","","","","","","","","","","","","","","","","","","","","","","","","","","",""
"audio-keyboard-response","170","1042387","0.0-5.0-1.0-0.1","1","0","7gmbq23avrlfnq0","","null","","sounds/sentences/right_rev/14_08_cfSWS.wav","","null","","","","","","","","","","","","","","","","","","","","","","","","","","","","","","","",""
"html-button-response","171","1042993","0.0-5.0-1.0-1.1","1","0","7gmbq23avrlfnq0","","604.8000000119209","","Was the sound coming from the left or the right?","1","","","1","INDUCTION-JUDGMENT","right","1","","","","","","","","","","","","","","","","","","","","","","","","","","",""
"html-keyboard-response","172","1043997","0.0-5.0-1.0-2.1","1","0","7gmbq23avrlfnq0","","null","","<p style=""color:#054d00;""><b>Correct!</b></p>","","null","","","","","","","","","","","","","","","","","","","","","","","","","","","","","","","",""
"html-button-response","173","1045136","0.0-5.0-1.0-3.1","1","0","7gmbq23avrlfnq0","","636.9000000059605","","<p>Press the button below when you are ready to continue.</p>","0","","","","","","","","","","","","","","","","","","","","","","","","","","","","","","","","",""
"audio-keyboard-response","174","1048030","0.0-5.0-1.0-0.2","1","0","7gmbq23avrlfnq0","","null","","sounds/sentences/right_rev/14_07_cfSWS.wav","","null","","","","","","","","","","","","","","","","","","","","","","","","","","","","","","","",""
"html-button-response","175","1048646","0.0-5.0-1.0-1.2","1","0","7gmbq23avrlfnq0","","615.2000000178814","","Was the sound coming from the left or the right?","1","","","1","INDUCTION-JUDGMENT","right","1","","","","","","","","","","","","","","","","","","","","","","","","","","",""
"html-keyboard-response","176","1049651","0.0-5.0-1.0-2.2","1","0","7gmbq23avrlfnq0","","null","","<p style=""color:#054d00;""><b>Correct!</b></p>","","null","","","","","","","","","","","","","","","","","","","","","","","","","","","","","","","",""
"html-button-response","177","1050969","0.0-5.0-1.0-3.2","1","0","7gmbq23avrlfnq0","","816.1999999880791","","<p>Press the button below when you are ready to continue.</p>","0","","","","","","","","","","","","","","","","","","","","","","","","","","","","","","","","",""
"audio-keyboard-response","178","1053790","0.0-5.0-1.0-0.3","1","0","7gmbq23avrlfnq0","","null","","sounds/sentences/left_rev/14_02_cfSWS.wav","","null","","","","","","","","","","","","","","","","","","","","","","","","","","","","","","","",""
"html-button-response","179","1054749","0.0-5.0-1.0-1.3","1","0","7gmbq23avrlfnq0","","958.1999999880791","","Was the sound coming from the left or the right?","0","","","1","INDUCTION-JUDGMENT","left","0","","","","","","","","","","","","","","","","","","","","","","","","","","",""
"html-keyboard-response","180","1055750","0.0-5.0-1.0-2.3","1","0","7gmbq23avrlfnq0","","null","","<p style=""color:#054d00;""><b>Correct!</b></p>","","null","","","","","","","","","","","","","","","","","","","","","","","","","","","","","","","",""
"html-button-response","181","1056688","0.0-5.0-1.0-3.3","1","0","7gmbq23avrlfnq0","","436.80000001192093","","<p>Press the button below when you are ready to continue.</p>","0","","","","","","","","","","","","","","","","","","","","","","","","","","","","","","","","",""
"audio-keyboard-response","182","1059241","0.0-5.0-1.0-0.4","1","0","7gmbq23avrlfnq0","","null","","sounds/sentences/left_rev/14_04_cfSWS.wav","","null","","","","","","","","","","","","","","","","","","","","","","","","","","","","","","","",""
"html-button-response","183","1059919","0.0-5.0-1.0-1.4","1","0","7gmbq23avrlfnq0","","677.3000000119209","","Was the sound coming from the left or the right?","0","","","1","INDUCTION-JUDGMENT","left","0","","","","","","","","","","","","","","","","","","","","","","","","","","",""
"html-keyboard-response","184","1060921","0.0-5.0-1.0-2.4","1","0","7gmbq23avrlfnq0","","null","","<p style=""color:#054d00;""><b>Correct!</b></p>","","null","","","","","","","","","","","","","","","","","","","","","","","","","","","","","","","",""
"html-button-response","185","1062560","0.0-5.0-1.0-3.4","1","0","7gmbq23avrlfnq0","","1137.7000000178814","","<p>Press the button below when you are ready to continue.</p>","0","","","","","","","","","","","","","","","","","","","","","","","","","","","","","","","","",""
"audio-keyboard-response","186","1065305","0.0-5.0-1.0-0.5","1","0","7gmbq23avrlfnq0","","null","","sounds/sentences/right_rev/14_06_cfSWS.wav","","null","","","","","","","","","","","","","","","","","","","","","","","","","","","","","","","",""
"html-button-response","187","1066209","0.0-5.0-1.0-1.5","1","0","7gmbq23avrlfnq0","","903.5999999940395","","Was the sound coming from the left or the right?","1","","","1","INDUCTION-JUDGMENT","right","1","","","","","","","","","","","","","","","","","","","","","","","","","","",""
"html-keyboard-response","188","1067214","0.0-5.0-1.0-2.5","1","0","7gmbq23avrlfnq0","","null","","<p style=""color:#054d00;""><b>Correct!</b></p>","","null","","","","","","","","","","","","","","","","","","","","","","","","","","","","","","","",""
"html-button-response","189","1068499","0.0-5.0-1.0-3.5","1","0","7gmbq23avrlfnq0","","783.8999999761581","","<p>Press the button below when you are ready to continue.</p>","0","","","","","","","","","","","","","","","","","","","","","","","","","","","","","","","","",""
"audio-keyboard-response","190","1071518","0.0-5.0-1.0-0.6","1","0","7gmbq23avrlfnq0","","null","","sounds/sentences/right_rev/14_10_cfSWS.wav","","null","","","","","","","","","","","","","","","","","","","","","","","","","","","","","","","",""
"html-button-response","191","1072010","0.0-5.0-1.0-1.6","1","0","7gmbq23avrlfnq0","","490.40000000596046","","Was the sound coming from the left or the right?","1","","","1","INDUCTION-JUDGMENT","right","1","","","","","","","","","","","","","","","","","","","","","","","","","","",""
"html-keyboard-response","192","1073012","0.0-5.0-1.0-2.6","1","0","7gmbq23avrlfnq0","","null","","<p style=""color:#054d00;""><b>Correct!</b></p>","","null","","","","","","","","","","","","","","","","","","","","","","","","","","","","","","","",""
"html-button-response","193","1074112","0.0-5.0-1.0-3.6","1","0","7gmbq23avrlfnq0","","598.6000000238419","","<p>Press the button below when you are ready to continue.</p>","0","","","","","","","","","","","","","","","","","","","","","","","","","","","","","","","","",""
"audio-keyboard-response","194","1076841","0.0-5.0-1.0-0.7","1","0","7gmbq23avrlfnq0","","null","","sounds/sentences/right_rev/14_09_cfSWS.wav","","null","","","","","","","","","","","","","","","","","","","","","","","","","","","","","","","",""
"html-button-response","195","1077335","0.0-5.0-1.0-1.7","1","0","7gmbq23avrlfnq0","","492.7000000178814","","Was the sound coming from the left or the right?","1","","","1","INDUCTION-JUDGMENT","right","1","","","","","","","","","","","","","","","","","","","","","","","","","","",""
"html-keyboard-response","196","1078340","0.0-5.0-1.0-2.7","1","0","7gmbq23avrlfnq0","","null","","<p style=""color:#054d00;""><b>Correct!</b></p>","","null","","","","","","","","","","","","","","","","","","","","","","","","","","","","","","","",""
"html-button-response","197","1079355","0.0-5.0-1.0-3.7","1","0","7gmbq23avrlfnq0","","509.90000000596046","","<p>Press the button below when you are ready to continue.</p>","0","","","","","","","","","","","","","","","","","","","","","","","","","","","","","","","","",""
"audio-keyboard-response","198","1082473","0.0-5.0-1.0-0.8","1","0","7gmbq23avrlfnq0","","null","","sounds/sentences/left_rev/14_01_cfSWS.wav","","null","","","","","","","","","","","","","","","","","","","","","","","","","","","","","","","",""
"html-button-response","199","1082987","0.0-5.0-1.0-1.8","1","0","7gmbq23avrlfnq0","","513.4000000059605","","Was the sound coming from the left or the right?","0","","","1","INDUCTION-JUDGMENT","left","0","","","","","","","","","","","","","","","","","","","","","","","","","","",""
"html-keyboard-response","200","1083993","0.0-5.0-1.0-2.8","1","0","7gmbq23avrlfnq0","","null","","<p style=""color:#054d00;""><b>Correct!</b></p>","","null","","","","","","","","","","","","","","","","","","","","","","","","","","","","","","","",""
"html-button-response","201","1085015","0.0-5.0-1.0-3.8","1","0","7gmbq23avrlfnq0","","520.6000000238419","","<p>Press the button below when you are ready to continue.</p>","0","","","","","","","","","","","","","","","","","","","","","","","","","","","","","","","","",""
"audio-keyboard-response","202","1087599","0.0-5.0-1.0-0.9","1","0","7gmbq23avrlfnq0","","null","","sounds/sentences/left_rev/14_03_cfSWS.wav","","null","","","","","","","","","","","","","","","","","","","","","","","","","","","","","","","",""
"html-button-response","203","1088271","0.0-5.0-1.0-1.9","1","0","7gmbq23avrlfnq0","","671.8000000119209","","Was the sound coming from the left or the right?","0","","","1","INDUCTION-JUDGMENT","left","0","","","","","","","","","","","","","","","","","","","","","","","","","","",""
"html-keyboard-response","204","1089275","0.0-5.0-1.0-2.9","1","0","7gmbq23avrlfnq0","","null","","<p style=""color:#054d00;""><b>Correct!</b></p>","","null","","","","","","","","","","","","","","","","","","","","","","","","","","","","","","","",""
"html-button-response","205","1090274","0.0-5.0-1.0-3.9","1","0","7gmbq23avrlfnq0","","496.59999999403954","","<p>Press the button below when you are ready to continue.</p>","0","","","","","","","","","","","","","","","","","","","","","","","","","","","","","","","","",""
"html-keyboard-response","206","1115054","0.0-6.0-0.0","1","0","7gmbq23avrlfnq0","","24275.59999999404","","<p>In this part of the study, you will hear sounds similar to those you just heard.</p><p>Please focus on these sounds, as you may be asked questions about them later.</p><p>Occasionally, the sounds will pause for up to two seconds. When this happens, please press SPACEBAR as quickly as you can.</br>This helps ensure that you are paying attention to the sounds.</p><p>This part of the study will take about 12 minutes to complete, and you will be given the opportunity to take a couple of short breaks every few minutes.</p><p><strong>Press SPACEBAR to begin</strong></p>","","32","","","","","","","","","","","","","","","","","","","","","","","","","","","","","","","",""
"html-keyboard-response","207","1116058","0.0-6.0-1.0-0.0","1","0","7gmbq23avrlfnq0","","null","","<p style=""font-size: 40px;"">+</p>","","null","","","","","","","","","","","","","","","","","","","","","","","","","","","","","","","",""
"html-keyboard-response","208","1301067","0.0-6.0-1.0-1.0","1","0","7gmbq23avrlfnq0","","null","","","","null","","","SL-TRAIN","","","0","1437.2000000178814","1106.0999999940395","sounds/A/TRAIN/SEQ__04.mp3","5","","","","","","","","","","","","","","","","","","","","","",""
"html-button-response","209","1305740","0.0-6.0-1.0-2.0","1","0","7gmbq23avrlfnq0","","4670.9000000059605","","<p>You may take a short break if you wish.</p>","0","","","","","","","","","","","","","","","","","","","","","","","","","","","","","","","","",""
"html-keyboard-response","210","1306741","0.0-6.0-1.0-3.0","1","0","7gmbq23avrlfnq0","","null","","<p style=""font-size: 40px;"">+</p>","","null","","","","","","","","","","","","","","","","","","","","","","","","","","","","","","","",""
"html-keyboard-response","211","1491753","0.0-6.0-1.0-4.0","1","0","7gmbq23avrlfnq0","","null","","","","null","","","SL-TRAIN","","","0","1334.7000000178814","960","sounds/A/TRAIN/SEQ__06.mp3","5","","","","","","","","","","","","","","","","","","","","","",""
"html-button-response","212","1493909","0.0-6.0-1.0-5.0","1","0","7gmbq23avrlfnq0","","2155.5999999940395","","<p>You may take a short break if you wish.</p>","0","","","","","","","","","","","","","","","","","","","","","","","","","","","","","","","","",""
"html-keyboard-response","213","1494913","0.0-6.0-1.0-6.0","1","0","7gmbq23avrlfnq0","","null","","<p style=""font-size: 40px;"">+</p>","","null","","","","","","","","","","","","","","","","","","","","","","","","","","","","","","","",""
"html-keyboard-response","214","1679903","0.0-6.0-1.0-7.0","1","0","7gmbq23avrlfnq0","","null","","","","null","","","SL-TRAIN","","","0","1430.7000000178814","1899.6000000238419","sounds/A/TRAIN/SEQ__09.mp3","6","","","","","","","","","","","","","","","","","","","","","",""
"html-button-response","215","1682697","0.0-6.0-1.0-8.0","1","0","7gmbq23avrlfnq0","","2792","","<p>You may take a short break if you wish.</p>","0","","","","","","","","","","","","","","","","","","","","","","","","","","","","","","","","",""
"html-keyboard-response","216","1683701","0.0-6.0-1.0-9.0","1","0","7gmbq23avrlfnq0","","null","","<p style=""font-size: 40px;"">+</p>","","null","","","","","","","","","","","","","","","","","","","","","","","","","","","","","","","",""
"html-keyboard-response","217","1868708","0.0-6.0-1.0-10.0","1","0","7gmbq23avrlfnq0","","null","","","","null","","","SL-TRAIN","","","0","1322.2000000178814","1218.5","sounds/A/TRAIN/SEQ__08.mp3","15","","","","","","","","","","","","","","","","","","","","","",""
"html-button-response","218","1871036","0.0-6.0-1.0-11.0","1","0","7gmbq23avrlfnq0","","2325.7999999821186","","<p>You may take a short break if you wish.</p>","0","","","","","","","","","","","","","","","","","","","","","","","","","","","","","","","","",""
"html-button-response","219","1878023","0.0-7.0-0.0","1","0","7gmbq23avrlfnq0","","6985.9000000059605","","<p>Welcome to the second part of the study. This is a <u>familiarity task</u>.</p><p>You will now hear short sounds and will be asked to rate how familiar they sound to you <b>based on what you heard in the previous part of the study</b>.</p><p>You will rate 12 sounds in total.</p>","0","","","","","","","","","","","","","","","","","","","","","","","","","","","","","","","","",""
"html-keyboard-response","220","1879024","0.0-7.0-1.0-0.0","1","0","7gmbq23avrlfnq0","","null","","","","null","","","","","","","","","","","","","","","","","","","","","","","","","","","","","","","",""
"audio-keyboard-response","221","1880419","0.0-7.0-1.0-1.0","1","0","7gmbq23avrlfnq0","","null","","sounds/A/FAM/P004.mp3","","null","","","","","","","","","","","","","","","","","","","","","","","","","","","","","","","",""
"html-keyboard-response","222","1889186","0.0-7.0-1.0-2.0","1","0","7gmbq23avrlfnq0","","8265.800000011921","","<p>How familiar did this sound to you?</p><p>1&nbsp;&nbsp;&nbsp;&nbsp;&nbsp;&nbsp;&nbsp;&nbsp;&nbsp;&nbsp;&nbsp;&nbsp;&nbsp;&nbsp;&nbsp;&nbsp;&nbsp;&nbsp;&nbsp;2&nbsp;&nbsp;&nbsp;&nbsp;&nbsp;&nbsp;&nbsp;&nbsp;&nbsp;&nbsp;&nbsp;&nbsp;&nbsp;&nbsp;&nbsp;&nbsp;&nbsp;&nbsp;&nbsp;3&nbsp;&nbsp;&nbsp;&nbsp;&nbsp;&nbsp;&nbsp;&nbsp;&nbsp;&nbsp;&nbsp;&nbsp;&nbsp;&nbsp;&nbsp;&nbsp;&nbsp;&nbsp;&nbsp;4</p><p style=""font-size:14px"">Not at all familiar&nbsp;&nbsp;&nbsp;&nbsp;A little familiar&nbsp;&nbsp;&nbsp;Moderately familiar&nbsp;&nbsp;&nbsp;Extremely familiar</p><p>(press the corresponding number on your keyboard)</p>","","52","","","FAM-RESPONSE","","","","","","","","sounds/A/FAM/P004.mp3","partword","","","","","","","","","","","","","","","","","","","",""
"html-keyboard-response","223","1891196","0.0-7.0-1.0-0.1","1","0","7gmbq23avrlfnq0","","null","","","","null","","","","","","","","","","","","","","","","","","","","","","","","","","","","","","","",""
"audio-keyboard-response","224","1892136","0.0-7.0-1.0-1.1","1","0","7gmbq23avrlfnq0","","null","","sounds/A/FAM/N004.mp3","","null","","","","","","","","","","","","","","","","","","","","","","","","","","","","","","","",""
"html-keyboard-response","225","1893629","0.0-7.0-1.0-2.1","1","0","7gmbq23avrlfnq0","","991.3000000119209","","<p>How familiar did this sound to you?</p><p>1&nbsp;&nbsp;&nbsp;&nbsp;&nbsp;&nbsp;&nbsp;&nbsp;&nbsp;&nbsp;&nbsp;&nbsp;&nbsp;&nbsp;&nbsp;&nbsp;&nbsp;&nbsp;&nbsp;2&nbsp;&nbsp;&nbsp;&nbsp;&nbsp;&nbsp;&nbsp;&nbsp;&nbsp;&nbsp;&nbsp;&nbsp;&nbsp;&nbsp;&nbsp;&nbsp;&nbsp;&nbsp;&nbsp;3&nbsp;&nbsp;&nbsp;&nbsp;&nbsp;&nbsp;&nbsp;&nbsp;&nbsp;&nbsp;&nbsp;&nbsp;&nbsp;&nbsp;&nbsp;&nbsp;&nbsp;&nbsp;&nbsp;4</p><p style=""font-size:14px"">Not at all familiar&nbsp;&nbsp;&nbsp;&nbsp;A little familiar&nbsp;&nbsp;&nbsp;Moderately familiar&nbsp;&nbsp;&nbsp;Extremely familiar</p><p>(press the corresponding number on your keyboard)</p>","","52","","","FAM-RESPONSE","","","","","","","","sounds/A/FAM/N004.mp3","nonword","","","","","","","","","","","","","","","","","","","",""
"html-keyboard-response","226","1895635","0.0-7.0-1.0-0.2","1","0","7gmbq23avrlfnq0","","null","","","","null","","","","","","","","","","","","","","","","","","","","","","","","","","","","","","","",""
"audio-keyboard-response","227","1896579","0.0-7.0-1.0-1.2","1","0","7gmbq23avrlfnq0","","null","","sounds/A/FAM/W001.mp3","","null","","","","","","","","","","","","","","","","","","","","","","","","","","","","","","","",""
"html-keyboard-response","228","1898829","0.0-7.0-1.0-2.2","1","0","7gmbq23avrlfnq0","","1747.9000000059605","","<p>How familiar did this sound to you?</p><p>1&nbsp;&nbsp;&nbsp;&nbsp;&nbsp;&nbsp;&nbsp;&nbsp;&nbsp;&nbsp;&nbsp;&nbsp;&nbsp;&nbsp;&nbsp;&nbsp;&nbsp;&nbsp;&nbsp;2&nbsp;&nbsp;&nbsp;&nbsp;&nbsp;&nbsp;&nbsp;&nbsp;&nbsp;&nbsp;&nbsp;&nbsp;&nbsp;&nbsp;&nbsp;&nbsp;&nbsp;&nbsp;&nbsp;3&nbsp;&nbsp;&nbsp;&nbsp;&nbsp;&nbsp;&nbsp;&nbsp;&nbsp;&nbsp;&nbsp;&nbsp;&nbsp;&nbsp;&nbsp;&nbsp;&nbsp;&nbsp;&nbsp;4</p><p style=""font-size:14px"">Not at all familiar&nbsp;&nbsp;&nbsp;&nbsp;A little familiar&nbsp;&nbsp;&nbsp;Moderately familiar&nbsp;&nbsp;&nbsp;Extremely familiar</p><p>(press the corresponding number on your keyboard)</p>","","52","","","FAM-RESPONSE","","","","","","","","sounds/A/FAM/W001.mp3","word","","","","","","","","","","","","","","","","","","","",""
"html-keyboard-response","229","1900835","0.0-7.0-1.0-0.3","1","0","7gmbq23avrlfnq0","","null","","","","null","","","","","","","","","","","","","","","","","","","","","","","","","","","","","","","",""
"audio-keyboard-response","230","1901779","0.0-7.0-1.0-1.3","1","0","7gmbq23avrlfnq0","","null","","sounds/A/FAM/P003.mp3","","null","","","","","","","","","","","","","","","","","","","","","","","","","","","","","","","",""
"html-keyboard-response","231","1904327","0.0-7.0-1.0-2.3","1","0","7gmbq23avrlfnq0","","2046.300000011921","","<p>How familiar did this sound to you?</p><p>1&nbsp;&nbsp;&nbsp;&nbsp;&nbsp;&nbsp;&nbsp;&nbsp;&nbsp;&nbsp;&nbsp;&nbsp;&nbsp;&nbsp;&nbsp;&nbsp;&nbsp;&nbsp;&nbsp;2&nbsp;&nbsp;&nbsp;&nbsp;&nbsp;&nbsp;&nbsp;&nbsp;&nbsp;&nbsp;&nbsp;&nbsp;&nbsp;&nbsp;&nbsp;&nbsp;&nbsp;&nbsp;&nbsp;3&nbsp;&nbsp;&nbsp;&nbsp;&nbsp;&nbsp;&nbsp;&nbsp;&nbsp;&nbsp;&nbsp;&nbsp;&nbsp;&nbsp;&nbsp;&nbsp;&nbsp;&nbsp;&nbsp;4</p><p style=""font-size:14px"">Not at all familiar&nbsp;&nbsp;&nbsp;&nbsp;A little familiar&nbsp;&nbsp;&nbsp;Moderately familiar&nbsp;&nbsp;&nbsp;Extremely familiar</p><p>(press the corresponding number on your keyboard)</p>","","51","","","FAM-RESPONSE","","","","","","","","sounds/A/FAM/P003.mp3","partword","","","","","","","","","","","","","","","","","","","",""
"html-keyboard-response","232","1906334","0.0-7.0-1.0-0.4","1","0","7gmbq23avrlfnq0","","null","","","","null","","","","","","","","","","","","","","","","","","","","","","","","","","","","","","","",""
"audio-keyboard-response","233","1907278","0.0-7.0-1.0-1.4","1","0","7gmbq23avrlfnq0","","null","","sounds/A/FAM/N001.mp3","","null","","","","","","","","","","","","","","","","","","","","","","","","","","","","","","","",""
"html-keyboard-response","234","1908323","0.0-7.0-1.0-2.4","1","0","7gmbq23avrlfnq0","","543.9000000059605","","<p>How familiar did this sound to you?</p><p>1&nbsp;&nbsp;&nbsp;&nbsp;&nbsp;&nbsp;&nbsp;&nbsp;&nbsp;&nbsp;&nbsp;&nbsp;&nbsp;&nbsp;&nbsp;&nbsp;&nbsp;&nbsp;&nbsp;2&nbsp;&nbsp;&nbsp;&nbsp;&nbsp;&nbsp;&nbsp;&nbsp;&nbsp;&nbsp;&nbsp;&nbsp;&nbsp;&nbsp;&nbsp;&nbsp;&nbsp;&nbsp;&nbsp;3&nbsp;&nbsp;&nbsp;&nbsp;&nbsp;&nbsp;&nbsp;&nbsp;&nbsp;&nbsp;&nbsp;&nbsp;&nbsp;&nbsp;&nbsp;&nbsp;&nbsp;&nbsp;&nbsp;4</p><p style=""font-size:14px"">Not at all familiar&nbsp;&nbsp;&nbsp;&nbsp;A little familiar&nbsp;&nbsp;&nbsp;Moderately familiar&nbsp;&nbsp;&nbsp;Extremely familiar</p><p>(press the corresponding number on your keyboard)</p>","","52","","","FAM-RESPONSE","","","","","","","","sounds/A/FAM/N001.mp3","nonword","","","","","","","","","","","","","","","","","","","",""
"html-keyboard-response","235","1910329","0.0-7.0-1.0-0.5","1","0","7gmbq23avrlfnq0","","null","","","","null","","","","","","","","","","","","","","","","","","","","","","","","","","","","","","","",""
"audio-keyboard-response","236","1911273","0.0-7.0-1.0-1.5","1","0","7gmbq23avrlfnq0","","null","","sounds/A/FAM/W003.mp3","","null","","","","","","","","","","","","","","","","","","","","","","","","","","","","","","","",""
"html-keyboard-response","237","1912334","0.0-7.0-1.0-2.5","1","0","7gmbq23avrlfnq0","","558.7999999821186","","<p>How familiar did this sound to you?</p><p>1&nbsp;&nbsp;&nbsp;&nbsp;&nbsp;&nbsp;&nbsp;&nbsp;&nbsp;&nbsp;&nbsp;&nbsp;&nbsp;&nbsp;&nbsp;&nbsp;&nbsp;&nbsp;&nbsp;2&nbsp;&nbsp;&nbsp;&nbsp;&nbsp;&nbsp;&nbsp;&nbsp;&nbsp;&nbsp;&nbsp;&nbsp;&nbsp;&nbsp;&nbsp;&nbsp;&nbsp;&nbsp;&nbsp;3&nbsp;&nbsp;&nbsp;&nbsp;&nbsp;&nbsp;&nbsp;&nbsp;&nbsp;&nbsp;&nbsp;&nbsp;&nbsp;&nbsp;&nbsp;&nbsp;&nbsp;&nbsp;&nbsp;4</p><p style=""font-size:14px"">Not at all familiar&nbsp;&nbsp;&nbsp;&nbsp;A little familiar&nbsp;&nbsp;&nbsp;Moderately familiar&nbsp;&nbsp;&nbsp;Extremely familiar</p><p>(press the corresponding number on your keyboard)</p>","","52","","","FAM-RESPONSE","","","","","","","","sounds/A/FAM/W003.mp3","word","","","","","","","","","","","","","","","","","","","",""
"html-keyboard-response","238","1914339","0.0-7.0-1.0-0.6","1","0","7gmbq23avrlfnq0","","null","","","","null","","","","","","","","","","","","","","","","","","","","","","","","","","","","","","","",""
"audio-keyboard-response","239","1915284","0.0-7.0-1.0-1.6","1","0","7gmbq23avrlfnq0","","null","","sounds/A/FAM/W004.mp3","","null","","","","","","","","","","","","","","","","","","","","","","","","","","","","","","","",""
"html-keyboard-response","240","1918024","0.0-7.0-1.0-2.6","1","0","7gmbq23avrlfnq0","","2239","","<p>How familiar did this sound to you?</p><p>1&nbsp;&nbsp;&nbsp;&nbsp;&nbsp;&nbsp;&nbsp;&nbsp;&nbsp;&nbsp;&nbsp;&nbsp;&nbsp;&nbsp;&nbsp;&nbsp;&nbsp;&nbsp;&nbsp;2&nbsp;&nbsp;&nbsp;&nbsp;&nbsp;&nbsp;&nbsp;&nbsp;&nbsp;&nbsp;&nbsp;&nbsp;&nbsp;&nbsp;&nbsp;&nbsp;&nbsp;&nbsp;&nbsp;3&nbsp;&nbsp;&nbsp;&nbsp;&nbsp;&nbsp;&nbsp;&nbsp;&nbsp;&nbsp;&nbsp;&nbsp;&nbsp;&nbsp;&nbsp;&nbsp;&nbsp;&nbsp;&nbsp;4</p><p style=""font-size:14px"">Not at all familiar&nbsp;&nbsp;&nbsp;&nbsp;A little familiar&nbsp;&nbsp;&nbsp;Moderately familiar&nbsp;&nbsp;&nbsp;Extremely familiar</p><p>(press the corresponding number on your keyboard)</p>","","51","","","FAM-RESPONSE","","","","","","","","sounds/A/FAM/W004.mp3","word","","","","","","","","","","","","","","","","","","","",""
"html-keyboard-response","241","1920030","0.0-7.0-1.0-0.7","1","0","7gmbq23avrlfnq0","","null","","","","null","","","","","","","","","","","","","","","","","","","","","","","","","","","","","","","",""
"audio-keyboard-response","242","1920974","0.0-7.0-1.0-1.7","1","0","7gmbq23avrlfnq0","","null","","sounds/A/FAM/P002.mp3","","null","","","","","","","","","","","","","","","","","","","","","","","","","","","","","","","",""
"html-keyboard-response","243","1923505","0.0-7.0-1.0-2.7","1","0","7gmbq23avrlfnq0","","2027.7000000178814","","<p>How familiar did this sound to you?</p><p>1&nbsp;&nbsp;&nbsp;&nbsp;&nbsp;&nbsp;&nbsp;&nbsp;&nbsp;&nbsp;&nbsp;&nbsp;&nbsp;&nbsp;&nbsp;&nbsp;&nbsp;&nbsp;&nbsp;2&nbsp;&nbsp;&nbsp;&nbsp;&nbsp;&nbsp;&nbsp;&nbsp;&nbsp;&nbsp;&nbsp;&nbsp;&nbsp;&nbsp;&nbsp;&nbsp;&nbsp;&nbsp;&nbsp;3&nbsp;&nbsp;&nbsp;&nbsp;&nbsp;&nbsp;&nbsp;&nbsp;&nbsp;&nbsp;&nbsp;&nbsp;&nbsp;&nbsp;&nbsp;&nbsp;&nbsp;&nbsp;&nbsp;4</p><p style=""font-size:14px"">Not at all familiar&nbsp;&nbsp;&nbsp;&nbsp;A little familiar&nbsp;&nbsp;&nbsp;Moderately familiar&nbsp;&nbsp;&nbsp;Extremely familiar</p><p>(press the corresponding number on your keyboard)</p>","","50","","","FAM-RESPONSE","","","","","","","","sounds/A/FAM/P002.mp3","partword","","","","","","","","","","","","","","","","","","","",""
"html-keyboard-response","244","1925513","0.0-7.0-1.0-0.8","1","0","7gmbq23avrlfnq0","","null","","","","null","","","","","","","","","","","","","","","","","","","","","","","","","","","","","","","",""
"audio-keyboard-response","245","1926457","0.0-7.0-1.0-1.8","1","0","7gmbq23avrlfnq0","","null","","sounds/A/FAM/W002.mp3","","null","","","","","","","","","","","","","","","","","","","","","","","","","","","","","","","",""
"html-keyboard-response","246","1927976","0.0-7.0-1.0-2.8","1","0","7gmbq23avrlfnq0","","1017.3000000119209","","<p>How familiar did this sound to you?</p><p>1&nbsp;&nbsp;&nbsp;&nbsp;&nbsp;&nbsp;&nbsp;&nbsp;&nbsp;&nbsp;&nbsp;&nbsp;&nbsp;&nbsp;&nbsp;&nbsp;&nbsp;&nbsp;&nbsp;2&nbsp;&nbsp;&nbsp;&nbsp;&nbsp;&nbsp;&nbsp;&nbsp;&nbsp;&nbsp;&nbsp;&nbsp;&nbsp;&nbsp;&nbsp;&nbsp;&nbsp;&nbsp;&nbsp;3&nbsp;&nbsp;&nbsp;&nbsp;&nbsp;&nbsp;&nbsp;&nbsp;&nbsp;&nbsp;&nbsp;&nbsp;&nbsp;&nbsp;&nbsp;&nbsp;&nbsp;&nbsp;&nbsp;4</p><p style=""font-size:14px"">Not at all familiar&nbsp;&nbsp;&nbsp;&nbsp;A little familiar&nbsp;&nbsp;&nbsp;Moderately familiar&nbsp;&nbsp;&nbsp;Extremely familiar</p><p>(press the corresponding number on your keyboard)</p>","","50","","","FAM-RESPONSE","","","","","","","","sounds/A/FAM/W002.mp3","word","","","","","","","","","","","","","","","","","","","",""
"html-keyboard-response","247","1929983","0.0-7.0-1.0-0.9","1","0","7gmbq23avrlfnq0","","null","","","","null","","","","","","","","","","","","","","","","","","","","","","","","","","","","","","","",""
"audio-keyboard-response","248","1930927","0.0-7.0-1.0-1.9","1","0","7gmbq23avrlfnq0","","null","","sounds/A/FAM/N003.mp3","","null","","","","","","","","","","","","","","","","","","","","","","","","","","","","","","","",""
"html-keyboard-response","249","1931936","0.0-7.0-1.0-2.9","1","0","7gmbq23avrlfnq0","","507.5","","<p>How familiar did this sound to you?</p><p>1&nbsp;&nbsp;&nbsp;&nbsp;&nbsp;&nbsp;&nbsp;&nbsp;&nbsp;&nbsp;&nbsp;&nbsp;&nbsp;&nbsp;&nbsp;&nbsp;&nbsp;&nbsp;&nbsp;2&nbsp;&nbsp;&nbsp;&nbsp;&nbsp;&nbsp;&nbsp;&nbsp;&nbsp;&nbsp;&nbsp;&nbsp;&nbsp;&nbsp;&nbsp;&nbsp;&nbsp;&nbsp;&nbsp;3&nbsp;&nbsp;&nbsp;&nbsp;&nbsp;&nbsp;&nbsp;&nbsp;&nbsp;&nbsp;&nbsp;&nbsp;&nbsp;&nbsp;&nbsp;&nbsp;&nbsp;&nbsp;&nbsp;4</p><p style=""font-size:14px"">Not at all familiar&nbsp;&nbsp;&nbsp;&nbsp;A little familiar&nbsp;&nbsp;&nbsp;Moderately familiar&nbsp;&nbsp;&nbsp;Extremely familiar</p><p>(press the corresponding number on your keyboard)</p>","","51","","","FAM-RESPONSE","","","","","","","","sounds/A/FAM/N003.mp3","nonword","","","","","","","","","","","","","","","","","","","",""
"html-keyboard-response","250","1933940","0.0-7.0-1.0-0.10","1","0","7gmbq23avrlfnq0","","null","","","","null","","","","","","","","","","","","","","","","","","","","","","","","","","","","","","","",""
"audio-keyboard-response","251","1934884","0.0-7.0-1.0-1.10","1","0","7gmbq23avrlfnq0","","null","","sounds/A/FAM/N002.mp3","","null","","","","","","","","","","","","","","","","","","","","","","","","","","","","","","","",""
"html-keyboard-response","252","1935707","0.0-7.0-1.0-2.10","1","0","7gmbq23avrlfnq0","","321.2999999821186","","<p>How familiar did this sound to you?</p><p>1&nbsp;&nbsp;&nbsp;&nbsp;&nbsp;&nbsp;&nbsp;&nbsp;&nbsp;&nbsp;&nbsp;&nbsp;&nbsp;&nbsp;&nbsp;&nbsp;&nbsp;&nbsp;&nbsp;2&nbsp;&nbsp;&nbsp;&nbsp;&nbsp;&nbsp;&nbsp;&nbsp;&nbsp;&nbsp;&nbsp;&nbsp;&nbsp;&nbsp;&nbsp;&nbsp;&nbsp;&nbsp;&nbsp;3&nbsp;&nbsp;&nbsp;&nbsp;&nbsp;&nbsp;&nbsp;&nbsp;&nbsp;&nbsp;&nbsp;&nbsp;&nbsp;&nbsp;&nbsp;&nbsp;&nbsp;&nbsp;&nbsp;4</p><p style=""font-size:14px"">Not at all familiar&nbsp;&nbsp;&nbsp;&nbsp;A little familiar&nbsp;&nbsp;&nbsp;Moderately familiar&nbsp;&nbsp;&nbsp;Extremely familiar</p><p>(press the corresponding number on your keyboard)</p>","","52","","","FAM-RESPONSE","","","","","","","","sounds/A/FAM/N002.mp3","nonword","","","","","","","","","","","","","","","","","","","",""
"html-keyboard-response","253","1937714","0.0-7.0-1.0-0.11","1","0","7gmbq23avrlfnq0","","null","","","","null","","","","","","","","","","","","","","","","","","","","","","","","","","","","","","","",""
"audio-keyboard-response","254","1938655","0.0-7.0-1.0-1.11","1","0","7gmbq23avrlfnq0","","null","","sounds/A/FAM/P001.mp3","","null","","","","","","","","","","","","","","","","","","","","","","","","","","","","","","","",""
"html-keyboard-response","255","1939690","0.0-7.0-1.0-2.11","1","0","7gmbq23avrlfnq0","","533.4000000059605","","<p>How familiar did this sound to you?</p><p>1&nbsp;&nbsp;&nbsp;&nbsp;&nbsp;&nbsp;&nbsp;&nbsp;&nbsp;&nbsp;&nbsp;&nbsp;&nbsp;&nbsp;&nbsp;&nbsp;&nbsp;&nbsp;&nbsp;2&nbsp;&nbsp;&nbsp;&nbsp;&nbsp;&nbsp;&nbsp;&nbsp;&nbsp;&nbsp;&nbsp;&nbsp;&nbsp;&nbsp;&nbsp;&nbsp;&nbsp;&nbsp;&nbsp;3&nbsp;&nbsp;&nbsp;&nbsp;&nbsp;&nbsp;&nbsp;&nbsp;&nbsp;&nbsp;&nbsp;&nbsp;&nbsp;&nbsp;&nbsp;&nbsp;&nbsp;&nbsp;&nbsp;4</p><p style=""font-size:14px"">Not at all familiar&nbsp;&nbsp;&nbsp;&nbsp;A little familiar&nbsp;&nbsp;&nbsp;Moderately familiar&nbsp;&nbsp;&nbsp;Extremely familiar</p><p>(press the corresponding number on your keyboard)</p>","","52","","","FAM-RESPONSE","","","","","","","","sounds/A/FAM/P001.mp3","partword","","","","","","","","","","","","","","","","","","","",""
"html-button-response","256","1989517","0.0-8.0-0.0","1","0","7gmbq23avrlfnq0","","48822.69999998808","","<p>You will now listen to longer sound sequences.</p><p>Each sound sequence will last about 16 seconds.</p><p>On each trial, you will be given a <u>TARGET SOUND</u>. Your task is to listen very carefully for this sound.</p><p>Every time you hear the <u>TARGET SOUND</u>, you will press the <b>SPACEBAR</b> as quickly and accurately as you can.</p>","0","","","","","","","","","","","","","","","","","","","","","","","","","","","","","","","","",""
"html-button-response","257","2004667","0.0-8.0-1.0","1","0","7gmbq23avrlfnq0","","14893.699999988079","","<p>It is very important that you make your responses as quickly and accurately as possible.</p><p>To help you make your responses, you will be able to listen to the <u>TARGET SOUND</u> at the beginning of each trial.</p><p>There will be 36 total trials.</p><p><b>Note: This is meant to be a difficult task. We simply want you to try your best.</p>","0","","","","","","","","","","","","","","","","","","","","","","","","","","","","","","","","",""
"html-button-response","258","2006753","0.0-8.0-2.0-0.0","1","0","7gmbq23avrlfnq0","","1832.4000000059605","","<p>Trial 1 of 36</p>","0","","","","","","","","","","","","","","SU","sounds/syllables/su_SWS.wav","2400,5100,6900,8700","3","","","","","","","","","","","","","","","",""
"html-keyboard-response","259","2009936","0.0-8.0-2.0-1.0","1","0","7gmbq23avrlfnq0","","3182","","","","80","","","","","","","","","","","","","SU","","2400,5100,6900,8700","3","","","","","","","","","","","","","","","",""
"audio-keyboard-response","260","2010665","0.0-8.0-2.0-2.0-0.0","1","0","7gmbq23avrlfnq0","","null","","sounds/syllables/su_SWS.wav","","null","","","","","","","","","","","","","","","","","","","","","","","","","","","","","","","",""
"html-keyboard-response","261","2013183","0.0-8.0-2.0-2.0-1.0","1","0","7gmbq23avrlfnq0","","2516.9000000059605","","<p>To replay the <u>TARGET SOUND</u>, press P.</p> When you are ready to begin, press SPACEBAR.","","80","","","","","","","","","","","","","","","","","","","","","","","","","","","","","","","",""
"audio-keyboard-response","262","2013988","0.0-8.0-2.0-2.1-0.1","1","0","7gmbq23avrlfnq0","","null","","sounds/syllables/su_SWS.wav","","null","","","","","","","","","","","","","","","","","","","","","","","","","","","","","","","",""
"html-keyboard-response","263","2015548","0.0-8.0-2.0-2.1-1.1","1","0","7gmbq23avrlfnq0","","1558.9000000059605","","<p>To replay the <u>TARGET SOUND</u>, press P.</p> When you are ready to begin, press SPACEBAR.","","80","","","","","","","","","","","","","","","","","","","","","","","","","","","","","","","",""
"audio-keyboard-response","264","2016351","0.0-8.0-2.0-2.2-0.2","1","0","7gmbq23avrlfnq0","","null","","sounds/syllables/su_SWS.wav","","null","","","","","","","","","","","","","","","","","","","","","","","","","","","","","","","",""
"html-keyboard-response","265","2016988","0.0-8.0-2.0-2.2-1.2","1","0","7gmbq23avrlfnq0","","636.8000000119209","","<p>To replay the <u>TARGET SOUND</u>, press P.</p> When you are ready to begin, press SPACEBAR.","","32","","","","","","","","","","","","","","","","","","","","","","","","","","","","","","","",""
"audio-keyboard-response","266","2031941","0.0-8.0-2.0-3.0","1","0","7gmbq23avrlfnq0","","6725","","sounds/A/TD/SU_01_TD.mp3","","80","","","TD_SUMMARY","","","","","","","","","","SU","","2400,5100,6900,8700","3","2400","5100","6900","8700","null","null","null","null","","3","","","","","",""
"html-button-response","267","2037448","0.0-8.0-2.0-0.1","1","0","7gmbq23avrlfnq0","","5505.699999988079","","<p>Trial 2 of 36</p>","0","","","","","","","","","","","","","","PU","sounds/syllables/pu_SWS.wav","1200,5700,7500,11100","2","","","","","","","","","","","","","","","",""
"html-keyboard-response","268","2038904","0.0-8.0-2.0-1.1","1","0","7gmbq23avrlfnq0","","1455","","","","80","","","","","","","","","","","","","PU","","1200,5700,7500,11100","2","","","","","","","","","","","","","","","",""
"audio-keyboard-response","269","2039205","0.0-8.0-2.0-2.3-0.3","1","0","7gmbq23avrlfnq0","","null","","sounds/syllables/pu_SWS.wav","","null","","","","","","","","","","","","","","","","","","","","","","","","","","","","","","","",""
"html-keyboard-response","270","2040177","0.0-8.0-2.0-2.3-1.3","1","0","7gmbq23avrlfnq0","","972.1000000238419","","<p>To replay the <u>TARGET SOUND</u>, press P.</p> When you are ready to begin, press SPACEBAR.","","80","","","","","","","","","","","","","","","","","","","","","","","","","","","","","","","",""
"audio-keyboard-response","271","2040986","0.0-8.0-2.0-2.4-0.4","1","0","7gmbq23avrlfnq0","","null","","sounds/syllables/pu_SWS.wav","","null","","","","","","","","","","","","","","","","","","","","","","","","","","","","","","","",""
"html-keyboard-response","272","2041475","0.0-8.0-2.0-2.4-1.4","1","0","7gmbq23avrlfnq0","","488.59999999403954","","<p>To replay the <u>TARGET SOUND</u>, press P.</p> When you are ready to begin, press SPACEBAR.","","80","","","","","","","","","","","","","","","","","","","","","","","","","","","","","","","",""
"audio-keyboard-response","273","2042282","0.0-8.0-2.0-2.5-0.5","1","0","7gmbq23avrlfnq0","","null","","sounds/syllables/pu_SWS.wav","","null","","","","","","","","","","","","","","","","","","","","","","","","","","","","","","","",""
"html-keyboard-response","274","2042742","0.0-8.0-2.0-2.5-1.5","1","0","7gmbq23avrlfnq0","","459.40000000596046","","<p>To replay the <u>TARGET SOUND</u>, press P.</p> When you are ready to begin, press SPACEBAR.","","80","","","","","","","","","","","","","","","","","","","","","","","","","","","","","","","",""
"audio-keyboard-response","275","2043546","0.0-8.0-2.0-2.6-0.6","1","0","7gmbq23avrlfnq0","","null","","sounds/syllables/pu_SWS.wav","","null","","","","","","","","","","","","","","","","","","","","","","","","","","","","","","","",""
"html-keyboard-response","276","2043943","0.0-8.0-2.0-2.6-1.6","1","0","7gmbq23avrlfnq0","","396.7000000178814","","<p>To replay the <u>TARGET SOUND</u>, press P.</p> When you are ready to begin, press SPACEBAR.","","80","","","","","","","","","","","","","","","","","","","","","","","","","","","","","","","",""
"audio-keyboard-response","277","2044752","0.0-8.0-2.0-2.7-0.7","1","0","7gmbq23avrlfnq0","","null","","sounds/syllables/pu_SWS.wav","","null","","","","","","","","","","","","","","","","","","","","","","","","","","","","","","","",""
"html-keyboard-response","278","2045362","0.0-8.0-2.0-2.7-1.7","1","0","7gmbq23avrlfnq0","","609.5999999940395","","<p>To replay the <u>TARGET SOUND</u>, press P.</p> When you are ready to begin, press SPACEBAR.","","32","","","","","","","","","","","","","","","","","","","","","","","","","","","","","","","",""
"audio-keyboard-response","279","2060315","0.0-8.0-2.0-3.1","1","0","7gmbq23avrlfnq0","","555","","sounds/A/TD/PU_02_TD.mp3","","32","","","TD_SUMMARY","","","","","","","","","","PU","","1200,5700,7500,11100","2","1200","5700","7500","11100","526.2999999821186","939.8999999761581","null","534.1999999880791","558.5999999940395_1726.2999999821186_2543_3390_4529.5999999940395_6007.899999976158_6439.0999999940395_6639.899999976158_7336.899999976158_8723_9894.09999999404_10912.59999999404_11383_11634.199999988079_12602.899999976158_13908.899999976158","5","","","","","",""
"html-button-response","280","2061564","0.0-8.0-2.0-0.2","1","0","7gmbq23avrlfnq0","","1247.7000000178814","","<p>Trial 3 of 36</p>","0","","","","","","","","","","","","","","RU","sounds/syllables/ru_SWS.wav","2700,5400,8100,10800","1","","","","","","","","","","","","","","","",""
"html-keyboard-response","281","2062967","0.0-8.0-2.0-1.2","1","0","7gmbq23avrlfnq0","","1402.300000011921","","","","80","","","","","","","","","","","","","RU","","2700,5400,8100,10800","1","","","","","","","","","","","","","","","",""
"audio-keyboard-response","282","2063270","0.0-8.0-2.0-2.8-0.8","1","0","7gmbq23avrlfnq0","","null","","sounds/syllables/ru_SWS.wav","","null","","","","","","","","","","","","","","","","","","","","","","","","","","","","","","","",""
"html-keyboard-response","283","2063833","0.0-8.0-2.0-2.8-1.8","1","0","7gmbq23avrlfnq0","","563.1999999880791","","<p>To replay the <u>TARGET SOUND</u>, press P.</p> When you are ready to begin, press SPACEBAR.","","80","","","","","","","","","","","","","","","","","","","","","","","","","","","","","","","",""
"audio-keyboard-response","284","2064635","0.0-8.0-2.0-2.9-0.9","1","0","7gmbq23avrlfnq0","","null","","sounds/syllables/ru_SWS.wav","","null","","","","","","","","","","","","","","","","","","","","","","","","","","","","","","","",""
"html-keyboard-response","285","2065068","0.0-8.0-2.0-2.9-1.9","1","0","7gmbq23avrlfnq0","","433.09999999403954","","<p>To replay the <u>TARGET SOUND</u>, press P.</p> When you are ready to begin, press SPACEBAR.","","80","","","","","","","","","","","","","","","","","","","","","","","","","","","","","","","",""
"audio-keyboard-response","286","2065878","0.0-8.0-2.0-2.10-0.10","1","0","7gmbq23avrlfnq0","","null","","sounds/syllables/ru_SWS.wav","","null","","","","","","","","","","","","","","","","","","","","","","","","","","","","","","","",""
"html-keyboard-response","287","2066244","0.0-8.0-2.0-2.10-1.10","1","0","7gmbq23avrlfnq0","","366.2999999821186","","<p>To replay the <u>TARGET SOUND</u>, press P.</p> When you are ready to begin, press SPACEBAR.","","32","","","","","","","","","","","","","","","","","","","","","","","","","","","","","","","",""
"audio-keyboard-response","288","2081190","0.0-8.0-2.0-3.2","1","0","7gmbq23avrlfnq0","","2608","","sounds/A/TD/RU_04_TD.mp3","","32","","","TD_SUMMARY","","","","","","","","","","RU","","2700,5400,8100,10800","1","2700","5400","8100","10800","1046.4000000059605","844.4000000059605","671.4000000059605","203.2999999821186","________________2608.9000000059605_2811.199999988079_3746.4000000059605_4070_6013.5_6244.4000000059605_8565.199999988079_8771.40000000596_10821.09999999404_11003.299999982119","3","","","","","",""
"html-button-response","289","2082520","0.0-8.0-2.0-0.3","1","0","7gmbq23avrlfnq0","","1327.7999999821186","","<p>Trial 4 of 36</p>","0","","","","","","","","","","","","","","TA","sounds/syllables/ta_SWS.wav","4500,6300,8100,12600","1","","","","","","","","","","","","","","","",""
"html-keyboard-response","290","2084493","0.0-8.0-2.0-1.3","1","0","7gmbq23avrlfnq0","","1973.300000011921","","","","80","","","","","","","","","","","","","TA","","4500,6300,8100,12600","1","","","","","","","","","","","","","","","",""
"audio-keyboard-response","291","2084795","0.0-8.0-2.0-2.11-0.11","1","0","7gmbq23avrlfnq0","","null","","sounds/syllables/ta_SWS.wav","","null","","","","","","","","","","","","","","","","","","","","","","","","","","","","","","","",""
"html-keyboard-response","292","2085445","0.0-8.0-2.0-2.11-1.11","1","0","7gmbq23avrlfnq0","","649.6999999880791","","<p>To replay the <u>TARGET SOUND</u>, press P.</p> When you are ready to begin, press SPACEBAR.","","80","","","","","","","","","","","","","","","","","","","","","","","","","","","","","","","",""
"audio-keyboard-response","293","2086252","0.0-8.0-2.0-2.12-0.12","1","0","7gmbq23avrlfnq0","","null","","sounds/syllables/ta_SWS.wav","","null","","","","","","","","","","","","","","","","","","","","","","","","","","","","","","","",""
"html-keyboard-response","294","2086632","0.0-8.0-2.0-2.12-1.12","1","0","7gmbq23avrlfnq0","","379.7000000178814","","<p>To replay the <u>TARGET SOUND</u>, press P.</p> When you are ready to begin, press SPACEBAR.","","80","","","","","","","","","","","","","","","","","","","","","","","","","","","","","","","",""
"audio-keyboard-response","295","2087441","0.0-8.0-2.0-2.13-0.13","1","0","7gmbq23avrlfnq0","","null","","sounds/syllables/ta_SWS.wav","","null","","","","","","","","","","","","","","","","","","","","","","","","","","","","","","","",""
"html-keyboard-response","296","2087880","0.0-8.0-2.0-2.13-1.13","1","0","7gmbq23avrlfnq0","","438.5","","<p>To replay the <u>TARGET SOUND</u>, press P.</p> When you are ready to begin, press SPACEBAR.","","80","","","","","","","","","","","","","","","","","","","","","","","","","","","","","","","",""
"audio-keyboard-response","297","2088689","0.0-8.0-2.0-2.14-0.14","1","0","7gmbq23avrlfnq0","","null","","sounds/syllables/ta_SWS.wav","","null","","","","","","","","","","","","","","","","","","","","","","","","","","","","","","","",""
"html-keyboard-response","298","2089125","0.0-8.0-2.0-2.14-1.14","1","0","7gmbq23avrlfnq0","","435.09999999403954","","<p>To replay the <u>TARGET SOUND</u>, press P.</p> When you are ready to begin, press SPACEBAR.","","32","","","","","","","","","","","","","","","","","","","","","","","","","","","","","","","",""
"audio-keyboard-response","299","2104076","0.0-8.0-2.0-3.3","1","0","7gmbq23avrlfnq0","","485","","sounds/A/TD/TA_02_TD.mp3","","32","","","TD_SUMMARY","","","","","","","","","","TA","","4500,6300,8100,12600","1","4500","6300","8100","12600","null","null","1140.2999999821186","935.5","__________________________488.09999999403954_9240.299999982119_9820.40000000596_11193.299999982119_13535.5_14264.09999999404","4","","","","","",""
"html-button-response","300","2106050","0.0-8.0-2.0-0.4","1","0","7gmbq23avrlfnq0","","1971.7999999821186","","<p>Trial 5 of 36</p>","0","","","","","","","","","","","","","","FU","sounds/syllables/fu_SWS.wav","1200,3900,7500,12000","2","","","","","","","","","","","","","","","",""
"html-keyboard-response","301","2106961","0.0-8.0-2.0-1.4","1","0","7gmbq23avrlfnq0","","911.0999999940395","","","","80","","","","","","","","","","","","","FU","","1200,3900,7500,12000","2","","","","","","","","","","","","","","","",""
"audio-keyboard-response","302","2107265","0.0-8.0-2.0-2.15-0.15","1","0","7gmbq23avrlfnq0","","null","","sounds/syllables/fu_SWS.wav","","null","","","","","","","","","","","","","","","","","","","","","","","","","","","","","","","",""
"html-keyboard-response","303","2107951","0.0-8.0-2.0-2.15-1.15","1","0","7gmbq23avrlfnq0","","685.3000000119209","","<p>To replay the <u>TARGET SOUND</u>, press P.</p> When you are ready to begin, press SPACEBAR.","","80","","","","","","","","","","","","","","","","","","","","","","","","","","","","","","","",""
"audio-keyboard-response","304","2108759","0.0-8.0-2.0-2.16-0.16","1","0","7gmbq23avrlfnq0","","null","","sounds/syllables/fu_SWS.wav","","null","","","","","","","","","","","","","","","","","","","","","","","","","","","","","","","",""
"html-keyboard-response","305","2109229","0.0-8.0-2.0-2.16-1.16","1","0","7gmbq23avrlfnq0","","469.59999999403954","","<p>To replay the <u>TARGET SOUND</u>, press P.</p> When you are ready to begin, press SPACEBAR.","","80","","","","","","","","","","","","","","","","","","","","","","","","","","","","","","","",""
"audio-keyboard-response","306","2110034","0.0-8.0-2.0-2.17-0.17","1","0","7gmbq23avrlfnq0","","null","","sounds/syllables/fu_SWS.wav","","null","","","","","","","","","","","","","","","","","","","","","","","","","","","","","","","",""
"html-keyboard-response","307","2110373","0.0-8.0-2.0-2.17-1.17","1","0","7gmbq23avrlfnq0","","339","","<p>To replay the <u>TARGET SOUND</u>, press P.</p> When you are ready to begin, press SPACEBAR.","","32","","","","","","","","","","","","","","","","","","","","","","","","","","","","","","","",""
"audio-keyboard-response","308","2125325","0.0-8.0-2.0-3.4","1","0","7gmbq23avrlfnq0","","1856","","sounds/A/TD/FU_01_TD.mp3","","32","","","TD_SUMMARY","","","","","","","","","","FU","","1200,3900,7500,12000","2","1200","3900","7500","12000","657.7999999821186","820.5999999940395","487.2999999821186","null","________________________________1857.7999999821186_4515.4000000059605_4720.5999999940395_5376.4000000059605_5605.5999999940395_7987.299999982119_8741.90000000596_9144.40000000596_11460.5_11701.699999988079_14267.40000000596","3","","","","","",""
"html-button-response","309","2126481","0.0-8.0-2.0-0.5","1","0","7gmbq23avrlfnq0","","1155.4000000059605","","<p>Trial 6 of 36</p>","0","","","","","","","","","","","","","","NI","sounds/syllables/ni_SWS.wav","2400,6900,9600,12300","3","","","","","","","","","","","","","","","",""
"html-keyboard-response","310","2127247","0.0-8.0-2.0-1.5","1","0","7gmbq23avrlfnq0","","765","","","","80","","","","","","","","","","","","","NI","","2400,6900,9600,12300","3","","","","","","","","","","","","","","","",""
"audio-keyboard-response","311","2127549","0.0-8.0-2.0-2.18-0.18","1","0","7gmbq23avrlfnq0","","null","","sounds/syllables/ni_SWS.wav","","null","","","","","","","","","","","","","","","","","","","","","","","","","","","","","","","",""
"html-keyboard-response","312","2128712","0.0-8.0-2.0-2.18-1.18","1","0","7gmbq23avrlfnq0","","1163.0999999940395","","<p>To replay the <u>TARGET SOUND</u>, press P.</p> When you are ready to begin, press SPACEBAR.","","80","","","","","","","","","","","","","","","","","","","","","","","","","","","","","","","",""
"audio-keyboard-response","313","2129517","0.0-8.0-2.0-2.19-0.19","1","0","7gmbq23avrlfnq0","","null","","sounds/syllables/ni_SWS.wav","","null","","","","","","","","","","","","","","","","","","","","","","","","","","","","","","","",""
"html-keyboard-response","314","2129924","0.0-8.0-2.0-2.19-1.19","1","0","7gmbq23avrlfnq0","","406.40000000596046","","<p>To replay the <u>TARGET SOUND</u>, press P.</p> When you are ready to begin, press SPACEBAR.","","80","","","","","","","","","","","","","","","","","","","","","","","","","","","","","","","",""
"audio-keyboard-response","315","2130733","0.0-8.0-2.0-2.20-0.20","1","0","7gmbq23avrlfnq0","","null","","sounds/syllables/ni_SWS.wav","","null","","","","","","","","","","","","","","","","","","","","","","","","","","","","","","","",""
"html-keyboard-response","316","2130981","0.0-8.0-2.0-2.20-1.20","1","0","7gmbq23avrlfnq0","","247.59999999403954","","<p>To replay the <u>TARGET SOUND</u>, press P.</p> When you are ready to begin, press SPACEBAR.","","32","","","","","","","","","","","","","","","","","","","","","","","","","","","","","","","",""
"audio-keyboard-response","317","2145933","0.0-8.0-2.0-3.5","1","0","7gmbq23avrlfnq0","","2939","","sounds/A/TD/NI_10_TD.mp3","","32","","","TD_SUMMARY","","","","","","","","","","NI","","2400,6900,9600,12300","3","2400","6900","9600","12300","540","700.2000000178814","1045.9000000059605","986.5999999940395","___________________________________________2940_7600.200000017881_9881.09999999404_10645.90000000596_12563.40000000596_12796.40000000596_13286.59999999404","3","","","","","",""
"html-button-response","318","2146963","0.0-8.0-2.0-0.6","1","0","7gmbq23avrlfnq0","","1027.9000000059605","","<p>Trial 7 of 36</p>","0","","","","","","","","","","","","","","GE","sounds/syllables/ge_SWS.wav","3900,5700,7500,9300","2","","","","","","","","","","","","","","","",""
"html-keyboard-response","319","2149166","0.0-8.0-2.0-1.6","1","0","7gmbq23avrlfnq0","","2202.699999988079","","","","80","","","","","","","","","","","","","GE","","3900,5700,7500,9300","2","","","","","","","","","","","","","","","",""
"audio-keyboard-response","320","2149469","0.0-8.0-2.0-2.21-0.21","1","0","7gmbq23avrlfnq0","","null","","sounds/syllables/ge_SWS.wav","","null","","","","","","","","","","","","","","","","","","","","","","","","","","","","","","","",""
"html-keyboard-response","321","2150225","0.0-8.0-2.0-2.21-1.21","1","0","7gmbq23avrlfnq0","","755.5","","<p>To replay the <u>TARGET SOUND</u>, press P.</p> When you are ready to begin, press SPACEBAR.","","80","","","","","","","","","","","","","","","","","","","","","","","","","","","","","","","",""
"audio-keyboard-response","322","2151032","0.0-8.0-2.0-2.22-0.22","1","0","7gmbq23avrlfnq0","","null","","sounds/syllables/ge_SWS.wav","","null","","","","","","","","","","","","","","","","","","","","","","","","","","","","","","","",""
"html-keyboard-response","323","2151622","0.0-8.0-2.0-2.22-1.22","1","0","7gmbq23avrlfnq0","","589.1999999880791","","<p>To replay the <u>TARGET SOUND</u>, press P.</p> When you are ready to begin, press SPACEBAR.","","32","","","","","","","","","","","","","","","","","","","","","","","","","","","","","","","",""
"audio-keyboard-response","324","2166574","0.0-8.0-2.0-3.6","1","0","7gmbq23avrlfnq0","","523","","sounds/A/TD/GE_04_TD.mp3","","32","","","TD_SUMMARY","","","","","","","","","","GE","","3900,5700,7500,9300","2","3900","5700","7500","9300","774.1999999880791","null","364.19999998807907","351.5","__________________________________________________527.1999999880791_3350.4000000059605_4439.800000011921_4674.199999988079_5879.5999999940395_7864.199999988079_9651.5_11237.90000000596_13269.300000011921","2","","","","","",""
"html-button-response","325","2167550","0.0-8.0-2.0-0.7","1","0","7gmbq23avrlfnq0","","975.0999999940395","","<p>Trial 8 of 36</p>","0","","","","","","","","","","","","","","KO","sounds/syllables/ko_SWS.wav","3300,5100,10500,12300","3","","","","","","","","","","","","","","","",""
"html-keyboard-response","326","2168758","0.0-8.0-2.0-1.7","1","0","7gmbq23avrlfnq0","","1207","","","","80","","","","","","","","","","","","","KO","","3300,5100,10500,12300","3","","","","","","","","","","","","","","","",""
"audio-keyboard-response","327","2169059","0.0-8.0-2.0-2.23-0.23","1","0","7gmbq23avrlfnq0","","null","","sounds/syllables/ko_SWS.wav","","null","","","","","","","","","","","","","","","","","","","","","","","","","","","","","","","",""
"html-keyboard-response","328","2169554","0.0-8.0-2.0-2.23-1.23","1","0","7gmbq23avrlfnq0","","494.5","","<p>To replay the <u>TARGET SOUND</u>, press P.</p> When you are ready to begin, press SPACEBAR.","","80","","","","","","","","","","","","","","","","","","","","","","","","","","","","","","","",""
"audio-keyboard-response","329","2170360","0.0-8.0-2.0-2.24-0.24","1","0","7gmbq23avrlfnq0","","null","","sounds/syllables/ko_SWS.wav","","null","","","","","","","","","","","","","","","","","","","","","","","","","","","","","","","",""
"html-keyboard-response","330","2170993","0.0-8.0-2.0-2.24-1.24","1","0","7gmbq23avrlfnq0","","632.2999999821186","","<p>To replay the <u>TARGET SOUND</u>, press P.</p> When you are ready to begin, press SPACEBAR.","","80","","","","","","","","","","","","","","","","","","","","","","","","","","","","","","","",""
"audio-keyboard-response","331","2171800","0.0-8.0-2.0-2.25-0.25","1","0","7gmbq23avrlfnq0","","null","","sounds/syllables/ko_SWS.wav","","null","","","","","","","","","","","","","","","","","","","","","","","","","","","","","","","",""
"html-keyboard-response","332","2172241","0.0-8.0-2.0-2.25-1.25","1","0","7gmbq23avrlfnq0","","439.90000000596046","","<p>To replay the <u>TARGET SOUND</u>, press P.</p> When you are ready to begin, press SPACEBAR.","","32","","","","","","","","","","","","","","","","","","","","","","","","","","","","","","","",""
"audio-keyboard-response","333","2187193","0.0-8.0-2.0-3.7","1","0","7gmbq23avrlfnq0","","3307","","sounds/A/TD/KO_05_TD.mp3","","32","","","TD_SUMMARY","","","","","","","","","","KO","","3300,5100,10500,12300","3","3300","5100","10500","12300","389.10000002384186","372.2000000178814","675.4000000059605","229.30000001192093","___________________________________________________________3307.2000000178814_3689.100000023842_5472.200000017881_8739.90000000596_10048.100000023842_11175.40000000596_12529.300000011921","3","","","","","",""
"html-button-response","334","2188272","0.0-8.0-2.0-0.8","1","0","7gmbq23avrlfnq0","","1077.5999999940395","","<p>Trial 9 of 36</p>","0","","","","","","","","","","","","","","NI","sounds/syllables/ni_SWS.wav","1500,8700,10500,13200","3","","","","","","","","","","","","","","","",""
"html-keyboard-response","335","2189260","0.0-8.0-2.0-1.8","1","0","7gmbq23avrlfnq0","","987.1000000238419","","","","80","","","","","","","","","","","","","NI","","1500,8700,10500,13200","3","","","","","","","","","","","","","","","",""
"audio-keyboard-response","336","2189561","0.0-8.0-2.0-2.26-0.26","1","0","7gmbq23avrlfnq0","","null","","sounds/syllables/ni_SWS.wav","","null","","","","","","","","","","","","","","","","","","","","","","","","","","","","","","","",""
"html-keyboard-response","337","2190133","0.0-8.0-2.0-2.26-1.26","1","0","7gmbq23avrlfnq0","","571.5999999940395","","<p>To replay the <u>TARGET SOUND</u>, press P.</p> When you are ready to begin, press SPACEBAR.","","80","","","","","","","","","","","","","","","","","","","","","","","","","","","","","","","",""
