"trial_type","trial_index","time_elapsed","internal_node_id","counterbalance","lang_instruct","ParticipantID","view_history","rt","url","stimulus","button_pressed","key_press","correctRESP","correct","designation","location","correctanswer","timeouts","pause_rt01","pause_rt02","train_file","numKeyPress","sound","fam_type","SYLLABLE","EXEMPLAR","TD_LOCS","TD_TYPE","TDLOC_01","TDLOC_02","TDLOC_03","TDLOC_04","TD_RT_01","TD_RT_02","TD_RT_03","TD_RT_04","TD_SUBJ_RTs","number_of_plays","responses","slider_start","response","question_order","syllable","syllable_type"
"pavlovia","0","8","0.0-0.0","3","0","8b49vbflgj8unfd","","","","","","","","","","","","","","","","","","","","","","","","","","","","","","","","","","","","","",""
"instructions","1","151153","0.0-1.0","3","0","8b49vbflgj8unfd","[{""page_index"":0,""viewing_time"":3182.0999999046326},{""page_index"":1,""viewing_time"":147948.09999990463}]","151142.80000019073","","","","","","","","","","","","","","","","","","","","","","","","","","","","","","","","","","","",""
"external-html","2","156422","0.0-2.0","3","0","8b49vbflgj8unfd","","4823","consent/consent.html","","","","","","","","","","","","","","","","","","","","","","","","","","","","","","","","","","",""
"html-button-response","3","158989","0.0-3.0-0.0-0.0","3","0","8b49vbflgj8unfd","","2562.7000002861023","","<p>Welcome to the study. You will first complete a short volume calibration and headphone check.</p><p>Please make sure you are in a quiet listening environment, that you are wearing headphones, and that your computer's volume is turned on.<p></p>","0","","","","","","","","","","","","","","","","","","","","","","","","","","","","","","","","",""
"html-button-response","4","165746","0.0-3.0-0.0-1.0","3","0","8b49vbflgj8unfd","","6491.5","","<p>The volume calibration will be first.</p><p>You will hear a thirty-second noise. Please adjust your computer's volume so that this noise is being presented at a comfortable level.<p></p>","0","","","","","","","","","","","","","","","","","","","","","","","","","","","","","","","","",""
"audio-button-response","5","175401","0.0-3.0-0.0-2.0","3","0","8b49vbflgj8unfd","","9171","","audCalib/volumetest.mp3","0","","","","","","","","","","","","","","","","","","","","","","","","","","","","","","","","",""
"html-button-response","6","181192","0.0-3.0-1.0-0.0","3","0","8b49vbflgj8unfd","","5788","","<p>You will now complete a short headphone check.</p><p>On each trial, you will hear three tones. One of these tones will be quieter than the others. Your task is to identify whether the quiet tone occured first, second, or third.</p><p>There are six trials in total.<p></p>","0","","","","","","","","","","","","","","","","","","","","","","","","","","","","","","","","",""
"html-keyboard-response","7","181964","0.0-3.0-1.0-1.0-0.0","3","0","8b49vbflgj8unfd","","null","","<div style=""font-size:60px;"">+</div>","","null","","","","","","","","","","","","","","","","","","","","","","","","","","","","","","","",""
"audio-button-response","8","187352","0.0-3.0-1.0-1.0-1.0","3","0","8b49vbflgj8unfd","","5379","","audCalib/t2_1.mp3","1","","1","1","headphone-test","","","","","","","","","","","","","","","","","","","","","","","","","","","","",""
"html-keyboard-response","9","188128","0.0-3.0-1.0-1.0-0.1","3","0","8b49vbflgj8unfd","","null","","<div style=""font-size:60px;"">+</div>","","null","","","","","","","","","","","","","","","","","","","","","","","","","","","","","","","",""
"audio-button-response","10","192559","0.0-3.0-1.0-1.0-1.1","3","0","8b49vbflgj8unfd","","4429","","audCalib/t2_2.mp3","1","","1","1","headphone-test","","","","","","","","","","","","","","","","","","","","","","","","","","","","",""
"html-keyboard-response","11","193338","0.0-3.0-1.0-1.0-0.2","3","0","8b49vbflgj8unfd","","null","","<div style=""font-size:60px;"">+</div>","","null","","","","","","","","","","","","","","","","","","","","","","","","","","","","","","","",""
"audio-button-response","12","197527","0.0-3.0-1.0-1.0-1.2","3","0","8b49vbflgj8unfd","","4192","","audCalib/t1_1.mp3","0","","0","1","headphone-test","","","","","","","","","","","","","","","","","","","","","","","","","","","","",""
"html-keyboard-response","13","198298","0.0-3.0-1.0-1.0-0.3","3","0","8b49vbflgj8unfd","","null","","<div style=""font-size:60px;"">+</div>","","null","","","","","","","","","","","","","","","","","","","","","","","","","","","","","","","",""
"audio-button-response","14","202366","0.0-3.0-1.0-1.0-1.3","3","0","8b49vbflgj8unfd","","4072","","audCalib/t3_1.mp3","2","","2","1","headphone-test","","","","","","","","","","","","","","","","","","","","","","","","","","","","",""
"html-keyboard-response","15","203140","0.0-3.0-1.0-1.0-0.4","3","0","8b49vbflgj8unfd","","null","","<div style=""font-size:60px;"">+</div>","","null","","","","","","","","","","","","","","","","","","","","","","","","","","","","","","","",""
"audio-button-response","16","207229","0.0-3.0-1.0-1.0-1.4","3","0","8b49vbflgj8unfd","","4091","","audCalib/t3_2.mp3","2","","2","1","headphone-test","","","","","","","","","","","","","","","","","","","","","","","","","","","","",""
"html-keyboard-response","17","207998","0.0-3.0-1.0-1.0-0.5","3","0","8b49vbflgj8unfd","","null","","<div style=""font-size:60px;"">+</div>","","null","","","","","","","","","","","","","","","","","","","","","","","","","","","","","","","",""
"audio-button-response","18","211766","0.0-3.0-1.0-1.0-1.5","3","0","8b49vbflgj8unfd","","3760","","audCalib/t1_2.mp3","0","","0","1","headphone-test","","","","","","","","","","","","","","","","","","","","","","","","","","","","",""
"html-button-response","19","214445","0.0-3.0-2.0","3","0","8b49vbflgj8unfd","","2409.300000190735","","<p>The volume calibration and headphone check are now complete.</p>","0","","","","","","","","","","","","","","","","","","","","","","","","","","","","","","","","",""
"instructions","20","226578","0.0-4.0-0.0","3","0","8b49vbflgj8unfd","[{""page_index"":0,""viewing_time"":1918},{""page_index"":1,""viewing_time"":7334.200000286102},{""page_index"":2,""viewing_time"":2879.3999996185303}]","12132.300000190735","","","","","","","","","","","","","","","","","","","","","","","","","","","","","","","","","","","",""
"audio-keyboard-response","21","226877","0.0-4.0-1.0-0.0","3","0","8b49vbflgj8unfd","","null","","sounds/induction/left_rev/ru_SWS.wav","","null","","","","","","","","","","","","","","","","","","","","","","","","","","","","","","","",""
"html-button-response","22","228811","0.0-4.0-1.0-1.0","3","0","8b49vbflgj8unfd","","1930.4000000953674","","Was the sound coming from the left or the right?","1","","","0","INDUCTION-JUDGMENT","left","0","","","","","","","","","","","","","","","","","","","","","","","","","","",""
"html-keyboard-response","23","229815","0.0-4.0-1.0-2.0","3","0","8b49vbflgj8unfd","","null","","<p style=""color:#690000;""><b>Incorrect!</b></p>","","null","","","","","","","","","","","","","","","","","","","","","","","","","","","","","","","",""
"audio-keyboard-response","24","230635","0.0-4.0-1.0-0.1","3","0","8b49vbflgj8unfd","","null","","sounds/induction/left_rev/fu_SWS.wav","","null","","","","","","","","","","","","","","","","","","","","","","","","","","","","","","","",""
"html-button-response","25","236137","0.0-4.0-1.0-1.1","3","0","8b49vbflgj8unfd","","5499.800000190735","","Was the sound coming from the left or the right?","0","","","1","INDUCTION-JUDGMENT","left","0","","","","","","","","","","","","","","","","","","","","","","","","","","",""
"html-keyboard-response","26","237152","0.0-4.0-1.0-2.1","3","0","8b49vbflgj8unfd","","null","","<p style=""color:#054d00;""><b>Correct!</b></p>","","null","","","","","","","","","","","","","","","","","","","","","","","","","","","","","","","",""
"audio-keyboard-response","27","237956","0.0-4.0-1.0-0.2","3","0","8b49vbflgj8unfd","","null","","sounds/induction/right_rev/ta_SWS.wav","","null","","","","","","","","","","","","","","","","","","","","","","","","","","","","","","","",""
"html-button-response","28","239305","0.0-4.0-1.0-1.2","3","0","8b49vbflgj8unfd","","1342.4000000953674","","Was the sound coming from the left or the right?","1","","","1","INDUCTION-JUDGMENT","right","1","","","","","","","","","","","","","","","","","","","","","","","","","","",""
"html-keyboard-response","29","240317","0.0-4.0-1.0-2.2","3","0","8b49vbflgj8unfd","","null","","<p style=""color:#054d00;""><b>Correct!</b></p>","","null","","","","","","","","","","","","","","","","","","","","","","","","","","","","","","","",""
"audio-keyboard-response","30","241124","0.0-4.0-1.0-0.3","3","0","8b49vbflgj8unfd","","null","","sounds/induction/right_rev/ta_SWS.wav","","null","","","","","","","","","","","","","","","","","","","","","","","","","","","","","","","",""
"html-button-response","31","241609","0.0-4.0-1.0-1.3","3","0","8b49vbflgj8unfd","","482.2000002861023","","Was the sound coming from the left or the right?","1","","","1","INDUCTION-JUDGMENT","right","1","","","","","","","","","","","","","","","","","","","","","","","","","","",""
"html-keyboard-response","32","242627","0.0-4.0-1.0-2.3","3","0","8b49vbflgj8unfd","","null","","<p style=""color:#054d00;""><b>Correct!</b></p>","","null","","","","","","","","","","","","","","","","","","","","","","","","","","","","","","","",""
"audio-keyboard-response","33","243435","0.0-4.0-1.0-0.4","3","0","8b49vbflgj8unfd","","null","","sounds/induction/right_rev/re_SWS.wav","","null","","","","","","","","","","","","","","","","","","","","","","","","","","","","","","","",""
"html-button-response","34","244232","0.0-4.0-1.0-1.4","3","0","8b49vbflgj8unfd","","793.7999997138977","","Was the sound coming from the left or the right?","1","","","1","INDUCTION-JUDGMENT","right","1","","","","","","","","","","","","","","","","","","","","","","","","","","",""
"html-keyboard-response","35","245248","0.0-4.0-1.0-2.4","3","0","8b49vbflgj8unfd","","null","","<p style=""color:#054d00;""><b>Correct!</b></p>","","null","","","","","","","","","","","","","","","","","","","","","","","","","","","","","","","",""
"audio-keyboard-response","36","246065","0.0-4.0-1.0-0.5","3","0","8b49vbflgj8unfd","","null","","sounds/induction/right_rev/ko_SWS.wav","","null","","","","","","","","","","","","","","","","","","","","","","","","","","","","","","","",""
"html-button-response","37","246520","0.0-4.0-1.0-1.5","3","0","8b49vbflgj8unfd","","452.69999980926514","","Was the sound coming from the left or the right?","1","","","1","INDUCTION-JUDGMENT","right","1","","","","","","","","","","","","","","","","","","","","","","","","","","",""
"html-keyboard-response","38","247535","0.0-4.0-1.0-2.5","3","0","8b49vbflgj8unfd","","null","","<p style=""color:#054d00;""><b>Correct!</b></p>","","null","","","","","","","","","","","","","","","","","","","","","","","","","","","","","","","",""
"audio-keyboard-response","39","248344","0.0-4.0-1.0-0.6","3","0","8b49vbflgj8unfd","","null","","sounds/induction/right_rev/ko_SWS.wav","","null","","","","","","","","","","","","","","","","","","","","","","","","","","","","","","","",""
"html-button-response","40","248752","0.0-4.0-1.0-1.6","3","0","8b49vbflgj8unfd","","404.2999997138977","","Was the sound coming from the left or the right?","1","","","1","INDUCTION-JUDGMENT","right","1","","","","","","","","","","","","","","","","","","","","","","","","","","",""
"html-keyboard-response","41","249772","0.0-4.0-1.0-2.6","3","0","8b49vbflgj8unfd","","null","","<p style=""color:#054d00;""><b>Correct!</b></p>","","null","","","","","","","","","","","","","","","","","","","","","","","","","","","","","","","",""
"audio-keyboard-response","42","250594","0.0-4.0-1.0-0.7","3","0","8b49vbflgj8unfd","","null","","sounds/induction/left_rev/ta_SWS.wav","","null","","","","","","","","","","","","","","","","","","","","","","","","","","","","","","","",""
"html-button-response","43","251175","0.0-4.0-1.0-1.7","3","0","8b49vbflgj8unfd","","578.6999998092651","","Was the sound coming from the left or the right?","0","","","1","INDUCTION-JUDGMENT","left","0","","","","","","","","","","","","","","","","","","","","","","","","","","",""
"html-keyboard-response","44","252189","0.0-4.0-1.0-2.7","3","0","8b49vbflgj8unfd","","null","","<p style=""color:#054d00;""><b>Correct!</b></p>","","null","","","","","","","","","","","","","","","","","","","","","","","","","","","","","","","",""
"audio-keyboard-response","45","252995","0.0-4.0-1.0-0.8","3","0","8b49vbflgj8unfd","","null","","sounds/induction/left_rev/fe_SWS.wav","","null","","","","","","","","","","","","","","","","","","","","","","","","","","","","","","","",""
"html-button-response","46","253398","0.0-4.0-1.0-1.8","3","0","8b49vbflgj8unfd","","401.90000009536743","","Was the sound coming from the left or the right?","0","","","1","INDUCTION-JUDGMENT","left","0","","","","","","","","","","","","","","","","","","","","","","","","","","",""
"html-keyboard-response","47","254410","0.0-4.0-1.0-2.8","3","0","8b49vbflgj8unfd","","null","","<p style=""color:#054d00;""><b>Correct!</b></p>","","null","","","","","","","","","","","","","","","","","","","","","","","","","","","","","","","",""
"audio-keyboard-response","48","255225","0.0-4.0-1.0-0.9","3","0","8b49vbflgj8unfd","","null","","sounds/induction/right_rev/pu_SWS.wav","","null","","","","","","","","","","","","","","","","","","","","","","","","","","","","","","","",""
"html-button-response","49","255735","0.0-4.0-1.0-1.9","3","0","8b49vbflgj8unfd","","507.69999980926514","","Was the sound coming from the left or the right?","1","","","1","INDUCTION-JUDGMENT","right","1","","","","","","","","","","","","","","","","","","","","","","","","","","",""
"html-keyboard-response","50","256750","0.0-4.0-1.0-2.9","3","0","8b49vbflgj8unfd","","null","","<p style=""color:#054d00;""><b>Correct!</b></p>","","null","","","","","","","","","","","","","","","","","","","","","","","","","","","","","","","",""
"audio-keyboard-response","51","257564","0.0-4.0-1.0-0.10","3","0","8b49vbflgj8unfd","","null","","sounds/induction/left_rev/re_SWS.wav","","null","","","","","","","","","","","","","","","","","","","","","","","","","","","","","","","",""
"html-button-response","52","257966","0.0-4.0-1.0-1.10","3","0","8b49vbflgj8unfd","","398.59999990463257","","Was the sound coming from the left or the right?","0","","","1","INDUCTION-JUDGMENT","left","0","","","","","","","","","","","","","","","","","","","","","","","","","","",""
"html-keyboard-response","53","258968","0.0-4.0-1.0-2.10","3","0","8b49vbflgj8unfd","","null","","<p style=""color:#054d00;""><b>Correct!</b></p>","","null","","","","","","","","","","","","","","","","","","","","","","","","","","","","","","","",""
"audio-keyboard-response","54","259765","0.0-4.0-1.0-0.11","3","0","8b49vbflgj8unfd","","null","","sounds/induction/right_rev/ge_SWS.wav","","null","","","","","","","","","","","","","","","","","","","","","","","","","","","","","","","",""
"html-button-response","55","260309","0.0-4.0-1.0-1.11","3","0","8b49vbflgj8unfd","","542.8000001907349","","Was the sound coming from the left or the right?","1","","","1","INDUCTION-JUDGMENT","right","1","","","","","","","","","","","","","","","","","","","","","","","","","","",""
"html-keyboard-response","56","261312","0.0-4.0-1.0-2.11","3","0","8b49vbflgj8unfd","","null","","<p style=""color:#054d00;""><b>Correct!</b></p>","","null","","","","","","","","","","","","","","","","","","","","","","","","","","","","","","","",""
"audio-keyboard-response","57","262125","0.0-4.0-1.0-0.12","3","0","8b49vbflgj8unfd","","null","","sounds/induction/right_rev/ni_SWS.wav","","null","","","","","","","","","","","","","","","","","","","","","","","","","","","","","","","",""
"html-button-response","58","262726","0.0-4.0-1.0-1.12","3","0","8b49vbflgj8unfd","","600","","Was the sound coming from the left or the right?","1","","","1","INDUCTION-JUDGMENT","right","1","","","","","","","","","","","","","","","","","","","","","","","","","","",""
"html-keyboard-response","59","263744","0.0-4.0-1.0-2.12","3","0","8b49vbflgj8unfd","","null","","<p style=""color:#054d00;""><b>Correct!</b></p>","","null","","","","","","","","","","","","","","","","","","","","","","","","","","","","","","","",""
"audio-keyboard-response","60","264554","0.0-4.0-1.0-0.13","3","0","8b49vbflgj8unfd","","null","","sounds/induction/right_rev/ti_SWS.wav","","null","","","","","","","","","","","","","","","","","","","","","","","","","","","","","","","",""
"html-button-response","61","264989","0.0-4.0-1.0-1.13","3","0","8b49vbflgj8unfd","","433.2999997138977","","Was the sound coming from the left or the right?","1","","","1","INDUCTION-JUDGMENT","right","1","","","","","","","","","","","","","","","","","","","","","","","","","","",""
"html-keyboard-response","62","265998","0.0-4.0-1.0-2.13","3","0","8b49vbflgj8unfd","","null","","<p style=""color:#054d00;""><b>Correct!</b></p>","","null","","","","","","","","","","","","","","","","","","","","","","","","","","","","","","","",""
"audio-keyboard-response","63","266795","0.0-4.0-1.0-0.14","3","0","8b49vbflgj8unfd","","null","","sounds/induction/left_rev/ta_SWS.wav","","null","","","","","","","","","","","","","","","","","","","","","","","","","","","","","","","",""
"html-button-response","64","267237","0.0-4.0-1.0-1.14","3","0","8b49vbflgj8unfd","","440","","Was the sound coming from the left or the right?","0","","","1","INDUCTION-JUDGMENT","left","0","","","","","","","","","","","","","","","","","","","","","","","","","","",""
"html-keyboard-response","65","268249","0.0-4.0-1.0-2.14","3","0","8b49vbflgj8unfd","","null","","<p style=""color:#054d00;""><b>Correct!</b></p>","","null","","","","","","","","","","","","","","","","","","","","","","","","","","","","","","","",""
"audio-keyboard-response","66","269064","0.0-4.0-1.0-0.15","3","0","8b49vbflgj8unfd","","null","","sounds/induction/left_rev/fe_SWS.wav","","null","","","","","","","","","","","","","","","","","","","","","","","","","","","","","","","",""
"html-button-response","67","269462","0.0-4.0-1.0-1.15","3","0","8b49vbflgj8unfd","","394.8999996185303","","Was the sound coming from the left or the right?","0","","","1","INDUCTION-JUDGMENT","left","0","","","","","","","","","","","","","","","","","","","","","","","","","","",""
"html-keyboard-response","68","270467","0.0-4.0-1.0-2.15","3","0","8b49vbflgj8unfd","","null","","<p style=""color:#054d00;""><b>Correct!</b></p>","","null","","","","","","","","","","","","","","","","","","","","","","","","","","","","","","","",""
"audio-keyboard-response","69","271275","0.0-4.0-1.0-0.16","3","0","8b49vbflgj8unfd","","null","","sounds/induction/right_rev/su_SWS.wav","","null","","","","","","","","","","","","","","","","","","","","","","","","","","","","","","","",""
"html-button-response","70","271668","0.0-4.0-1.0-1.16","3","0","8b49vbflgj8unfd","","389.2999997138977","","Was the sound coming from the left or the right?","1","","","1","INDUCTION-JUDGMENT","right","1","","","","","","","","","","","","","","","","","","","","","","","","","","",""
"html-keyboard-response","71","272686","0.0-4.0-1.0-2.16","3","0","8b49vbflgj8unfd","","null","","<p style=""color:#054d00;""><b>Correct!</b></p>","","null","","","","","","","","","","","","","","","","","","","","","","","","","","","","","","","",""
"audio-keyboard-response","72","273504","0.0-4.0-1.0-0.17","3","0","8b49vbflgj8unfd","","null","","sounds/induction/right_rev/su_SWS.wav","","null","","","","","","","","","","","","","","","","","","","","","","","","","","","","","","","",""
"html-button-response","73","273940","0.0-4.0-1.0-1.17","3","0","8b49vbflgj8unfd","","433.7000002861023","","Was the sound coming from the left or the right?","1","","","1","INDUCTION-JUDGMENT","right","1","","","","","","","","","","","","","","","","","","","","","","","","","","",""
"html-keyboard-response","74","274959","0.0-4.0-1.0-2.17","3","0","8b49vbflgj8unfd","","null","","<p style=""color:#054d00;""><b>Correct!</b></p>","","null","","","","","","","","","","","","","","","","","","","","","","","","","","","","","","","",""
"audio-keyboard-response","75","275764","0.0-4.0-1.0-0.18","3","0","8b49vbflgj8unfd","","null","","sounds/induction/right_rev/re_SWS.wav","","null","","","","","","","","","","","","","","","","","","","","","","","","","","","","","","","",""
"html-button-response","76","276422","0.0-4.0-1.0-1.18","3","0","8b49vbflgj8unfd","","653.5","","Was the sound coming from the left or the right?","1","","","1","INDUCTION-JUDGMENT","right","1","","","","","","","","","","","","","","","","","","","","","","","","","","",""
"html-keyboard-response","77","277442","0.0-4.0-1.0-2.18","3","0","8b49vbflgj8unfd","","null","","<p style=""color:#054d00;""><b>Correct!</b></p>","","null","","","","","","","","","","","","","","","","","","","","","","","","","","","","","","","",""
"audio-keyboard-response","78","278265","0.0-4.0-1.0-0.19","3","0","8b49vbflgj8unfd","","null","","sounds/induction/left_rev/me_SWS.wav","","null","","","","","","","","","","","","","","","","","","","","","","","","","","","","","","","",""
"html-button-response","79","278628","0.0-4.0-1.0-1.19","3","0","8b49vbflgj8unfd","","361.19999980926514","","Was the sound coming from the left or the right?","0","","","1","INDUCTION-JUDGMENT","left","0","","","","","","","","","","","","","","","","","","","","","","","","","","",""
"html-keyboard-response","80","279632","0.0-4.0-1.0-2.19","3","0","8b49vbflgj8unfd","","null","","<p style=""color:#054d00;""><b>Correct!</b></p>","","null","","","","","","","","","","","","","","","","","","","","","","","","","","","","","","","",""
"audio-keyboard-response","81","280435","0.0-4.0-1.0-0.20","3","0","8b49vbflgj8unfd","","null","","sounds/induction/left_rev/su_SWS.wav","","null","","","","","","","","","","","","","","","","","","","","","","","","","","","","","","","",""
"html-button-response","82","280795","0.0-4.0-1.0-1.20","3","0","8b49vbflgj8unfd","","358.2000002861023","","Was the sound coming from the left or the right?","0","","","1","INDUCTION-JUDGMENT","left","0","","","","","","","","","","","","","","","","","","","","","","","","","","",""
"html-keyboard-response","83","281799","0.0-4.0-1.0-2.20","3","0","8b49vbflgj8unfd","","null","","<p style=""color:#054d00;""><b>Correct!</b></p>","","null","","","","","","","","","","","","","","","","","","","","","","","","","","","","","","","",""
"audio-keyboard-response","84","282604","0.0-4.0-1.0-0.21","3","0","8b49vbflgj8unfd","","null","","sounds/induction/right_rev/pu_SWS.wav","","null","","","","","","","","","","","","","","","","","","","","","","","","","","","","","","","",""
"html-button-response","85","282964","0.0-4.0-1.0-1.21","3","0","8b49vbflgj8unfd","","357.3999996185303","","Was the sound coming from the left or the right?","1","","","1","INDUCTION-JUDGMENT","right","1","","","","","","","","","","","","","","","","","","","","","","","","","","",""
"html-keyboard-response","86","283982","0.0-4.0-1.0-2.21","3","0","8b49vbflgj8unfd","","null","","<p style=""color:#054d00;""><b>Correct!</b></p>","","null","","","","","","","","","","","","","","","","","","","","","","","","","","","","","","","",""
"audio-keyboard-response","87","284785","0.0-4.0-1.0-0.22","3","0","8b49vbflgj8unfd","","null","","sounds/induction/right_rev/ru_SWS.wav","","null","","","","","","","","","","","","","","","","","","","","","","","","","","","","","","","",""
"html-button-response","88","285162","0.0-4.0-1.0-1.22","3","0","8b49vbflgj8unfd","","375.69999980926514","","Was the sound coming from the left or the right?","1","","","1","INDUCTION-JUDGMENT","right","1","","","","","","","","","","","","","","","","","","","","","","","","","","",""
"html-keyboard-response","89","286168","0.0-4.0-1.0-2.22","3","0","8b49vbflgj8unfd","","null","","<p style=""color:#054d00;""><b>Correct!</b></p>","","null","","","","","","","","","","","","","","","","","","","","","","","","","","","","","","","",""
"audio-keyboard-response","90","286965","0.0-4.0-1.0-0.23","3","0","8b49vbflgj8unfd","","null","","sounds/induction/right_rev/ti_SWS.wav","","null","","","","","","","","","","","","","","","","","","","","","","","","","","","","","","","",""
"html-button-response","91","287338","0.0-4.0-1.0-1.23","3","0","8b49vbflgj8unfd","","369.2999997138977","","Was the sound coming from the left or the right?","1","","","1","INDUCTION-JUDGMENT","right","1","","","","","","","","","","","","","","","","","","","","","","","","","","",""
"html-keyboard-response","92","288355","0.0-4.0-1.0-2.23","3","0","8b49vbflgj8unfd","","null","","<p style=""color:#054d00;""><b>Correct!</b></p>","","null","","","","","","","","","","","","","","","","","","","","","","","","","","","","","","","",""
"audio-keyboard-response","93","289155","0.0-4.0-1.0-0.24","3","0","8b49vbflgj8unfd","","null","","sounds/induction/right_rev/me_SWS.wav","","null","","","","","","","","","","","","","","","","","","","","","","","","","","","","","","","",""
"html-button-response","94","289466","0.0-4.0-1.0-1.24","3","0","8b49vbflgj8unfd","","309.30000019073486","","Was the sound coming from the left or the right?","1","","","1","INDUCTION-JUDGMENT","right","1","","","","","","","","","","","","","","","","","","","","","","","","","","",""
"html-keyboard-response","95","290470","0.0-4.0-1.0-2.24","3","0","8b49vbflgj8unfd","","null","","<p style=""color:#054d00;""><b>Correct!</b></p>","","null","","","","","","","","","","","","","","","","","","","","","","","","","","","","","","","",""
"audio-keyboard-response","96","291274","0.0-4.0-1.0-0.25","3","0","8b49vbflgj8unfd","","null","","sounds/induction/left_rev/ge_SWS.wav","","null","","","","","","","","","","","","","","","","","","","","","","","","","","","","","","","",""
"html-button-response","97","291635","0.0-4.0-1.0-1.25","3","0","8b49vbflgj8unfd","","359.40000009536743","","Was the sound coming from the left or the right?","0","","","1","INDUCTION-JUDGMENT","left","0","","","","","","","","","","","","","","","","","","","","","","","","","","",""
"html-keyboard-response","98","292642","0.0-4.0-1.0-2.25","3","0","8b49vbflgj8unfd","","null","","<p style=""color:#054d00;""><b>Correct!</b></p>","","null","","","","","","","","","","","","","","","","","","","","","","","","","","","","","","","",""
"audio-keyboard-response","99","293445","0.0-4.0-1.0-0.26","3","0","8b49vbflgj8unfd","","null","","sounds/induction/left_rev/ti_SWS.wav","","null","","","","","","","","","","","","","","","","","","","","","","","","","","","","","","","",""
"html-button-response","100","293771","0.0-4.0-1.0-1.26","3","0","8b49vbflgj8unfd","","323.09999990463257","","Was the sound coming from the left or the right?","0","","","1","INDUCTION-JUDGMENT","left","0","","","","","","","","","","","","","","","","","","","","","","","","","","",""
"html-keyboard-response","101","294776","0.0-4.0-1.0-2.26","3","0","8b49vbflgj8unfd","","null","","<p style=""color:#054d00;""><b>Correct!</b></p>","","null","","","","","","","","","","","","","","","","","","","","","","","","","","","","","","","",""
"audio-keyboard-response","102","295585","0.0-4.0-1.0-0.27","3","0","8b49vbflgj8unfd","","null","","sounds/induction/right_rev/ni_SWS.wav","","null","","","","","","","","","","","","","","","","","","","","","","","","","","","","","","","",""
"html-button-response","103","295921","0.0-4.0-1.0-1.27","3","0","8b49vbflgj8unfd","","333.69999980926514","","Was the sound coming from the left or the right?","1","","","1","INDUCTION-JUDGMENT","right","1","","","","","","","","","","","","","","","","","","","","","","","","","","",""
"html-keyboard-response","104","296939","0.0-4.0-1.0-2.27","3","0","8b49vbflgj8unfd","","null","","<p style=""color:#054d00;""><b>Correct!</b></p>","","null","","","","","","","","","","","","","","","","","","","","","","","","","","","","","","","",""
"audio-keyboard-response","105","297744","0.0-4.0-1.0-0.28","3","0","8b49vbflgj8unfd","","null","","sounds/induction/right_rev/me_SWS.wav","","null","","","","","","","","","","","","","","","","","","","","","","","","","","","","","","","",""
"html-button-response","106","298505","0.0-4.0-1.0-1.28","3","0","8b49vbflgj8unfd","","758.9000000953674","","Was the sound coming from the left or the right?","1","","","1","INDUCTION-JUDGMENT","right","1","","","","","","","","","","","","","","","","","","","","","","","","","","",""
"html-keyboard-response","107","299522","0.0-4.0-1.0-2.28","3","0","8b49vbflgj8unfd","","null","","<p style=""color:#054d00;""><b>Correct!</b></p>","","null","","","","","","","","","","","","","","","","","","","","","","","","","","","","","","","",""
"audio-keyboard-response","108","300315","0.0-4.0-1.0-0.29","3","0","8b49vbflgj8unfd","","null","","sounds/induction/right_rev/ru_SWS.wav","","null","","","","","","","","","","","","","","","","","","","","","","","","","","","","","","","",""
"html-button-response","109","300688","0.0-4.0-1.0-1.29","3","0","8b49vbflgj8unfd","","371.30000019073486","","Was the sound coming from the left or the right?","1","","","1","INDUCTION-JUDGMENT","right","1","","","","","","","","","","","","","","","","","","","","","","","","","","",""
"html-keyboard-response","110","301693","0.0-4.0-1.0-2.29","3","0","8b49vbflgj8unfd","","null","","<p style=""color:#054d00;""><b>Correct!</b></p>","","null","","","","","","","","","","","","","","","","","","","","","","","","","","","","","","","",""
"audio-keyboard-response","111","302505","0.0-4.0-1.0-0.30","3","0","8b49vbflgj8unfd","","null","","sounds/induction/left_rev/me_SWS.wav","","null","","","","","","","","","","","","","","","","","","","","","","","","","","","","","","","",""
"html-button-response","112","303168","0.0-4.0-1.0-1.30","3","0","8b49vbflgj8unfd","","660.9000000953674","","Was the sound coming from the left or the right?","0","","","1","INDUCTION-JUDGMENT","left","0","","","","","","","","","","","","","","","","","","","","","","","","","","",""
"html-keyboard-response","113","304182","0.0-4.0-1.0-2.30","3","0","8b49vbflgj8unfd","","null","","<p style=""color:#054d00;""><b>Correct!</b></p>","","null","","","","","","","","","","","","","","","","","","","","","","","","","","","","","","","",""
"audio-keyboard-response","114","304984","0.0-4.0-1.0-0.31","3","0","8b49vbflgj8unfd","","null","","sounds/induction/right_rev/fu_SWS.wav","","null","","","","","","","","","","","","","","","","","","","","","","","","","","","","","","","",""
"html-button-response","115","305392","0.0-4.0-1.0-1.31","3","0","8b49vbflgj8unfd","","405.7000002861023","","Was the sound coming from the left or the right?","1","","","1","INDUCTION-JUDGMENT","right","1","","","","","","","","","","","","","","","","","","","","","","","","","","",""
"html-keyboard-response","116","306397","0.0-4.0-1.0-2.31","3","0","8b49vbflgj8unfd","","null","","<p style=""color:#054d00;""><b>Correct!</b></p>","","null","","","","","","","","","","","","","","","","","","","","","","","","","","","","","","","",""
"audio-keyboard-response","117","307194","0.0-4.0-1.0-0.32","3","0","8b49vbflgj8unfd","","null","","sounds/induction/right_rev/fu_SWS.wav","","null","","","","","","","","","","","","","","","","","","","","","","","","","","","","","","","",""
"html-button-response","118","307559","0.0-4.0-1.0-1.32","3","0","8b49vbflgj8unfd","","360","","Was the sound coming from the left or the right?","1","","","1","INDUCTION-JUDGMENT","right","1","","","","","","","","","","","","","","","","","","","","","","","","","","",""
"html-keyboard-response","119","308565","0.0-4.0-1.0-2.32","3","0","8b49vbflgj8unfd","","null","","<p style=""color:#054d00;""><b>Correct!</b></p>","","null","","","","","","","","","","","","","","","","","","","","","","","","","","","","","","","",""
"audio-keyboard-response","120","309365","0.0-4.0-1.0-0.33","3","0","8b49vbflgj8unfd","","null","","sounds/induction/left_rev/ni_SWS.wav","","null","","","","","","","","","","","","","","","","","","","","","","","","","","","","","","","",""
"html-button-response","121","309704","0.0-4.0-1.0-1.33","3","0","8b49vbflgj8unfd","","336.5","","Was the sound coming from the left or the right?","0","","","1","INDUCTION-JUDGMENT","left","0","","","","","","","","","","","","","","","","","","","","","","","","","","",""
"html-keyboard-response","122","310719","0.0-4.0-1.0-2.33","3","0","8b49vbflgj8unfd","","null","","<p style=""color:#054d00;""><b>Correct!</b></p>","","null","","","","","","","","","","","","","","","","","","","","","","","","","","","","","","","",""
"audio-keyboard-response","123","311525","0.0-4.0-1.0-0.34","3","0","8b49vbflgj8unfd","","null","","sounds/induction/left_rev/su_SWS.wav","","null","","","","","","","","","","","","","","","","","","","","","","","","","","","","","","","",""
"html-button-response","124","311896","0.0-4.0-1.0-1.34","3","0","8b49vbflgj8unfd","","369","","Was the sound coming from the left or the right?","0","","","1","INDUCTION-JUDGMENT","left","0","","","","","","","","","","","","","","","","","","","","","","","","","","",""
"html-keyboard-response","125","312902","0.0-4.0-1.0-2.34","3","0","8b49vbflgj8unfd","","null","","<p style=""color:#054d00;""><b>Correct!</b></p>","","null","","","","","","","","","","","","","","","","","","","","","","","","","","","","","","","",""
"audio-keyboard-response","126","313714","0.0-4.0-1.0-0.35","3","0","8b49vbflgj8unfd","","null","","sounds/induction/left_rev/fu_SWS.wav","","null","","","","","","","","","","","","","","","","","","","","","","","","","","","","","","","",""
"html-button-response","127","314038","0.0-4.0-1.0-1.35","3","0","8b49vbflgj8unfd","","321.69999980926514","","Was the sound coming from the left or the right?","0","","","1","INDUCTION-JUDGMENT","left","0","","","","","","","","","","","","","","","","","","","","","","","","","","",""
"html-keyboard-response","128","315045","0.0-4.0-1.0-2.35","3","0","8b49vbflgj8unfd","","null","","<p style=""color:#054d00;""><b>Correct!</b></p>","","null","","","","","","","","","","","","","","","","","","","","","","","","","","","","","","","",""
"audio-keyboard-response","129","315845","0.0-4.0-1.0-0.36","3","0","8b49vbflgj8unfd","","null","","sounds/induction/left_rev/ko_SWS.wav","","null","","","","","","","","","","","","","","","","","","","","","","","","","","","","","","","",""
"html-button-response","130","316167","0.0-4.0-1.0-1.36","3","0","8b49vbflgj8unfd","","320.19999980926514","","Was the sound coming from the left or the right?","0","","","1","INDUCTION-JUDGMENT","left","0","","","","","","","","","","","","","","","","","","","","","","","","","","",""
"html-keyboard-response","131","317177","0.0-4.0-1.0-2.36","3","0","8b49vbflgj8unfd","","null","","<p style=""color:#054d00;""><b>Correct!</b></p>","","null","","","","","","","","","","","","","","","","","","","","","","","","","","","","","","","",""
"audio-keyboard-response","132","317995","0.0-4.0-1.0-0.37","3","0","8b49vbflgj8unfd","","null","","sounds/induction/right_rev/fe_SWS.wav","","null","","","","","","","","","","","","","","","","","","","","","","","","","","","","","","","",""
"html-button-response","133","318727","0.0-4.0-1.0-1.37","3","0","8b49vbflgj8unfd","","729.3000001907349","","Was the sound coming from the left or the right?","1","","","1","INDUCTION-JUDGMENT","right","1","","","","","","","","","","","","","","","","","","","","","","","","","","",""
"html-keyboard-response","134","319731","0.0-4.0-1.0-2.37","3","0","8b49vbflgj8unfd","","null","","<p style=""color:#054d00;""><b>Correct!</b></p>","","null","","","","","","","","","","","","","","","","","","","","","","","","","","","","","","","",""
"audio-keyboard-response","135","320524","0.0-4.0-1.0-0.38","3","0","8b49vbflgj8unfd","","null","","sounds/induction/left_rev/ni_SWS.wav","","null","","","","","","","","","","","","","","","","","","","","","","","","","","","","","","","",""
"html-button-response","136","320918","0.0-4.0-1.0-1.38","3","0","8b49vbflgj8unfd","","390.59999990463257","","Was the sound coming from the left or the right?","0","","","1","INDUCTION-JUDGMENT","left","0","","","","","","","","","","","","","","","","","","","","","","","","","","",""
"html-keyboard-response","137","321920","0.0-4.0-1.0-2.38","3","0","8b49vbflgj8unfd","","null","","<p style=""color:#054d00;""><b>Correct!</b></p>","","null","","","","","","","","","","","","","","","","","","","","","","","","","","","","","","","",""
"audio-keyboard-response","138","322714","0.0-4.0-1.0-0.39","3","0","8b49vbflgj8unfd","","null","","sounds/induction/left_rev/pu_SWS.wav","","null","","","","","","","","","","","","","","","","","","","","","","","","","","","","","","","",""
"html-button-response","139","323166","0.0-4.0-1.0-1.39","3","0","8b49vbflgj8unfd","","449.8999996185303","","Was the sound coming from the left or the right?","0","","","1","INDUCTION-JUDGMENT","left","0","","","","","","","","","","","","","","","","","","","","","","","","","","",""
"html-keyboard-response","140","324187","0.0-4.0-1.0-2.39","3","0","8b49vbflgj8unfd","","null","","<p style=""color:#054d00;""><b>Correct!</b></p>","","null","","","","","","","","","","","","","","","","","","","","","","","","","","","","","","","",""
"audio-keyboard-response","141","324994","0.0-4.0-1.0-0.40","3","0","8b49vbflgj8unfd","","null","","sounds/induction/left_rev/ru_SWS.wav","","null","","","","","","","","","","","","","","","","","","","","","","","","","","","","","","","",""
"html-button-response","142","325381","0.0-4.0-1.0-1.40","3","0","8b49vbflgj8unfd","","384.19999980926514","","Was the sound coming from the left or the right?","0","","","1","INDUCTION-JUDGMENT","left","0","","","","","","","","","","","","","","","","","","","","","","","","","","",""
"html-keyboard-response","143","326391","0.0-4.0-1.0-2.40","3","0","8b49vbflgj8unfd","","null","","<p style=""color:#054d00;""><b>Correct!</b></p>","","null","","","","","","","","","","","","","","","","","","","","","","","","","","","","","","","",""
"audio-keyboard-response","144","327194","0.0-4.0-1.0-0.41","3","0","8b49vbflgj8unfd","","null","","sounds/induction/left_rev/ti_SWS.wav","","null","","","","","","","","","","","","","","","","","","","","","","","","","","","","","","","",""
"html-button-response","145","328166","0.0-4.0-1.0-1.41","3","0","8b49vbflgj8unfd","","967.5","","Was the sound coming from the left or the right?","0","","","1","INDUCTION-JUDGMENT","left","0","","","","","","","","","","","","","","","","","","","","","","","","","","",""
"html-keyboard-response","146","329178","0.0-4.0-1.0-2.41","3","0","8b49vbflgj8unfd","","null","","<p style=""color:#054d00;""><b>Correct!</b></p>","","null","","","","","","","","","","","","","","","","","","","","","","","","","","","","","","","",""
"audio-keyboard-response","147","329994","0.0-4.0-1.0-0.42","3","0","8b49vbflgj8unfd","","null","","sounds/induction/left_rev/ko_SWS.wav","","null","","","","","","","","","","","","","","","","","","","","","","","","","","","","","","","",""
"html-button-response","148","330452","0.0-4.0-1.0-1.42","3","0","8b49vbflgj8unfd","","455.90000009536743","","Was the sound coming from the left or the right?","0","","","1","INDUCTION-JUDGMENT","left","0","","","","","","","","","","","","","","","","","","","","","","","","","","",""
"html-keyboard-response","149","331467","0.0-4.0-1.0-2.42","3","0","8b49vbflgj8unfd","","null","","<p style=""color:#054d00;""><b>Correct!</b></p>","","null","","","","","","","","","","","","","","","","","","","","","","","","","","","","","","","",""
"audio-keyboard-response","150","332274","0.0-4.0-1.0-0.43","3","0","8b49vbflgj8unfd","","null","","sounds/induction/left_rev/pu_SWS.wav","","null","","","","","","","","","","","","","","","","","","","","","","","","","","","","","","","",""
"html-button-response","151","332668","0.0-4.0-1.0-1.43","3","0","8b49vbflgj8unfd","","391.2000002861023","","Was the sound coming from the left or the right?","0","","","1","INDUCTION-JUDGMENT","left","0","","","","","","","","","","","","","","","","","","","","","","","","","","",""
"html-keyboard-response","152","333681","0.0-4.0-1.0-2.43","3","0","8b49vbflgj8unfd","","null","","<p style=""color:#054d00;""><b>Correct!</b></p>","","null","","","","","","","","","","","","","","","","","","","","","","","","","","","","","","","",""
"audio-keyboard-response","153","334474","0.0-4.0-1.0-0.44","3","0","8b49vbflgj8unfd","","null","","sounds/induction/right_rev/fe_SWS.wav","","null","","","","","","","","","","","","","","","","","","","","","","","","","","","","","","","",""
"html-button-response","154","334836","0.0-4.0-1.0-1.44","3","0","8b49vbflgj8unfd","","359.5","","Was the sound coming from the left or the right?","1","","","1","INDUCTION-JUDGMENT","right","1","","","","","","","","","","","","","","","","","","","","","","","","","","",""
"html-keyboard-response","155","335852","0.0-4.0-1.0-2.44","3","0","8b49vbflgj8unfd","","null","","<p style=""color:#054d00;""><b>Correct!</b></p>","","null","","","","","","","","","","","","","","","","","","","","","","","","","","","","","","","",""
"audio-keyboard-response","156","336644","0.0-4.0-1.0-0.45","3","0","8b49vbflgj8unfd","","null","","sounds/induction/left_rev/re_SWS.wav","","null","","","","","","","","","","","","","","","","","","","","","","","","","","","","","","","",""
"html-button-response","157","337043","0.0-4.0-1.0-1.45","3","0","8b49vbflgj8unfd","","397","","Was the sound coming from the left or the right?","0","","","1","INDUCTION-JUDGMENT","left","0","","","","","","","","","","","","","","","","","","","","","","","","","","",""
"html-keyboard-response","158","338051","0.0-4.0-1.0-2.45","3","0","8b49vbflgj8unfd","","null","","<p style=""color:#054d00;""><b>Correct!</b></p>","","null","","","","","","","","","","","","","","","","","","","","","","","","","","","","","","","",""
"audio-keyboard-response","159","338844","0.0-4.0-1.0-0.46","3","0","8b49vbflgj8unfd","","null","","sounds/induction/left_rev/ge_SWS.wav","","null","","","","","","","","","","","","","","","","","","","","","","","","","","","","","","","",""
"html-button-response","160","339683","0.0-4.0-1.0-1.46","3","0","8b49vbflgj8unfd","","837.4000000953674","","Was the sound coming from the left or the right?","0","","","1","INDUCTION-JUDGMENT","left","0","","","","","","","","","","","","","","","","","","","","","","","","","","",""
"html-keyboard-response","161","340696","0.0-4.0-1.0-2.46","3","0","8b49vbflgj8unfd","","null","","<p style=""color:#054d00;""><b>Correct!</b></p>","","null","","","","","","","","","","","","","","","","","","","","","","","","","","","","","","","",""
"audio-keyboard-response","162","341505","0.0-4.0-1.0-0.47","3","0","8b49vbflgj8unfd","","null","","sounds/induction/right_rev/ge_SWS.wav","","null","","","","","","","","","","","","","","","","","","","","","","","","","","","","","","","",""
"html-button-response","163","341996","0.0-4.0-1.0-1.47","3","0","8b49vbflgj8unfd","","487.69999980926514","","Was the sound coming from the left or the right?","1","","","1","INDUCTION-JUDGMENT","right","1","","","","","","","","","","","","","","","","","","","","","","","","","","",""
"html-keyboard-response","164","343000","0.0-4.0-1.0-2.47","3","0","8b49vbflgj8unfd","","null","","<p style=""color:#054d00;""><b>Correct!</b></p>","","null","","","","","","","","","","","","","","","","","","","","","","","","","","","","","","","",""
"html-button-response","165","356889","0.0-5.0-0.0","3","0","8b49vbflgj8unfd","","13385.5","","<p>Thank you for your answers.</p><p>You will now listen to similar sounds. The main difference is that the sounds will be longer.</p><p>Just as before, you will be asked to judge whether the sound was coming from the left or the right.</p><p>There are 10 of these longer sounds in total.","0","","","","","","","","","","","","","","","","","","","","","","","","","","","","","","","","",""
"audio-keyboard-response","166","359775","0.0-5.0-1.0-0.0","3","0","8b49vbflgj8unfd","","null","","sounds/sentences/right_rev/14_07_cfSWS.wav","","null","","","","","","","","","","","","","","","","","","","","","","","","","","","","","","","",""
"html-button-response","167","360457","0.0-5.0-1.0-1.0","3","0","8b49vbflgj8unfd","","678.6000003814697","","Was the sound coming from the left or the right?","1","","","1","INDUCTION-JUDGMENT","right","1","","","","","","","","","","","","","","","","","","","","","","","","","","",""
"html-keyboard-response","168","361474","0.0-5.0-1.0-2.0","3","0","8b49vbflgj8unfd","","null","","<p style=""color:#054d00;""><b>Correct!</b></p>","","null","","","","","","","","","","","","","","","","","","","","","","","","","","","","","","","",""
"html-button-response","169","363985","0.0-5.0-1.0-3.0","3","0","8b49vbflgj8unfd","","2002.4000000953674","","<p>Press the button below when you are ready to continue.</p>","0","","","","","","","","","","","","","","","","","","","","","","","","","","","","","","","","",""
"audio-keyboard-response","170","366745","0.0-5.0-1.0-0.1","3","0","8b49vbflgj8unfd","","null","","sounds/sentences/right_rev/14_06_cfSWS.wav","","null","","","","","","","","","","","","","","","","","","","","","","","","","","","","","","","",""
"html-button-response","171","367136","0.0-5.0-1.0-1.1","3","0","8b49vbflgj8unfd","","387.59999990463257","","Was the sound coming from the left or the right?","1","","","1","INDUCTION-JUDGMENT","right","1","","","","","","","","","","","","","","","","","","","","","","","","","","",""
"html-keyboard-response","172","368143","0.0-5.0-1.0-2.1","3","0","8b49vbflgj8unfd","","null","","<p style=""color:#054d00;""><b>Correct!</b></p>","","null","","","","","","","","","","","","","","","","","","","","","","","","","","","","","","","",""
"html-button-response","173","369790","0.0-5.0-1.0-3.1","3","0","8b49vbflgj8unfd","","1144.5","","<p>Press the button below when you are ready to continue.</p>","0","","","","","","","","","","","","","","","","","","","","","","","","","","","","","","","","",""
"audio-keyboard-response","174","372364","0.0-5.0-1.0-0.2","3","0","8b49vbflgj8unfd","","null","","sounds/sentences/left_rev/14_04_cfSWS.wav","","null","","","","","","","","","","","","","","","","","","","","","","","","","","","","","","","",""
"html-button-response","175","372790","0.0-5.0-1.0-1.2","3","0","8b49vbflgj8unfd","","424.40000009536743","","Was the sound coming from the left or the right?","0","","","1","INDUCTION-JUDGMENT","left","0","","","","","","","","","","","","","","","","","","","","","","","","","","",""
"html-keyboard-response","176","373800","0.0-5.0-1.0-2.2","3","0","8b49vbflgj8unfd","","null","","<p style=""color:#054d00;""><b>Correct!</b></p>","","null","","","","","","","","","","","","","","","","","","","","","","","","","","","","","","","",""
"html-button-response","177","374934","0.0-5.0-1.0-3.2","3","0","8b49vbflgj8unfd","","617.6000003814697","","<p>Press the button below when you are ready to continue.</p>","0","","","","","","","","","","","","","","","","","","","","","","","","","","","","","","","","",""
"audio-keyboard-response","178","377924","0.0-5.0-1.0-0.3","3","0","8b49vbflgj8unfd","","null","","sounds/sentences/left_rev/14_05_cfSWS.wav","","null","","","","","","","","","","","","","","","","","","","","","","","","","","","","","","","",""
"html-button-response","179","378606","0.0-5.0-1.0-1.3","3","0","8b49vbflgj8unfd","","680.8000001907349","","Was the sound coming from the left or the right?","0","","","1","INDUCTION-JUDGMENT","left","0","","","","","","","","","","","","","","","","","","","","","","","","","","",""
"html-keyboard-response","180","379623","0.0-5.0-1.0-2.3","3","0","8b49vbflgj8unfd","","null","","<p style=""color:#054d00;""><b>Correct!</b></p>","","null","","","","","","","","","","","","","","","","","","","","","","","","","","","","","","","",""
"html-button-response","181","381085","0.0-5.0-1.0-3.3","3","0","8b49vbflgj8unfd","","959.6999998092651","","<p>Press the button below when you are ready to continue.</p>","0","","","","","","","","","","","","","","","","","","","","","","","","","","","","","","","","",""
"audio-keyboard-response","182","383815","0.0-5.0-1.0-0.4","3","0","8b49vbflgj8unfd","","null","","sounds/sentences/right_rev/14_09_cfSWS.wav","","null","","","","","","","","","","","","","","","","","","","","","","","","","","","","","","","",""
"html-button-response","183","384453","0.0-5.0-1.0-1.4","3","0","8b49vbflgj8unfd","","636.5","","Was the sound coming from the left or the right?","1","","","1","INDUCTION-JUDGMENT","right","1","","","","","","","","","","","","","","","","","","","","","","","","","","",""
"html-keyboard-response","184","385457","0.0-5.0-1.0-2.4","3","0","8b49vbflgj8unfd","","null","","<p style=""color:#054d00;""><b>Correct!</b></p>","","null","","","","","","","","","","","","","","","","","","","","","","","","","","","","","","","",""
"html-button-response","185","386583","0.0-5.0-1.0-3.4","3","0","8b49vbflgj8unfd","","609.9000000953674","","<p>Press the button below when you are ready to continue.</p>","0","","","","","","","","","","","","","","","","","","","","","","","","","","","","","","","","",""
"audio-keyboard-response","186","389345","0.0-5.0-1.0-0.5","3","0","8b49vbflgj8unfd","","null","","sounds/sentences/right_rev/14_08_cfSWS.wav","","null","","","","","","","","","","","","","","","","","","","","","","","","","","","","","","","",""
"html-button-response","187","389788","0.0-5.0-1.0-1.5","3","0","8b49vbflgj8unfd","","441.69999980926514","","Was the sound coming from the left or the right?","1","","","1","INDUCTION-JUDGMENT","right","1","","","","","","","","","","","","","","","","","","","","","","","","","","",""
"html-keyboard-response","188","390799","0.0-5.0-1.0-2.5","3","0","8b49vbflgj8unfd","","null","","<p style=""color:#054d00;""><b>Correct!</b></p>","","null","","","","","","","","","","","","","","","","","","","","","","","","","","","","","","","",""
"html-button-response","189","392241","0.0-5.0-1.0-3.5","3","0","8b49vbflgj8unfd","","934.9000000953674","","<p>Press the button below when you are ready to continue.</p>","0","","","","","","","","","","","","","","","","","","","","","","","","","","","","","","","","",""
"audio-keyboard-response","190","395274","0.0-5.0-1.0-0.6","3","0","8b49vbflgj8unfd","","null","","sounds/sentences/right_rev/14_10_cfSWS.wav","","null","","","","","","","","","","","","","","","","","","","","","","","","","","","","","","","",""
"html-button-response","191","396659","0.0-5.0-1.0-1.6","3","0","8b49vbflgj8unfd","","1382.9000000953674","","Was the sound coming from the left or the right?","1","","","1","INDUCTION-JUDGMENT","right","1","","","","","","","","","","","","","","","","","","","","","","","","","","",""
"html-keyboard-response","192","397662","0.0-5.0-1.0-2.6","3","0","8b49vbflgj8unfd","","null","","<p style=""color:#054d00;""><b>Correct!</b></p>","","null","","","","","","","","","","","","","","","","","","","","","","","","","","","","","","","",""
"html-button-response","193","399596","0.0-5.0-1.0-3.6","3","0","8b49vbflgj8unfd","","1431.5","","<p>Press the button below when you are ready to continue.</p>","0","","","","","","","","","","","","","","","","","","","","","","","","","","","","","","","","",""
"audio-keyboard-response","194","402194","0.0-5.0-1.0-0.7","3","0","8b49vbflgj8unfd","","null","","sounds/sentences/left_rev/14_03_cfSWS.wav","","null","","","","","","","","","","","","","","","","","","","","","","","","","","","","","","","",""
"html-button-response","195","402805","0.0-5.0-1.0-1.7","3","0","8b49vbflgj8unfd","","606.7999997138977","","Was the sound coming from the left or the right?","0","","","1","INDUCTION-JUDGMENT","left","0","","","","","","","","","","","","","","","","","","","","","","","","","","",""
"html-keyboard-response","196","403808","0.0-5.0-1.0-2.7","3","0","8b49vbflgj8unfd","","null","","<p style=""color:#054d00;""><b>Correct!</b></p>","","null","","","","","","","","","","","","","","","","","","","","","","","","","","","","","","","",""
"html-button-response","197","404825","0.0-5.0-1.0-3.7","3","0","8b49vbflgj8unfd","","515.0999999046326","","<p>Press the button below when you are ready to continue.</p>","0","","","","","","","","","","","","","","","","","","","","","","","","","","","","","","","","",""
"audio-keyboard-response","198","407654","0.0-5.0-1.0-0.8","3","0","8b49vbflgj8unfd","","null","","sounds/sentences/left_rev/14_02_cfSWS.wav","","null","","","","","","","","","","","","","","","","","","","","","","","","","","","","","","","",""
"html-button-response","199","408146","0.0-5.0-1.0-1.8","3","0","8b49vbflgj8unfd","","489.90000009536743","","Was the sound coming from the left or the right?","0","","","1","INDUCTION-JUDGMENT","left","0","","","","","","","","","","","","","","","","","","","","","","","","","","",""
"html-keyboard-response","200","409154","0.0-5.0-1.0-2.8","3","0","8b49vbflgj8unfd","","null","","<p style=""color:#054d00;""><b>Correct!</b></p>","","null","","","","","","","","","","","","","","","","","","","","","","","","","","","","","","","",""
"html-button-response","201","410129","0.0-5.0-1.0-3.8","3","0","8b49vbflgj8unfd","","461.90000009536743","","<p>Press the button below when you are ready to continue.</p>","0","","","","","","","","","","","","","","","","","","","","","","","","","","","","","","","","",""
"audio-keyboard-response","202","413254","0.0-5.0-1.0-0.9","3","0","8b49vbflgj8unfd","","null","","sounds/sentences/left_rev/14_01_cfSWS.wav","","null","","","","","","","","","","","","","","","","","","","","","","","","","","","","","","","",""
"html-button-response","203","413755","0.0-5.0-1.0-1.9","3","0","8b49vbflgj8unfd","","498.09999990463257","","Was the sound coming from the left or the right?","0","","","1","INDUCTION-JUDGMENT","left","0","","","","","","","","","","","","","","","","","","","","","","","","","","",""
"html-keyboard-response","204","414775","0.0-5.0-1.0-2.9","3","0","8b49vbflgj8unfd","","null","","<p style=""color:#054d00;""><b>Correct!</b></p>","","null","","","","","","","","","","","","","","","","","","","","","","","","","","","","","","","",""
"html-button-response","205","416355","0.0-5.0-1.0-3.9","3","0","8b49vbflgj8unfd","","1066.5","","<p>Press the button below when you are ready to continue.</p>","0","","","","","","","","","","","","","","","","","","","","","","","","","","","","","","","","",""
"html-keyboard-response","206","433842","0.0-6.0-0.0","3","0","8b49vbflgj8unfd","","16983.900000095367","","<p>In this part of the study, you will hear sounds similar to those you just heard.</p><p>Please focus on these sounds, as you may be asked questions about them later.</p><p>Occasionally, the sounds will pause for up to two seconds. When this happens, please press SPACEBAR as quickly as you can.</br>This helps ensure that you are paying attention to the sounds.</p><p>This part of the study will take about 12 minutes to complete, and you will be given the opportunity to take a couple of short breaks every few minutes.</p><p><strong>Press SPACEBAR to begin</strong></p>","","32","","","","","","","","","","","","","","","","","","","","","","","","","","","","","","","",""
"html-keyboard-response","207","434845","0.0-6.0-1.0-0.0","3","0","8b49vbflgj8unfd","","null","","<p style=""font-size: 40px;"">+</p>","","null","","","","","","","","","","","","","","","","","","","","","","","","","","","","","","","",""
"html-keyboard-response","208","619851","0.0-6.0-1.0-1.0","3","0","8b49vbflgj8unfd","","null","","","","null","","","SL-TRAIN","","","0","712.9000000953674","444.59999990463257","sounds/C/TRAIN/SEQ__03.mp3","3","","","","","","","","","","","","","","","","","","","","","",""
"html-button-response","209","624253","0.0-6.0-1.0-2.0","3","0","8b49vbflgj8unfd","","4396.5","","<p>You may take a short break if you wish.</p>","0","","","","","","","","","","","","","","","","","","","","","","","","","","","","","","","","",""
"html-keyboard-response","210","625256","0.0-6.0-1.0-3.0","3","0","8b49vbflgj8unfd","","null","","<p style=""font-size: 40px;"">+</p>","","null","","","","","","","","","","","","","","","","","","","","","","","","","","","","","","","",""
"html-keyboard-response","211","810266","0.0-6.0-1.0-4.0","3","0","8b49vbflgj8unfd","","null","","","","null","","","SL-TRAIN","","","0","569.2999997138977","601.5999999046326","sounds/C/TRAIN/SEQ__05.mp3","7","","","","","","","","","","","","","","","","","","","","","",""
"html-button-response","212","812824","0.0-6.0-1.0-5.0","3","0","8b49vbflgj8unfd","","2555.0999999046326","","<p>You may take a short break if you wish.</p>","0","","","","","","","","","","","","","","","","","","","","","","","","","","","","","","","","",""
"html-keyboard-response","213","813830","0.0-6.0-1.0-6.0","3","0","8b49vbflgj8unfd","","null","","<p style=""font-size: 40px;"">+</p>","","null","","","","","","","","","","","","","","","","","","","","","","","","","","","","","","","",""
"html-keyboard-response","214","998838","0.0-6.0-1.0-7.0","3","0","8b49vbflgj8unfd","","null","","","","null","","","SL-TRAIN","","","0","547.6999998092651","804.3999996185303","sounds/C/TRAIN/SEQ__10.mp3","8","","","","","","","","","","","","","","","","","","","","","",""
"html-button-response","215","1001068","0.0-6.0-1.0-8.0","3","0","8b49vbflgj8unfd","","2227.300000190735","","<p>You may take a short break if you wish.</p>","0","","","","","","","","","","","","","","","","","","","","","","","","","","","","","","","","",""
"html-keyboard-response","216","1002070","0.0-6.0-1.0-9.0","3","0","8b49vbflgj8unfd","","null","","<p style=""font-size: 40px;"">+</p>","","null","","","","","","","","","","","","","","","","","","","","","","","","","","","","","","","",""
"html-keyboard-response","217","1187077","0.0-6.0-1.0-10.0","3","0","8b49vbflgj8unfd","","null","","","","null","","","SL-TRAIN","","","0","888.7999997138977","592.5","sounds/C/TRAIN/SEQ__09.mp3","19","","","","","","","","","","","","","","","","","","","","","",""
"html-button-response","218","1189873","0.0-6.0-1.0-11.0","3","0","8b49vbflgj8unfd","","2793.0999999046326","","<p>You may take a short break if you wish.</p>","0","","","","","","","","","","","","","","","","","","","","","","","","","","","","","","","","",""
"html-button-response","219","1196088","0.0-7.0-0.0","3","0","8b49vbflgj8unfd","","6211.800000190735","","<p>Welcome to the second part of the study. This is a <u>familiarity task</u>.</p><p>You will now hear short sounds and will be asked to rate how familiar they sound to you <b>based on what you heard in the previous part of the study</b>.</p><p>You will rate 12 sounds in total.</p>","0","","","","","","","","","","","","","","","","","","","","","","","","","","","","","","","","",""
"html-keyboard-response","220","1197094","0.0-7.0-1.0-0.0","3","0","8b49vbflgj8unfd","","null","","","","null","","","","","","","","","","","","","","","","","","","","","","","","","","","","","","","",""
"audio-keyboard-response","221","1198095","0.0-7.0-1.0-1.0","3","0","8b49vbflgj8unfd","","null","","sounds/C/FAM/P004.mp3","","null","","","","","","","","","","","","","","","","","","","","","","","","","","","","","","","",""
"html-keyboard-response","222","1202444","0.0-7.0-1.0-2.0","3","0","8b49vbflgj8unfd","","3837.5","","<p>How familiar did this sound to you?</p><p>1&nbsp;&nbsp;&nbsp;&nbsp;&nbsp;&nbsp;&nbsp;&nbsp;&nbsp;&nbsp;&nbsp;&nbsp;&nbsp;&nbsp;&nbsp;&nbsp;&nbsp;&nbsp;&nbsp;2&nbsp;&nbsp;&nbsp;&nbsp;&nbsp;&nbsp;&nbsp;&nbsp;&nbsp;&nbsp;&nbsp;&nbsp;&nbsp;&nbsp;&nbsp;&nbsp;&nbsp;&nbsp;&nbsp;3&nbsp;&nbsp;&nbsp;&nbsp;&nbsp;&nbsp;&nbsp;&nbsp;&nbsp;&nbsp;&nbsp;&nbsp;&nbsp;&nbsp;&nbsp;&nbsp;&nbsp;&nbsp;&nbsp;4</p><p style=""font-size:14px"">Not at all familiar&nbsp;&nbsp;&nbsp;&nbsp;A little familiar&nbsp;&nbsp;&nbsp;Moderately familiar&nbsp;&nbsp;&nbsp;Extremely familiar</p><p>(press the corresponding number on your keyboard)</p>","","52","","","FAM-RESPONSE","","","","","","","","sounds/C/FAM/P004.mp3","partword","","","","","","","","","","","","","","","","","","","",""
"html-keyboard-response","223","1204468","0.0-7.0-1.0-0.1","3","0","8b49vbflgj8unfd","","null","","","","null","","","","","","","","","","","","","","","","","","","","","","","","","","","","","","","",""
"audio-keyboard-response","224","1205415","0.0-7.0-1.0-1.1","3","0","8b49vbflgj8unfd","","null","","sounds/C/FAM/N003.mp3","","null","","","","","","","","","","","","","","","","","","","","","","","","","","","","","","","",""
"html-keyboard-response","225","1208340","0.0-7.0-1.0-2.1","3","0","8b49vbflgj8unfd","","2408.5","","<p>How familiar did this sound to you?</p><p>1&nbsp;&nbsp;&nbsp;&nbsp;&nbsp;&nbsp;&nbsp;&nbsp;&nbsp;&nbsp;&nbsp;&nbsp;&nbsp;&nbsp;&nbsp;&nbsp;&nbsp;&nbsp;&nbsp;2&nbsp;&nbsp;&nbsp;&nbsp;&nbsp;&nbsp;&nbsp;&nbsp;&nbsp;&nbsp;&nbsp;&nbsp;&nbsp;&nbsp;&nbsp;&nbsp;&nbsp;&nbsp;&nbsp;3&nbsp;&nbsp;&nbsp;&nbsp;&nbsp;&nbsp;&nbsp;&nbsp;&nbsp;&nbsp;&nbsp;&nbsp;&nbsp;&nbsp;&nbsp;&nbsp;&nbsp;&nbsp;&nbsp;4</p><p style=""font-size:14px"">Not at all familiar&nbsp;&nbsp;&nbsp;&nbsp;A little familiar&nbsp;&nbsp;&nbsp;Moderately familiar&nbsp;&nbsp;&nbsp;Extremely familiar</p><p>(press the corresponding number on your keyboard)</p>","","51","","","FAM-RESPONSE","","","","","","","","sounds/C/FAM/N003.mp3","nonword","","","","","","","","","","","","","","","","","","","",""
"html-keyboard-response","226","1210350","0.0-7.0-1.0-0.2","3","0","8b49vbflgj8unfd","","null","","","","null","","","","","","","","","","","","","","","","","","","","","","","","","","","","","","","",""
"audio-keyboard-response","227","1211295","0.0-7.0-1.0-1.2","3","0","8b49vbflgj8unfd","","null","","sounds/C/FAM/W004.mp3","","null","","","","","","","","","","","","","","","","","","","","","","","","","","","","","","","",""
"html-keyboard-response","228","1213121","0.0-7.0-1.0-2.2","3","0","8b49vbflgj8unfd","","1317","","<p>How familiar did this sound to you?</p><p>1&nbsp;&nbsp;&nbsp;&nbsp;&nbsp;&nbsp;&nbsp;&nbsp;&nbsp;&nbsp;&nbsp;&nbsp;&nbsp;&nbsp;&nbsp;&nbsp;&nbsp;&nbsp;&nbsp;2&nbsp;&nbsp;&nbsp;&nbsp;&nbsp;&nbsp;&nbsp;&nbsp;&nbsp;&nbsp;&nbsp;&nbsp;&nbsp;&nbsp;&nbsp;&nbsp;&nbsp;&nbsp;&nbsp;3&nbsp;&nbsp;&nbsp;&nbsp;&nbsp;&nbsp;&nbsp;&nbsp;&nbsp;&nbsp;&nbsp;&nbsp;&nbsp;&nbsp;&nbsp;&nbsp;&nbsp;&nbsp;&nbsp;4</p><p style=""font-size:14px"">Not at all familiar&nbsp;&nbsp;&nbsp;&nbsp;A little familiar&nbsp;&nbsp;&nbsp;Moderately familiar&nbsp;&nbsp;&nbsp;Extremely familiar</p><p>(press the corresponding number on your keyboard)</p>","","51","","","FAM-RESPONSE","","","","","","","","sounds/C/FAM/W004.mp3","word","","","","","","","","","","","","","","","","","","","",""
"html-keyboard-response","229","1215133","0.0-7.0-1.0-0.3","3","0","8b49vbflgj8unfd","","null","","","","null","","","","","","","","","","","","","","","","","","","","","","","","","","","","","","","",""
"audio-keyboard-response","230","1216075","0.0-7.0-1.0-1.3","3","0","8b49vbflgj8unfd","","null","","sounds/C/FAM/P002.mp3","","null","","","","","","","","","","","","","","","","","","","","","","","","","","","","","","","",""
"html-keyboard-response","231","1216847","0.0-7.0-1.0-2.3","3","0","8b49vbflgj8unfd","","257.59999990463257","","<p>How familiar did this sound to you?</p><p>1&nbsp;&nbsp;&nbsp;&nbsp;&nbsp;&nbsp;&nbsp;&nbsp;&nbsp;&nbsp;&nbsp;&nbsp;&nbsp;&nbsp;&nbsp;&nbsp;&nbsp;&nbsp;&nbsp;2&nbsp;&nbsp;&nbsp;&nbsp;&nbsp;&nbsp;&nbsp;&nbsp;&nbsp;&nbsp;&nbsp;&nbsp;&nbsp;&nbsp;&nbsp;&nbsp;&nbsp;&nbsp;&nbsp;3&nbsp;&nbsp;&nbsp;&nbsp;&nbsp;&nbsp;&nbsp;&nbsp;&nbsp;&nbsp;&nbsp;&nbsp;&nbsp;&nbsp;&nbsp;&nbsp;&nbsp;&nbsp;&nbsp;4</p><p style=""font-size:14px"">Not at all familiar&nbsp;&nbsp;&nbsp;&nbsp;A little familiar&nbsp;&nbsp;&nbsp;Moderately familiar&nbsp;&nbsp;&nbsp;Extremely familiar</p><p>(press the corresponding number on your keyboard)</p>","","52","","","FAM-RESPONSE","","","","","","","","sounds/C/FAM/P002.mp3","partword","","","","","","","","","","","","","","","","","","","",""
"html-keyboard-response","232","1218863","0.0-7.0-1.0-0.4","3","0","8b49vbflgj8unfd","","null","","","","null","","","","","","","","","","","","","","","","","","","","","","","","","","","","","","","",""
"audio-keyboard-response","233","1219815","0.0-7.0-1.0-1.4","3","0","8b49vbflgj8unfd","","null","","sounds/C/FAM/P003.mp3","","null","","","","","","","","","","","","","","","","","","","","","","","","","","","","","","","",""
"html-keyboard-response","234","1221520","0.0-7.0-1.0-2.4","3","0","8b49vbflgj8unfd","","1191.4000000953674","","<p>How familiar did this sound to you?</p><p>1&nbsp;&nbsp;&nbsp;&nbsp;&nbsp;&nbsp;&nbsp;&nbsp;&nbsp;&nbsp;&nbsp;&nbsp;&nbsp;&nbsp;&nbsp;&nbsp;&nbsp;&nbsp;&nbsp;2&nbsp;&nbsp;&nbsp;&nbsp;&nbsp;&nbsp;&nbsp;&nbsp;&nbsp;&nbsp;&nbsp;&nbsp;&nbsp;&nbsp;&nbsp;&nbsp;&nbsp;&nbsp;&nbsp;3&nbsp;&nbsp;&nbsp;&nbsp;&nbsp;&nbsp;&nbsp;&nbsp;&nbsp;&nbsp;&nbsp;&nbsp;&nbsp;&nbsp;&nbsp;&nbsp;&nbsp;&nbsp;&nbsp;4</p><p style=""font-size:14px"">Not at all familiar&nbsp;&nbsp;&nbsp;&nbsp;A little familiar&nbsp;&nbsp;&nbsp;Moderately familiar&nbsp;&nbsp;&nbsp;Extremely familiar</p><p>(press the corresponding number on your keyboard)</p>","","52","","","FAM-RESPONSE","","","","","","","","sounds/C/FAM/P003.mp3","partword","","","","","","","","","","","","","","","","","","","",""
"html-keyboard-response","235","1223539","0.0-7.0-1.0-0.5","3","0","8b49vbflgj8unfd","","null","","","","null","","","","","","","","","","","","","","","","","","","","","","","","","","","","","","","",""
"audio-keyboard-response","236","1224475","0.0-7.0-1.0-1.5","3","0","8b49vbflgj8unfd","","null","","sounds/C/FAM/W003.mp3","","null","","","","","","","","","","","","","","","","","","","","","","","","","","","","","","","",""
"html-keyboard-response","237","1225774","0.0-7.0-1.0-2.5","3","0","8b49vbflgj8unfd","","790.1999998092651","","<p>How familiar did this sound to you?</p><p>1&nbsp;&nbsp;&nbsp;&nbsp;&nbsp;&nbsp;&nbsp;&nbsp;&nbsp;&nbsp;&nbsp;&nbsp;&nbsp;&nbsp;&nbsp;&nbsp;&nbsp;&nbsp;&nbsp;2&nbsp;&nbsp;&nbsp;&nbsp;&nbsp;&nbsp;&nbsp;&nbsp;&nbsp;&nbsp;&nbsp;&nbsp;&nbsp;&nbsp;&nbsp;&nbsp;&nbsp;&nbsp;&nbsp;3&nbsp;&nbsp;&nbsp;&nbsp;&nbsp;&nbsp;&nbsp;&nbsp;&nbsp;&nbsp;&nbsp;&nbsp;&nbsp;&nbsp;&nbsp;&nbsp;&nbsp;&nbsp;&nbsp;4</p><p style=""font-size:14px"">Not at all familiar&nbsp;&nbsp;&nbsp;&nbsp;A little familiar&nbsp;&nbsp;&nbsp;Moderately familiar&nbsp;&nbsp;&nbsp;Extremely familiar</p><p>(press the corresponding number on your keyboard)</p>","","51","","","FAM-RESPONSE","","","","","","","","sounds/C/FAM/W003.mp3","word","","","","","","","","","","","","","","","","","","","",""
"html-keyboard-response","238","1227795","0.0-7.0-1.0-0.6","3","0","8b49vbflgj8unfd","","null","","","","null","","","","","","","","","","","","","","","","","","","","","","","","","","","","","","","",""
"audio-keyboard-response","239","1228745","0.0-7.0-1.0-1.6","3","0","8b49vbflgj8unfd","","null","","sounds/C/FAM/W001.mp3","","null","","","","","","","","","","","","","","","","","","","","","","","","","","","","","","","",""
"html-keyboard-response","240","1230321","0.0-7.0-1.0-2.6","3","0","8b49vbflgj8unfd","","1059.1999998092651","","<p>How familiar did this sound to you?</p><p>1&nbsp;&nbsp;&nbsp;&nbsp;&nbsp;&nbsp;&nbsp;&nbsp;&nbsp;&nbsp;&nbsp;&nbsp;&nbsp;&nbsp;&nbsp;&nbsp;&nbsp;&nbsp;&nbsp;2&nbsp;&nbsp;&nbsp;&nbsp;&nbsp;&nbsp;&nbsp;&nbsp;&nbsp;&nbsp;&nbsp;&nbsp;&nbsp;&nbsp;&nbsp;&nbsp;&nbsp;&nbsp;&nbsp;3&nbsp;&nbsp;&nbsp;&nbsp;&nbsp;&nbsp;&nbsp;&nbsp;&nbsp;&nbsp;&nbsp;&nbsp;&nbsp;&nbsp;&nbsp;&nbsp;&nbsp;&nbsp;&nbsp;4</p><p style=""font-size:14px"">Not at all familiar&nbsp;&nbsp;&nbsp;&nbsp;A little familiar&nbsp;&nbsp;&nbsp;Moderately familiar&nbsp;&nbsp;&nbsp;Extremely familiar</p><p>(press the corresponding number on your keyboard)</p>","","50","","","FAM-RESPONSE","","","","","","","","sounds/C/FAM/W001.mp3","word","","","","","","","","","","","","","","","","","","","",""
"html-keyboard-response","241","1232352","0.0-7.0-1.0-0.7","3","0","8b49vbflgj8unfd","","null","","","","null","","","","","","","","","","","","","","","","","","","","","","","","","","","","","","","",""
"audio-keyboard-response","242","1233295","0.0-7.0-1.0-1.7","3","0","8b49vbflgj8unfd","","null","","sounds/C/FAM/N004.mp3","","null","","","","","","","","","","","","","","","","","","","","","","","","","","","","","","","",""
"html-keyboard-response","243","1234634","0.0-7.0-1.0-2.7","3","0","8b49vbflgj8unfd","","826.5","","<p>How familiar did this sound to you?</p><p>1&nbsp;&nbsp;&nbsp;&nbsp;&nbsp;&nbsp;&nbsp;&nbsp;&nbsp;&nbsp;&nbsp;&nbsp;&nbsp;&nbsp;&nbsp;&nbsp;&nbsp;&nbsp;&nbsp;2&nbsp;&nbsp;&nbsp;&nbsp;&nbsp;&nbsp;&nbsp;&nbsp;&nbsp;&nbsp;&nbsp;&nbsp;&nbsp;&nbsp;&nbsp;&nbsp;&nbsp;&nbsp;&nbsp;3&nbsp;&nbsp;&nbsp;&nbsp;&nbsp;&nbsp;&nbsp;&nbsp;&nbsp;&nbsp;&nbsp;&nbsp;&nbsp;&nbsp;&nbsp;&nbsp;&nbsp;&nbsp;&nbsp;4</p><p style=""font-size:14px"">Not at all familiar&nbsp;&nbsp;&nbsp;&nbsp;A little familiar&nbsp;&nbsp;&nbsp;Moderately familiar&nbsp;&nbsp;&nbsp;Extremely familiar</p><p>(press the corresponding number on your keyboard)</p>","","51","","","FAM-RESPONSE","","","","","","","","sounds/C/FAM/N004.mp3","nonword","","","","","","","","","","","","","","","","","","","",""
"html-keyboard-response","244","1236651","0.0-7.0-1.0-0.8","3","0","8b49vbflgj8unfd","","null","","","","null","","","","","","","","","","","","","","","","","","","","","","","","","","","","","","","",""
"audio-keyboard-response","245","1237585","0.0-7.0-1.0-1.8","3","0","8b49vbflgj8unfd","","null","","sounds/C/FAM/N001.mp3","","null","","","","","","","","","","","","","","","","","","","","","","","","","","","","","","","",""
"html-keyboard-response","246","1238562","0.0-7.0-1.0-2.8","3","0","8b49vbflgj8unfd","","462.90000009536743","","<p>How familiar did this sound to you?</p><p>1&nbsp;&nbsp;&nbsp;&nbsp;&nbsp;&nbsp;&nbsp;&nbsp;&nbsp;&nbsp;&nbsp;&nbsp;&nbsp;&nbsp;&nbsp;&nbsp;&nbsp;&nbsp;&nbsp;2&nbsp;&nbsp;&nbsp;&nbsp;&nbsp;&nbsp;&nbsp;&nbsp;&nbsp;&nbsp;&nbsp;&nbsp;&nbsp;&nbsp;&nbsp;&nbsp;&nbsp;&nbsp;&nbsp;3&nbsp;&nbsp;&nbsp;&nbsp;&nbsp;&nbsp;&nbsp;&nbsp;&nbsp;&nbsp;&nbsp;&nbsp;&nbsp;&nbsp;&nbsp;&nbsp;&nbsp;&nbsp;&nbsp;4</p><p style=""font-size:14px"">Not at all familiar&nbsp;&nbsp;&nbsp;&nbsp;A little familiar&nbsp;&nbsp;&nbsp;Moderately familiar&nbsp;&nbsp;&nbsp;Extremely familiar</p><p>(press the corresponding number on your keyboard)</p>","","52","","","FAM-RESPONSE","","","","","","","","sounds/C/FAM/N001.mp3","nonword","","","","","","","","","","","","","","","","","","","",""
"html-keyboard-response","247","1240600","0.0-7.0-1.0-0.9","3","0","8b49vbflgj8unfd","","null","","","","null","","","","","","","","","","","","","","","","","","","","","","","","","","","","","","","",""
"audio-keyboard-response","248","1241545","0.0-7.0-1.0-1.9","3","0","8b49vbflgj8unfd","","null","","sounds/C/FAM/P001.mp3","","null","","","","","","","","","","","","","","","","","","","","","","","","","","","","","","","",""
"html-keyboard-response","249","1242698","0.0-7.0-1.0-2.9","3","0","8b49vbflgj8unfd","","641.5999999046326","","<p>How familiar did this sound to you?</p><p>1&nbsp;&nbsp;&nbsp;&nbsp;&nbsp;&nbsp;&nbsp;&nbsp;&nbsp;&nbsp;&nbsp;&nbsp;&nbsp;&nbsp;&nbsp;&nbsp;&nbsp;&nbsp;&nbsp;2&nbsp;&nbsp;&nbsp;&nbsp;&nbsp;&nbsp;&nbsp;&nbsp;&nbsp;&nbsp;&nbsp;&nbsp;&nbsp;&nbsp;&nbsp;&nbsp;&nbsp;&nbsp;&nbsp;3&nbsp;&nbsp;&nbsp;&nbsp;&nbsp;&nbsp;&nbsp;&nbsp;&nbsp;&nbsp;&nbsp;&nbsp;&nbsp;&nbsp;&nbsp;&nbsp;&nbsp;&nbsp;&nbsp;4</p><p style=""font-size:14px"">Not at all familiar&nbsp;&nbsp;&nbsp;&nbsp;A little familiar&nbsp;&nbsp;&nbsp;Moderately familiar&nbsp;&nbsp;&nbsp;Extremely familiar</p><p>(press the corresponding number on your keyboard)</p>","","51","","","FAM-RESPONSE","","","","","","","","sounds/C/FAM/P001.mp3","partword","","","","","","","","","","","","","","","","","","","",""
"html-keyboard-response","250","1244711","0.0-7.0-1.0-0.10","3","0","8b49vbflgj8unfd","","null","","","","null","","","","","","","","","","","","","","","","","","","","","","","","","","","","","","","",""
"audio-keyboard-response","251","1245655","0.0-7.0-1.0-1.10","3","0","8b49vbflgj8unfd","","null","","sounds/C/FAM/W002.mp3","","null","","","","","","","","","","","","","","","","","","","","","","","","","","","","","","","",""
"html-keyboard-response","252","1246454","0.0-7.0-1.0-2.10","3","0","8b49vbflgj8unfd","","285.90000009536743","","<p>How familiar did this sound to you?</p><p>1&nbsp;&nbsp;&nbsp;&nbsp;&nbsp;&nbsp;&nbsp;&nbsp;&nbsp;&nbsp;&nbsp;&nbsp;&nbsp;&nbsp;&nbsp;&nbsp;&nbsp;&nbsp;&nbsp;2&nbsp;&nbsp;&nbsp;&nbsp;&nbsp;&nbsp;&nbsp;&nbsp;&nbsp;&nbsp;&nbsp;&nbsp;&nbsp;&nbsp;&nbsp;&nbsp;&nbsp;&nbsp;&nbsp;3&nbsp;&nbsp;&nbsp;&nbsp;&nbsp;&nbsp;&nbsp;&nbsp;&nbsp;&nbsp;&nbsp;&nbsp;&nbsp;&nbsp;&nbsp;&nbsp;&nbsp;&nbsp;&nbsp;4</p><p style=""font-size:14px"">Not at all familiar&nbsp;&nbsp;&nbsp;&nbsp;A little familiar&nbsp;&nbsp;&nbsp;Moderately familiar&nbsp;&nbsp;&nbsp;Extremely familiar</p><p>(press the corresponding number on your keyboard)</p>","","52","","","FAM-RESPONSE","","","","","","","","sounds/C/FAM/W002.mp3","word","","","","","","","","","","","","","","","","","","","",""
"html-keyboard-response","253","1248471","0.0-7.0-1.0-0.11","3","0","8b49vbflgj8unfd","","null","","","","null","","","","","","","","","","","","","","","","","","","","","","","","","","","","","","","",""
"audio-keyboard-response","254","1249415","0.0-7.0-1.0-1.11","3","0","8b49vbflgj8unfd","","null","","sounds/C/FAM/N002.mp3","","null","","","","","","","","","","","","","","","","","","","","","","","","","","","","","","","",""
"html-keyboard-response","255","1250331","0.0-7.0-1.0-2.11","3","0","8b49vbflgj8unfd","","407.69999980926514","","<p>How familiar did this sound to you?</p><p>1&nbsp;&nbsp;&nbsp;&nbsp;&nbsp;&nbsp;&nbsp;&nbsp;&nbsp;&nbsp;&nbsp;&nbsp;&nbsp;&nbsp;&nbsp;&nbsp;&nbsp;&nbsp;&nbsp;2&nbsp;&nbsp;&nbsp;&nbsp;&nbsp;&nbsp;&nbsp;&nbsp;&nbsp;&nbsp;&nbsp;&nbsp;&nbsp;&nbsp;&nbsp;&nbsp;&nbsp;&nbsp;&nbsp;3&nbsp;&nbsp;&nbsp;&nbsp;&nbsp;&nbsp;&nbsp;&nbsp;&nbsp;&nbsp;&nbsp;&nbsp;&nbsp;&nbsp;&nbsp;&nbsp;&nbsp;&nbsp;&nbsp;4</p><p style=""font-size:14px"">Not at all familiar&nbsp;&nbsp;&nbsp;&nbsp;A little familiar&nbsp;&nbsp;&nbsp;Moderately familiar&nbsp;&nbsp;&nbsp;Extremely familiar</p><p>(press the corresponding number on your keyboard)</p>","","51","","","FAM-RESPONSE","","","","","","","","sounds/C/FAM/N002.mp3","nonword","","","","","","","","","","","","","","","","","","","",""
"html-button-response","256","1260709","0.0-8.0-0.0","3","0","8b49vbflgj8unfd","","9370.900000095367","","<p>You will now listen to longer sound sequences.</p><p>Each sound sequence will last about 16 seconds.</p><p>On each trial, you will be given a <u>TARGET SOUND</u>. Your task is to listen very carefully for this sound.</p><p>Every time you hear the <u>TARGET SOUND</u>, you will press the <b>SPACEBAR</b> as quickly and accurately as you can.</p>","0","","","","","","","","","","","","","","","","","","","","","","","","","","","","","","","","",""
"html-button-response","257","1275167","0.0-8.0-1.0","3","0","8b49vbflgj8unfd","","14194.5","","<p>It is very important that you make your responses as quickly and accurately as possible.</p><p>To help you make your responses, you will be able to listen to the <u>TARGET SOUND</u> at the beginning of each trial.</p><p>There will be 36 total trials.</p><p><b>Note: This is meant to be a difficult task. We simply want you to try your best.</p>","0","","","","","","","","","","","","","","","","","","","","","","","","","","","","","","","","",""
"html-button-response","258","1276870","0.0-8.0-2.0-0.0","3","0","8b49vbflgj8unfd","","1431.4000000953674","","<p>Trial 1 of 36</p>","0","","","","","","","","","","","","","","FU","sounds/syllables/fu_SWS.wav","1500,6900,9600,13200","3","","","","","","","","","","","","","","","",""
"html-keyboard-response","259","1279649","0.0-8.0-2.0-1.0","3","0","8b49vbflgj8unfd","","2776.9000000953674","","","","80","","","","","","","","","","","","","FU","","1500,6900,9600,13200","3","","","","","","","","","","","","","","","",""
"audio-keyboard-response","260","1279944","0.0-8.0-2.0-2.0-0.0","3","0","8b49vbflgj8unfd","","null","","sounds/syllables/fu_SWS.wav","","null","","","","","","","","","","","","","","","","","","","","","","","","","","","","","","","",""
"html-keyboard-response","261","1281940","0.0-8.0-2.0-2.0-1.0","3","0","8b49vbflgj8unfd","","1994","","<p>To replay the <u>TARGET SOUND</u>, press P.</p> When you are ready to begin, press SPACEBAR.","","80","","","","","","","","","","","","","","","","","","","","","","","","","","","","","","","",""
"audio-keyboard-response","262","1282744","0.0-8.0-2.0-2.1-0.1","3","0","8b49vbflgj8unfd","","null","","sounds/syllables/fu_SWS.wav","","null","","","","","","","","","","","","","","","","","","","","","","","","","","","","","","","",""
"html-keyboard-response","263","1284376","0.0-8.0-2.0-2.1-1.1","3","0","8b49vbflgj8unfd","","1630.5","","<p>To replay the <u>TARGET SOUND</u>, press P.</p> When you are ready to begin, press SPACEBAR.","","80","","","","","","","","","","","","","","","","","","","","","","","","","","","","","","","",""
"audio-keyboard-response","264","1285184","0.0-8.0-2.0-2.2-0.2","3","0","8b49vbflgj8unfd","","null","","sounds/syllables/fu_SWS.wav","","null","","","","","","","","","","","","","","","","","","","","","","","","","","","","","","","",""
"html-keyboard-response","265","1286472","0.0-8.0-2.0-2.2-1.2","3","0","8b49vbflgj8unfd","","1285.5999999046326","","<p>To replay the <u>TARGET SOUND</u>, press P.</p> When you are ready to begin, press SPACEBAR.","","80","","","","","","","","","","","","","","","","","","","","","","","","","","","","","","","",""
"audio-keyboard-response","266","1287284","0.0-8.0-2.0-2.3-0.3","3","0","8b49vbflgj8unfd","","null","","sounds/syllables/fu_SWS.wav","","null","","","","","","","","","","","","","","","","","","","","","","","","","","","","","","","",""
"html-keyboard-response","267","1288457","0.0-8.0-2.0-2.3-1.3","3","0","8b49vbflgj8unfd","","1170.8000001907349","","<p>To replay the <u>TARGET SOUND</u>, press P.</p> When you are ready to begin, press SPACEBAR.","","32","","","","","","","","","","","","","","","","","","","","","","","","","","","","","","","",""
"audio-keyboard-response","268","1303415","0.0-8.0-2.0-3.0","3","0","8b49vbflgj8unfd","","4571","","sounds/C/TD/FU_02_TD.mp3","","32","","","TD_SUMMARY","","","","","","","","","","FU","","1500,6900,9600,13200","3","1500","6900","9600","13200","null","1055.5999999046326","367.80000019073486","615.1999998092651","4565.699999809265_7955.599999904633_9967.800000190735_12529.5_13815.199999809265","4","","","","","",""
"html-button-response","269","1305439","0.0-8.0-2.0-0.1","3","0","8b49vbflgj8unfd","","2019.3000001907349","","<p>Trial 2 of 36</p>","0","","","","","","","","","","","","","","SU","sounds/syllables/su_SWS.wav","3600,6300,8100,9900","1","","","","","","","","","","","","","","","",""
"html-keyboard-response","270","1306568","0.0-8.0-2.0-1.1","3","0","8b49vbflgj8unfd","","1125.0999999046326","","","","80","","","","","","","","","","","","","SU","","3600,6300,8100,9900","1","","","","","","","","","","","","","","","",""
"audio-keyboard-response","271","1306864","0.0-8.0-2.0-2.4-0.4","3","0","8b49vbflgj8unfd","","null","","sounds/syllables/su_SWS.wav","","null","","","","","","","","","","","","","","","","","","","","","","","","","","","","","","","",""
"html-keyboard-response","272","1307340","0.0-8.0-2.0-2.4-1.4","3","0","8b49vbflgj8unfd","","473.59999990463257","","<p>To replay the <u>TARGET SOUND</u>, press P.</p> When you are ready to begin, press SPACEBAR.","","80","","","","","","","","","","","","","","","","","","","","","","","","","","","","","","","",""
"audio-keyboard-response","273","1308144","0.0-8.0-2.0-2.5-0.5","3","0","8b49vbflgj8unfd","","null","","sounds/syllables/su_SWS.wav","","null","","","","","","","","","","","","","","","","","","","","","","","","","","","","","","","",""
"html-keyboard-response","274","1309514","0.0-8.0-2.0-2.5-1.5","3","0","8b49vbflgj8unfd","","1367.2000002861023","","<p>To replay the <u>TARGET SOUND</u>, press P.</p> When you are ready to begin, press SPACEBAR.","","32","","","","","","","","","","","","","","","","","","","","","","","","","","","","","","","",""
"audio-keyboard-response","275","1324475","0.0-8.0-2.0-3.1","3","0","8b49vbflgj8unfd","","2229","","sounds/C/TD/SU_10_TD.mp3","","32","","","TD_SUMMARY","","","","","","","","","","SU","","3600,6300,8100,9900","1","3600","6300","8100","9900","355.09999990463257","332.80000019073486","null","595.8000001907349","_____2230.5_3955.0999999046326_6632.800000190735_10495.800000190735","2","","","","","",""
"html-button-response","276","1326256","0.0-8.0-2.0-0.2","3","0","8b49vbflgj8unfd","","1776.1000003814697","","<p>Trial 3 of 36</p>","0","","","","","","","","","","","","","","FE","sounds/syllables/fe_SWS.wav","4800,6600,8400,10200","2","","","","","","","","","","","","","","","",""
"html-keyboard-response","277","1326976","0.0-8.0-2.0-1.2","3","0","8b49vbflgj8unfd","","717.1000003814697","","","","80","","","","","","","","","","","","","FE","","4800,6600,8400,10200","2","","","","","","","","","","","","","","","",""
"audio-keyboard-response","278","1327284","0.0-8.0-2.0-2.6-0.6","3","0","8b49vbflgj8unfd","","null","","sounds/syllables/fe_SWS.wav","","null","","","","","","","","","","","","","","","","","","","","","","","","","","","","","","","",""
"html-keyboard-response","279","1327792","0.0-8.0-2.0-2.6-1.6","3","0","8b49vbflgj8unfd","","507","","<p>To replay the <u>TARGET SOUND</u>, press P.</p> When you are ready to begin, press SPACEBAR.","","80","","","","","","","","","","","","","","","","","","","","","","","","","","","","","","","",""
"audio-keyboard-response","280","1328603","0.0-8.0-2.0-2.7-0.7","3","0","8b49vbflgj8unfd","","null","","sounds/syllables/fe_SWS.wav","","null","","","","","","","","","","","","","","","","","","","","","","","","","","","","","","","",""
"html-keyboard-response","281","1328976","0.0-8.0-2.0-2.7-1.7","3","0","8b49vbflgj8unfd","","371.19999980926514","","<p>To replay the <u>TARGET SOUND</u>, press P.</p> When you are ready to begin, press SPACEBAR.","","80","","","","","","","","","","","","","","","","","","","","","","","","","","","","","","","",""
"audio-keyboard-response","282","1329784","0.0-8.0-2.0-2.8-0.8","3","0","8b49vbflgj8unfd","","null","","sounds/syllables/fe_SWS.wav","","null","","","","","","","","","","","","","","","","","","","","","","","","","","","","","","","",""
"html-keyboard-response","283","1330119","0.0-8.0-2.0-2.8-1.8","3","0","8b49vbflgj8unfd","","332.59999990463257","","<p>To replay the <u>TARGET SOUND</u>, press P.</p> When you are ready to begin, press SPACEBAR.","","32","","","","","","","","","","","","","","","","","","","","","","","","","","","","","","","",""
"audio-keyboard-response","284","1345075","0.0-8.0-2.0-3.2","3","0","8b49vbflgj8unfd","","1309","","sounds/C/TD/FE_10_TD.mp3","","32","","","TD_SUMMARY","","","","","","","","","","FE","","4800,6600,8400,10200","2","4800","6600","8400","10200","null","1153","null","null","_________1314.4000000953674_4772.400000095367_7753_10345.699999809265_12146.900000095367","3","","","","","",""
"html-button-response","285","1346981","0.0-8.0-2.0-0.3","3","0","8b49vbflgj8unfd","","1902","","<p>Trial 4 of 36</p>","0","","","","","","","","","","","","","","SU","sounds/syllables/su_SWS.wav","2700,4500,9000,11700","1","","","","","","","","","","","","","","","",""
"html-keyboard-response","286","1348798","0.0-8.0-2.0-1.3","3","0","8b49vbflgj8unfd","","1813.0999999046326","","","","80","","","","","","","","","","","","","SU","","2700,4500,9000,11700","1","","","","","","","","","","","","","","","",""
"audio-keyboard-response","287","1349094","0.0-8.0-2.0-2.9-0.9","3","0","8b49vbflgj8unfd","","null","","sounds/syllables/su_SWS.wav","","null","","","","","","","","","","","","","","","","","","","","","","","","","","","","","","","",""
"html-keyboard-response","288","1349597","0.0-8.0-2.0-2.9-1.9","3","0","8b49vbflgj8unfd","","500.19999980926514","","<p>To replay the <u>TARGET SOUND</u>, press P.</p> When you are ready to begin, press SPACEBAR.","","80","","","","","","","","","","","","","","","","","","","","","","","","","","","","","","","",""
"audio-keyboard-response","289","1350414","0.0-8.0-2.0-2.10-0.10","3","0","8b49vbflgj8unfd","","null","","sounds/syllables/su_SWS.wav","","null","","","","","","","","","","","","","","","","","","","","","","","","","","","","","","","",""
"html-keyboard-response","290","1350749","0.0-8.0-2.0-2.10-1.10","3","0","8b49vbflgj8unfd","","332.59999990463257","","<p>To replay the <u>TARGET SOUND</u>, press P.</p> When you are ready to begin, press SPACEBAR.","","32","","","","","","","","","","","","","","","","","","","","","","","","","","","","","","","",""
"audio-keyboard-response","291","1365705","0.0-8.0-2.0-3.3","3","0","8b49vbflgj8unfd","","1320","","sounds/C/TD/SU_08_TD.mp3","","32","","","TD_SUMMARY","","","","","","","","","","SU","","2700,4500,9000,11700","1","2700","4500","9000","11700","569.6999998092651","null","299.90000009536743","744.6999998092651","______________1313.7999997138977_3269.699999809265_9299.900000095367_12444.699999809265","2","","","","","",""
"html-button-response","292","1367275","0.0-8.0-2.0-0.4","3","0","8b49vbflgj8unfd","","1566.0999999046326","","<p>Trial 5 of 36</p>","0","","","","","","","","","","","","","","PU","sounds/syllables/pu_SWS.wav","1500,5100,9600,13200","3","","","","","","","","","","","","","","","",""
"html-keyboard-response","293","1368299","0.0-8.0-2.0-1.4","3","0","8b49vbflgj8unfd","","1019.3000001907349","","","","80","","","","","","","","","","","","","PU","","1500,5100,9600,13200","3","","","","","","","","","","","","","","","",""
"audio-keyboard-response","294","1368604","0.0-8.0-2.0-2.11-0.11","3","0","8b49vbflgj8unfd","","null","","sounds/syllables/pu_SWS.wav","","null","","","","","","","","","","","","","","","","","","","","","","","","","","","","","","","",""
"html-keyboard-response","295","1369001","0.0-8.0-2.0-2.11-1.11","3","0","8b49vbflgj8unfd","","394.2999997138977","","<p>To replay the <u>TARGET SOUND</u>, press P.</p> When you are ready to begin, press SPACEBAR.","","80","","","","","","","","","","","","","","","","","","","","","","","","","","","","","","","",""
"audio-keyboard-response","296","1369814","0.0-8.0-2.0-2.12-0.12","3","0","8b49vbflgj8unfd","","null","","sounds/syllables/pu_SWS.wav","","null","","","","","","","","","","","","","","","","","","","","","","","","","","","","","","","",""
"html-keyboard-response","297","1370185","0.0-8.0-2.0-2.12-1.12","3","0","8b49vbflgj8unfd","","367.30000019073486","","<p>To replay the <u>TARGET SOUND</u>, press P.</p> When you are ready to begin, press SPACEBAR.","","32","","","","","","","","","","","","","","","","","","","","","","","","","","","","","","","",""
"audio-keyboard-response","298","1385135","0.0-8.0-2.0-3.4","3","0","8b49vbflgj8unfd","","2541","","sounds/C/TD/PU_07_TD.mp3","","32","","","TD_SUMMARY","","","","","","","","","","PU","","1500,5100,9600,13200","3","1500","5100","9600","13200","1033","null","962.6999998092651","635.8999996185303","__________________2533_4808.099999904633_7760.39999961853_10562.699999809265_13835.89999961853","2","","","","","",""
"html-button-response","299","1386974","0.0-8.0-2.0-0.5","3","0","8b49vbflgj8unfd","","1835.9000000953674","","<p>Trial 6 of 36</p>","0","","","","","","","","","","","","","","TI","sounds/syllables/ti_SWS.wav","2400,4200,6900,10500","3","","","","","","","","","","","","","","","",""
"html-keyboard-response","300","1387530","0.0-8.0-2.0-1.5","3","0","8b49vbflgj8unfd","","553.2000002861023","","","","80","","","","","","","","","","","","","TI","","2400,4200,6900,10500","3","","","","","","","","","","","","","","","",""
"audio-keyboard-response","301","1387824","0.0-8.0-2.0-2.13-0.13","3","0","8b49vbflgj8unfd","","null","","sounds/syllables/ti_SWS.wav","","null","","","","","","","","","","","","","","","","","","","","","","","","","","","","","","","",""
"html-keyboard-response","302","1388157","0.0-8.0-2.0-2.13-1.13","3","0","8b49vbflgj8unfd","","332.09999990463257","","<p>To replay the <u>TARGET SOUND</u>, press P.</p> When you are ready to begin, press SPACEBAR.","","80","","","","","","","","","","","","","","","","","","","","","","","","","","","","","","","",""
"audio-keyboard-response","303","1388974","0.0-8.0-2.0-2.14-0.14","3","0","8b49vbflgj8unfd","","null","","sounds/syllables/ti_SWS.wav","","null","","","","","","","","","","","","","","","","","","","","","","","","","","","","","","","",""
"html-keyboard-response","304","1389232","0.0-8.0-2.0-2.14-1.14","3","0","8b49vbflgj8unfd","","255.09999990463257","","<p>To replay the <u>TARGET SOUND</u>, press P.</p> When you are ready to begin, press SPACEBAR.","","32","","","","","","","","","","","","","","","","","","","","","","","","","","","","","","","",""
"audio-keyboard-response","305","1404205","0.0-8.0-2.0-3.5","3","0","8b49vbflgj8unfd","","541","","sounds/C/TD/TI_04_TD.mp3","","32","","","TD_SUMMARY","","","","","","","","","","TI","","2400,4200,6900,10500","3","2400","4200","6900","10500","437.8999996185303","463","366.5","433.19999980926514","_______________________550.6999998092651_2837.8999996185303_4663_7266.5_9394.39999961853_10933.199999809265_12923.799999713898","2","","","","","",""
"html-button-response","306","1405412","0.0-8.0-2.0-0.6","3","0","8b49vbflgj8unfd","","1202.9000000953674","","<p>Trial 7 of 36</p>","0","","","","","","","","","","","","","","RU","sounds/syllables/ru_SWS.wav","1200,5700,7500,12000","2","","","","","","","","","","","","","","","",""
"html-keyboard-response","307","1406146","0.0-8.0-2.0-1.6","3","0","8b49vbflgj8unfd","","731.6000003814697","","","","80","","","","","","","","","","","","","RU","","1200,5700,7500,12000","2","","","","","","","","","","","","","","","",""
"audio-keyboard-response","308","1406454","0.0-8.0-2.0-2.15-0.15","3","0","8b49vbflgj8unfd","","null","","sounds/syllables/ru_SWS.wav","","null","","","","","","","","","","","","","","","","","","","","","","","","","","","","","","","",""
"html-keyboard-response","309","1406806","0.0-8.0-2.0-2.15-1.15","3","0","8b49vbflgj8unfd","","348.40000009536743","","<p>To replay the <u>TARGET SOUND</u>, press P.</p> When you are ready to begin, press SPACEBAR.","","80","","","","","","","","","","","","","","","","","","","","","","","","","","","","","","","",""
"audio-keyboard-response","310","1407614","0.0-8.0-2.0-2.16-0.16","3","0","8b49vbflgj8unfd","","null","","sounds/syllables/ru_SWS.wav","","null","","","","","","","","","","","","","","","","","","","","","","","","","","","","","","","",""
"html-keyboard-response","311","1407799","0.0-8.0-2.0-2.16-1.16","3","0","8b49vbflgj8unfd","","183.30000019073486","","<p>To replay the <u>TARGET SOUND</u>, press P.</p> When you are ready to begin, press SPACEBAR.","","32","","","","","","","","","","","","","","","","","","","","","","","","","","","","","","","",""
"audio-keyboard-response","312","1422764","0.0-8.0-2.0-3.6","3","0","8b49vbflgj8unfd","","1491","","sounds/C/TD/RU_01_TD.mp3","","32","","","TD_SUMMARY","","","","","","","","","","RU","","1200,5700,7500,12000","2","1200","5700","7500","12000","297.19999980926514","234.89999961853027","937.3999996185303","806.5999999046326","______________________________1497.1999998092651_5934.89999961853_8437.39999961853_10298.89999961853_12806.599999904633","2","","","","","",""
"html-button-response","313","1424408","0.0-8.0-2.0-0.7","3","0","8b49vbflgj8unfd","","1640","","<p>Trial 8 of 36</p>","0","","","","","","","","","","","","","","GE","sounds/syllables/ge_SWS.wav","1500,3300,6900,13200","3","","","","","","","","","","","","","","","",""
"html-keyboard-response","314","1424961","0.0-8.0-2.0-1.7","3","0","8b49vbflgj8unfd","","551.5999999046326","","","","80","","","","","","","","","","","","","GE","","1500,3300,6900,13200","3","","","","","","","","","","","","","","","",""
"audio-keyboard-response","315","1425254","0.0-8.0-2.0-2.17-0.17","3","0","8b49vbflgj8unfd","","null","","sounds/syllables/ge_SWS.wav","","null","","","","","","","","","","","","","","","","","","","","","","","","","","","","","","","",""
"html-keyboard-response","316","1425587","0.0-8.0-2.0-2.17-1.17","3","0","8b49vbflgj8unfd","","331.30000019073486","","<p>To replay the <u>TARGET SOUND</u>, press P.</p> When you are ready to begin, press SPACEBAR.","","80","","","","","","","","","","","","","","","","","","","","","","","","","","","","","","","",""
"audio-keyboard-response","317","1426404","0.0-8.0-2.0-2.18-0.18","3","0","8b49vbflgj8unfd","","null","","sounds/syllables/ge_SWS.wav","","null","","","","","","","","","","","","","","","","","","","","","","","","","","","","","","","",""
"html-keyboard-response","318","1426676","0.0-8.0-2.0-2.18-1.18","3","0","8b49vbflgj8unfd","","269.59999990463257","","<p>To replay the <u>TARGET SOUND</u>, press P.</p> When you are ready to begin, press SPACEBAR.","","32","","","","","","","","","","","","","","","","","","","","","","","","","","","","","","","",""
"audio-keyboard-response","319","1441624","0.0-8.0-2.0-3.7","3","0","8b49vbflgj8unfd","","1379","","sounds/C/TD/GE_05_TD.mp3","","32","","","TD_SUMMARY","","","","","","","","","","GE","","1500,3300,6900,13200","3","1500","3300","6900","13200","null","null","null","null","___________________________________1377.5999999046326_3117.4000000953674_4757.599999904633_6876.900000095367_13306.5","2","","","","","",""
"html-button-response","320","1442844","0.0-8.0-2.0-0.8","3","0","8b49vbflgj8unfd","","1211.6999998092651","","<p>Trial 9 of 36</p>","0","","","","","","","","","","","","","","KO","sounds/syllables/ko_SWS.wav","1800,5400,9900,11700","1","","","","","","","","","","","","","","","",""
"html-keyboard-response","321","1443453","0.0-8.0-2.0-1.8","3","0","8b49vbflgj8unfd","","606.4000000953674","","","","80","","","","","","","","","","","","","KO","","1800,5400,9900,11700","1","","","","","","","","","","","","","","","",""
"audio-keyboard-response","322","1443763","0.0-8.0-2.0-2.19-0.19","3","0","8b49vbflgj8unfd","","null","","sounds/syllables/ko_SWS.wav","","null","","","","","","","","","","","","","","","","","","","","","","","","","","","","","","","",""
"html-keyboard-response","323","1444254","0.0-8.0-2.0-2.19-1.19","3","0","8b49vbflgj8unfd","","487.19999980926514","","<p>To replay the <u>TARGET SOUND</u>, press P.</p> When you are ready to begin, press SPACEBAR.","","80","","","","","","","","","","","","","","","","","","","","","","","","","","","","","","","",""
"audio-keyboard-response","324","1445054","0.0-8.0-2.0-2.20-0.20","3","0","8b49vbflgj8unfd","","null","","sounds/syllables/ko_SWS.wav","","null","","","","","","","","","","","","","","","","","","","","","","","","","","","","","","","",""
"html-keyboard-response","325","1445374","0.0-8.0-2.0-2.20-1.20","3","0","8b49vbflgj8unfd","","316.5","","<p>To replay the <u>TARGET SOUND</u>, press P.</p> When you are ready to begin, press SPACEBAR.","","32","","","","","","","","","","","","","","","","","","","","","","","","","","","","","","","",""
"audio-keyboard-response","326","1460335","0.0-8.0-2.0-3.8","3","0","8b49vbflgj8unfd","","1891","","sounds/C/TD/KO_03_TD.mp3","","32","","","TD_SUMMARY","","","","","","","","","","KO","","1800,5400,9900,11700","1","1800","5400","9900","11700","null","null","null","null","________________________________________1895_4070.699999809265_7308.300000190735_8647.5_10090.900000095367_11396.599999904633_13531.099999904633","2","","","","","",""
"html-button-response","327","1461759","0.0-8.0-2.0-0.9","3","0","8b49vbflgj8unfd","","1420.1999998092651","","<p>Trial 10 of 36</p>","0","","","","","","","","","","","","","","RE","sounds/syllables/re_SWS.wav","2100,4800,10200,12900","2","","","","","","","","","","","","","","","",""
"html-keyboard-response","328","1462418","0.0-8.0-2.0-1.9","3","0","8b49vbflgj8unfd","","653.2000002861023","","","","80","","","","","","","","","","","","","RE","","2100,4800,10200,12900","2","","","","","","","","","","","","","","","",""
"audio-keyboard-response","329","1462723","0.0-8.0-2.0-2.21-0.21","3","0","8b49vbflgj8unfd","","null","","sounds/syllables/re_SWS.wav","","null","","","","","","","","","","","","","","","","","","","","","","","","","","","","","","","",""
"html-keyboard-response","330","1463123","0.0-8.0-2.0-2.21-1.21","3","0","8b49vbflgj8unfd","","395.90000009536743","","<p>To replay the <u>TARGET SOUND</u>, press P.</p> When you are ready to begin, press SPACEBAR.","","80","","","","","","","","","","","","","","","","","","","","","","","","","","","","","","","",""
"audio-keyboard-response","331","1463933","0.0-8.0-2.0-2.22-0.22","3","0","8b49vbflgj8unfd","","null","","sounds/syllables/re_SWS.wav","","null","","","","","","","","","","","","","","","","","","","","","","","","","","","","","","","",""
"html-keyboard-response","332","1464328","0.0-8.0-2.0-2.22-1.22","3","0","8b49vbflgj8unfd","","392.09999990463257","","<p>To replay the <u>TARGET SOUND</u>, press P.</p> When you are ready to begin, press SPACEBAR.","","32","","","","","","","","","","","","","","","","","","","","","","","","","","","","","","","",""
"audio-keyboard-response","333","1479285","0.0-8.0-2.0-3.9","3","0","8b49vbflgj8unfd","","2221","","sounds/C/TD/RE_05_TD.mp3","","32","","","TD_SUMMARY","","","","","","","","","","RE","","2100,4800,10200,12900","2","2100","4800","10200","12900","null","null","null","null","_______________________________________________2227.4000000953674_4948_10007.199999809265_12605.400000095367","2","","","","","",""
"html-button-response","334","1480584","0.0-8.0-2.0-0.10","3","0","8b49vbflgj8unfd","","1291.5999999046326","","<p>Trial 11 of 36</p>","0","","","","","","","","","","","","","","NI","sounds/syllables/ni_SWS.wav","900,7200,9000,11700","1","","","","","","","","","","","","","","","",""
"html-keyboard-response","335","1481307","0.0-8.0-2.0-1.10","3","0","8b49vbflgj8unfd","","719.3000001907349","","","","80","","","","","","","","","","","","","NI","","900,7200,9000,11700","1","","","","","","","","","","","","","","","",""
"audio-keyboard-response","336","1481614","0.0-8.0-2.0-2.23-0.23","3","0","8b49vbflgj8unfd","","null","","sounds/syllables/ni_SWS.wav","","null","","","","","","","","","","","","","","","","","","","","","","","","","","","","","","","",""
"html-keyboard-response","337","1482110","0.0-8.0-2.0-2.23-1.23","3","0","8b49vbflgj8unfd","","493.69999980926514","","<p>To replay the <u>TARGET SOUND</u>, press P.</p> When you are ready to begin, press SPACEBAR.","","80","","","","","","","","","","","","","","","","","","","","","","","","","","","","","","","",""
"audio-keyboard-response","338","1482934","0.0-8.0-2.0-2.24-0.24","3","0","8b49vbflgj8unfd","","null","","sounds/syllables/ni_SWS.wav","","null","","","","","","","","","","","","","","","","","","","","","","","","","","","","","","","",""
