"trial_type","trial_index","time_elapsed","internal_node_id","counterbalance","lang_instruct","ParticipantID","view_history","rt","url","stimulus","button_pressed","key_press","correctRESP","correct","designation","location","correctanswer","timeouts","pause_rt01","pause_rt02","train_file","numKeyPress","sound","fam_type","SYLLABLE","EXEMPLAR","TD_LOCS","TD_TYPE","TDLOC_01","TDLOC_02","TDLOC_03","TDLOC_04","TD_RT_01","TD_RT_02","TD_RT_03","TD_RT_04","TD_SUBJ_RTs","number_of_plays","responses","slider_start","response","question_order","syllable","syllable_type"
"pavlovia","0","2","0.0-0.0","1","0","g0e7bz8g19b8pdd","","","","","","","","","","","","","","","","","","","","","","","","","","","","","","","","","","","","","",""
"instructions","1","8222","0.0-1.0","1","0","g0e7bz8g19b8pdd","[{""page_index"":0,""viewing_time"":1798.8999999761581},{""page_index"":1,""viewing_time"":6414.899999976158}]","8219.599999904633","","","","","","","","","","","","","","","","","","","","","","","","","","","","","","","","","","","",""
"external-html","2","11178","0.0-2.0","1","0","g0e7bz8g19b8pdd","","2947.399999976158","consent/consent.html","","","","","","","","","","","","","","","","","","","","","","","","","","","","","","","","","","",""
"html-button-response","3","12168","0.0-3.0-0.0-0.0","1","0","g0e7bz8g19b8pdd","","986.3999999761581","","<p>Welcome to the study. You will first complete a short volume calibration and headphone check.</p><p>Please make sure you are in a quiet listening environment, that you are wearing headphones, and that your computer's volume is turned on.<p></p>","0","","","","","","","","","","","","","","","","","","","","","","","","","","","","","","","","",""
"html-button-response","4","13012","0.0-3.0-0.0-1.0","1","0","g0e7bz8g19b8pdd","","588.3999999761581","","<p>The volume calibration will be first.</p><p>You will hear a thirty-second noise. Please adjust your computer's volume so that this noise is being presented at a comfortable level.<p></p>","0","","","","","","","","","","","","","","","","","","","","","","","","","","","","","","","","",""
"audio-button-response","5","14022","0.0-3.0-0.0-2.0","1","0","g0e7bz8g19b8pdd","","709","","audCalib/volumetest.mp3","0","","","","","","","","","","","","","","","","","","","","","","","","","","","","","","","","",""
"html-button-response","6","29574","0.0-3.0-1.0-0.0","1","0","g0e7bz8g19b8pdd","","15551.100000023842","","<p>You will now complete a short headphone check.</p><p>On each trial, you will hear three tones. One of these tones will be quieter than the others. Your task is to identify whether the quiet tone occured first, second, or third.</p><p>There are six trials in total.<p></p>","0","","","","","","","","","","","","","","","","","","","","","","","","","","","","","","","","",""
"html-keyboard-response","7","30334","0.0-3.0-1.0-1.0-0.0","1","0","g0e7bz8g19b8pdd","","null","","<div style=""font-size:60px;"">+</div>","","null","","","","","","","","","","","","","","","","","","","","","","","","","","","","","","","",""
"audio-button-response","8","34261","0.0-3.0-1.0-1.0-1.0","1","0","g0e7bz8g19b8pdd","","3920","","audCalib/t3_1.mp3","2","","2","1","headphone-test","","","","","","","","","","","","","","","","","","","","","","","","","","","","",""
"html-keyboard-response","9","35021","0.0-3.0-1.0-1.0-0.1","1","0","g0e7bz8g19b8pdd","","null","","<div style=""font-size:60px;"">+</div>","","null","","","","","","","","","","","","","","","","","","","","","","","","","","","","","","","",""
"audio-button-response","10","49444","0.0-3.0-1.0-1.0-1.1","1","0","g0e7bz8g19b8pdd","","14421","","audCalib/t3_2.mp3","1","","2","0","headphone-test","","","","","","","","","","","","","","","","","","","","","","","","","","","","",""
"html-keyboard-response","11","50202","0.0-3.0-1.0-1.0-0.2","1","0","g0e7bz8g19b8pdd","","null","","<div style=""font-size:60px;"">+</div>","","null","","","","","","","","","","","","","","","","","","","","","","","","","","","","","","","",""
"audio-button-response","12","52354","0.0-3.0-1.0-1.0-1.2","1","0","g0e7bz8g19b8pdd","","2149","","audCalib/t1_2.mp3","2","","0","0","headphone-test","","","","","","","","","","","","","","","","","","","","","","","","","","","","",""
"html-keyboard-response","13","53117","0.0-3.0-1.0-1.0-0.3","1","0","g0e7bz8g19b8pdd","","null","","<div style=""font-size:60px;"">+</div>","","null","","","","","","","","","","","","","","","","","","","","","","","","","","","","","","","",""
"audio-button-response","14","57045","0.0-3.0-1.0-1.0-1.3","1","0","g0e7bz8g19b8pdd","","3925","","audCalib/t1_1.mp3","2","","0","0","headphone-test","","","","","","","","","","","","","","","","","","","","","","","","","","","","",""
"html-keyboard-response","15","57805","0.0-3.0-1.0-1.0-0.4","1","0","g0e7bz8g19b8pdd","","null","","<div style=""font-size:60px;"">+</div>","","null","","","","","","","","","","","","","","","","","","","","","","","","","","","","","","","",""
"audio-button-response","16","59045","0.0-3.0-1.0-1.0-1.4","1","0","g0e7bz8g19b8pdd","","1237","","audCalib/t2_2.mp3","1","","1","1","headphone-test","","","","","","","","","","","","","","","","","","","","","","","","","","","","",""
"html-keyboard-response","17","59804","0.0-3.0-1.0-1.0-0.5","1","0","g0e7bz8g19b8pdd","","null","","<div style=""font-size:60px;"">+</div>","","null","","","","","","","","","","","","","","","","","","","","","","","","","","","","","","","",""
"audio-button-response","18","61053","0.0-3.0-1.0-1.0-1.5","1","0","g0e7bz8g19b8pdd","","1248","","audCalib/t2_1.mp3","0","","1","0","headphone-test","","","","","","","","","","","","","","","","","","","","","","","","","","","","",""
"html-button-response","19","62029","0.0-3.0-2.0","1","0","g0e7bz8g19b8pdd","","717.8999999761581","","<p>The volume calibration and headphone check are now complete.</p>","0","","","","","","","","","","","","","","","","","","","","","","","","","","","","","","","","",""
"instructions","20","65395","0.0-4.0-0.0","1","0","g0e7bz8g19b8pdd","[{""page_index"":0,""viewing_time"":957.9000000953674},{""page_index"":1,""viewing_time"":1365.1999999284744},{""page_index"":2,""viewing_time"":1040.8000000715256}]","3364.9000000953674","","","","","","","","","","","","","","","","","","","","","","","","","","","","","","","","","","","",""
"audio-keyboard-response","21","65697","0.0-4.0-1.0-0.0","1","0","g0e7bz8g19b8pdd","","null","","sounds/induction/right_rev/ge_SWS.wav","","null","","","","","","","","","","","","","","","","","","","","","","","","","","","","","","","",""
"html-button-response","22","67354","0.0-4.0-1.0-1.0","1","0","g0e7bz8g19b8pdd","","1653.8999999761581","","Was the sound coming from the left or the right?","0","","","0","INDUCTION-JUDGMENT","right","1","","","","","","","","","","","","","","","","","","","","","","","","","","",""
"html-keyboard-response","23","68361","0.0-4.0-1.0-2.0","1","0","g0e7bz8g19b8pdd","","null","","<p style=""color:#690000;""><b>Incorrect!</b></p>","","null","","","","","","","","","","","","","","","","","","","","","","","","","","","","","","","",""
"audio-keyboard-response","24","69169","0.0-4.0-1.0-0.1","1","0","g0e7bz8g19b8pdd","","null","","sounds/induction/left_rev/ko_SWS.wav","","null","","","","","","","","","","","","","","","","","","","","","","","","","","","","","","","",""
"html-button-response","25","76391","0.0-4.0-1.0-1.1","1","0","g0e7bz8g19b8pdd","","7220.700000047684","","Was the sound coming from the left or the right?","1","","","0","INDUCTION-JUDGMENT","left","0","","","","","","","","","","","","","","","","","","","","","","","","","","",""
"html-keyboard-response","26","77394","0.0-4.0-1.0-2.1","1","0","g0e7bz8g19b8pdd","","null","","<p style=""color:#690000;""><b>Incorrect!</b></p>","","null","","","","","","","","","","","","","","","","","","","","","","","","","","","","","","","",""
"audio-keyboard-response","27","78198","0.0-4.0-1.0-0.2","1","0","g0e7bz8g19b8pdd","","null","","sounds/induction/left_rev/su_SWS.wav","","null","","","","","","","","","","","","","","","","","","","","","","","","","","","","","","","",""
"html-button-response","28","79007","0.0-4.0-1.0-1.2","1","0","g0e7bz8g19b8pdd","","807.2000000476837","","Was the sound coming from the left or the right?","0","","","1","INDUCTION-JUDGMENT","left","0","","","","","","","","","","","","","","","","","","","","","","","","","","",""
"html-keyboard-response","29","80010","0.0-4.0-1.0-2.2","1","0","g0e7bz8g19b8pdd","","null","","<p style=""color:#054d00;""><b>Correct!</b></p>","","null","","","","","","","","","","","","","","","","","","","","","","","","","","","","","","","",""
"audio-keyboard-response","30","80817","0.0-4.0-1.0-0.3","1","0","g0e7bz8g19b8pdd","","null","","sounds/induction/right_rev/fu_SWS.wav","","null","","","","","","","","","","","","","","","","","","","","","","","","","","","","","","","",""
"html-button-response","31","81212","0.0-4.0-1.0-1.3","1","0","g0e7bz8g19b8pdd","","391.6999999284744","","Was the sound coming from the left or the right?","1","","","1","INDUCTION-JUDGMENT","right","1","","","","","","","","","","","","","","","","","","","","","","","","","","",""
"html-keyboard-response","32","82215","0.0-4.0-1.0-2.3","1","0","g0e7bz8g19b8pdd","","null","","<p style=""color:#054d00;""><b>Correct!</b></p>","","null","","","","","","","","","","","","","","","","","","","","","","","","","","","","","","","",""
"audio-keyboard-response","33","83019","0.0-4.0-1.0-0.4","1","0","g0e7bz8g19b8pdd","","null","","sounds/induction/right_rev/pu_SWS.wav","","null","","","","","","","","","","","","","","","","","","","","","","","","","","","","","","","",""
"html-button-response","34","84146","0.0-4.0-1.0-1.4","1","0","g0e7bz8g19b8pdd","","1123.7999999523163","","Was the sound coming from the left or the right?","1","","","1","INDUCTION-JUDGMENT","right","1","","","","","","","","","","","","","","","","","","","","","","","","","","",""
"html-keyboard-response","35","85150","0.0-4.0-1.0-2.4","1","0","g0e7bz8g19b8pdd","","null","","<p style=""color:#054d00;""><b>Correct!</b></p>","","null","","","","","","","","","","","","","","","","","","","","","","","","","","","","","","","",""
"audio-keyboard-response","36","85958","0.0-4.0-1.0-0.5","1","0","g0e7bz8g19b8pdd","","null","","sounds/induction/left_rev/ge_SWS.wav","","null","","","","","","","","","","","","","","","","","","","","","","","","","","","","","","","",""
"html-button-response","37","86756","0.0-4.0-1.0-1.5","1","0","g0e7bz8g19b8pdd","","795.6000000238419","","Was the sound coming from the left or the right?","1","","","0","INDUCTION-JUDGMENT","left","0","","","","","","","","","","","","","","","","","","","","","","","","","","",""
"html-keyboard-response","38","87759","0.0-4.0-1.0-2.5","1","0","g0e7bz8g19b8pdd","","null","","<p style=""color:#690000;""><b>Incorrect!</b></p>","","null","","","","","","","","","","","","","","","","","","","","","","","","","","","","","","","",""
"audio-keyboard-response","39","88566","0.0-4.0-1.0-0.6","1","0","g0e7bz8g19b8pdd","","null","","sounds/induction/left_rev/fe_SWS.wav","","null","","","","","","","","","","","","","","","","","","","","","","","","","","","","","","","",""
"html-button-response","40","89626","0.0-4.0-1.0-1.6","1","0","g0e7bz8g19b8pdd","","1057.8999999761581","","Was the sound coming from the left or the right?","1","","","0","INDUCTION-JUDGMENT","left","0","","","","","","","","","","","","","","","","","","","","","","","","","","",""
"html-keyboard-response","41","90631","0.0-4.0-1.0-2.6","1","0","g0e7bz8g19b8pdd","","null","","<p style=""color:#690000;""><b>Incorrect!</b></p>","","null","","","","","","","","","","","","","","","","","","","","","","","","","","","","","","","",""
"audio-keyboard-response","42","91435","0.0-4.0-1.0-0.7","1","0","g0e7bz8g19b8pdd","","null","","sounds/induction/right_rev/su_SWS.wav","","null","","","","","","","","","","","","","","","","","","","","","","","","","","","","","","","",""
"html-button-response","43","93325","0.0-4.0-1.0-1.7","1","0","g0e7bz8g19b8pdd","","1887.7999999523163","","Was the sound coming from the left or the right?","0","","","0","INDUCTION-JUDGMENT","right","1","","","","","","","","","","","","","","","","","","","","","","","","","","",""
"html-keyboard-response","44","94331","0.0-4.0-1.0-2.7","1","0","g0e7bz8g19b8pdd","","null","","<p style=""color:#690000;""><b>Incorrect!</b></p>","","null","","","","","","","","","","","","","","","","","","","","","","","","","","","","","","","",""
"audio-keyboard-response","45","95137","0.0-4.0-1.0-0.8","1","0","g0e7bz8g19b8pdd","","null","","sounds/induction/right_rev/ti_SWS.wav","","null","","","","","","","","","","","","","","","","","","","","","","","","","","","","","","","",""
"html-button-response","46","99859","0.0-4.0-1.0-1.8","1","0","g0e7bz8g19b8pdd","","4720.700000047684","","Was the sound coming from the left or the right?","1","","","1","INDUCTION-JUDGMENT","right","1","","","","","","","","","","","","","","","","","","","","","","","","","","",""
"html-keyboard-response","47","100865","0.0-4.0-1.0-2.8","1","0","g0e7bz8g19b8pdd","","null","","<p style=""color:#054d00;""><b>Correct!</b></p>","","null","","","","","","","","","","","","","","","","","","","","","","","","","","","","","","","",""
"audio-keyboard-response","48","101670","0.0-4.0-1.0-0.9","1","0","g0e7bz8g19b8pdd","","null","","sounds/induction/right_rev/ni_SWS.wav","","null","","","","","","","","","","","","","","","","","","","","","","","","","","","","","","","",""
"html-button-response","49","102372","0.0-4.0-1.0-1.9","1","0","g0e7bz8g19b8pdd","","701.5","","Was the sound coming from the left or the right?","1","","","1","INDUCTION-JUDGMENT","right","1","","","","","","","","","","","","","","","","","","","","","","","","","","",""
"html-keyboard-response","50","103377","0.0-4.0-1.0-2.9","1","0","g0e7bz8g19b8pdd","","null","","<p style=""color:#054d00;""><b>Correct!</b></p>","","null","","","","","","","","","","","","","","","","","","","","","","","","","","","","","","","",""
"audio-keyboard-response","51","104182","0.0-4.0-1.0-0.10","1","0","g0e7bz8g19b8pdd","","null","","sounds/induction/right_rev/ko_SWS.wav","","null","","","","","","","","","","","","","","","","","","","","","","","","","","","","","","","",""
"html-button-response","52","105176","0.0-4.0-1.0-1.10","1","0","g0e7bz8g19b8pdd","","992.5","","Was the sound coming from the left or the right?","1","","","1","INDUCTION-JUDGMENT","right","1","","","","","","","","","","","","","","","","","","","","","","","","","","",""
"html-keyboard-response","53","106182","0.0-4.0-1.0-2.10","1","0","g0e7bz8g19b8pdd","","null","","<p style=""color:#054d00;""><b>Correct!</b></p>","","null","","","","","","","","","","","","","","","","","","","","","","","","","","","","","","","",""
"audio-keyboard-response","54","106987","0.0-4.0-1.0-0.11","1","0","g0e7bz8g19b8pdd","","null","","sounds/induction/right_rev/me_SWS.wav","","null","","","","","","","","","","","","","","","","","","","","","","","","","","","","","","","",""
"html-button-response","55","107818","0.0-4.0-1.0-1.11","1","0","g0e7bz8g19b8pdd","","829.5","","Was the sound coming from the left or the right?","1","","","1","INDUCTION-JUDGMENT","right","1","","","","","","","","","","","","","","","","","","","","","","","","","","",""
"html-keyboard-response","56","108821","0.0-4.0-1.0-2.11","1","0","g0e7bz8g19b8pdd","","null","","<p style=""color:#054d00;""><b>Correct!</b></p>","","null","","","","","","","","","","","","","","","","","","","","","","","","","","","","","","","",""
"audio-keyboard-response","57","109627","0.0-4.0-1.0-0.12","1","0","g0e7bz8g19b8pdd","","null","","sounds/induction/left_rev/ni_SWS.wav","","null","","","","","","","","","","","","","","","","","","","","","","","","","","","","","","","",""
"html-button-response","58","111480","0.0-4.0-1.0-1.12","1","0","g0e7bz8g19b8pdd","","1851.8999999761581","","Was the sound coming from the left or the right?","0","","","1","INDUCTION-JUDGMENT","left","0","","","","","","","","","","","","","","","","","","","","","","","","","","",""
"html-keyboard-response","59","112486","0.0-4.0-1.0-2.12","1","0","g0e7bz8g19b8pdd","","null","","<p style=""color:#054d00;""><b>Correct!</b></p>","","null","","","","","","","","","","","","","","","","","","","","","","","","","","","","","","","",""
"audio-keyboard-response","60","113291","0.0-4.0-1.0-0.13","1","0","g0e7bz8g19b8pdd","","null","","sounds/induction/right_rev/ru_SWS.wav","","null","","","","","","","","","","","","","","","","","","","","","","","","","","","","","","","",""
"html-button-response","61","114139","0.0-4.0-1.0-1.13","1","0","g0e7bz8g19b8pdd","","845.6000000238419","","Was the sound coming from the left or the right?","1","","","1","INDUCTION-JUDGMENT","right","1","","","","","","","","","","","","","","","","","","","","","","","","","","",""
"html-keyboard-response","62","115142","0.0-4.0-1.0-2.13","1","0","g0e7bz8g19b8pdd","","null","","<p style=""color:#054d00;""><b>Correct!</b></p>","","null","","","","","","","","","","","","","","","","","","","","","","","","","","","","","","","",""
"audio-keyboard-response","63","115947","0.0-4.0-1.0-0.14","1","0","g0e7bz8g19b8pdd","","null","","sounds/induction/right_rev/ge_SWS.wav","","null","","","","","","","","","","","","","","","","","","","","","","","","","","","","","","","",""
"html-button-response","64","116399","0.0-4.0-1.0-1.14","1","0","g0e7bz8g19b8pdd","","450.5","","Was the sound coming from the left or the right?","1","","","1","INDUCTION-JUDGMENT","right","1","","","","","","","","","","","","","","","","","","","","","","","","","","",""
"html-keyboard-response","65","117403","0.0-4.0-1.0-2.14","1","0","g0e7bz8g19b8pdd","","null","","<p style=""color:#054d00;""><b>Correct!</b></p>","","null","","","","","","","","","","","","","","","","","","","","","","","","","","","","","","","",""
"audio-keyboard-response","66","118208","0.0-4.0-1.0-0.15","1","0","g0e7bz8g19b8pdd","","null","","sounds/induction/right_rev/ko_SWS.wav","","null","","","","","","","","","","","","","","","","","","","","","","","","","","","","","","","",""
"html-button-response","67","118920","0.0-4.0-1.0-1.15","1","0","g0e7bz8g19b8pdd","","709.1999999284744","","Was the sound coming from the left or the right?","1","","","1","INDUCTION-JUDGMENT","right","1","","","","","","","","","","","","","","","","","","","","","","","","","","",""
"html-keyboard-response","68","119926","0.0-4.0-1.0-2.15","1","0","g0e7bz8g19b8pdd","","null","","<p style=""color:#054d00;""><b>Correct!</b></p>","","null","","","","","","","","","","","","","","","","","","","","","","","","","","","","","","","",""
"audio-keyboard-response","69","120731","0.0-4.0-1.0-0.16","1","0","g0e7bz8g19b8pdd","","null","","sounds/induction/right_rev/re_SWS.wav","","null","","","","","","","","","","","","","","","","","","","","","","","","","","","","","","","",""
"html-button-response","70","126592","0.0-4.0-1.0-1.16","1","0","g0e7bz8g19b8pdd","","5858.700000047684","","Was the sound coming from the left or the right?","0","","","0","INDUCTION-JUDGMENT","right","1","","","","","","","","","","","","","","","","","","","","","","","","","","",""
"html-keyboard-response","71","127595","0.0-4.0-1.0-2.16","1","0","g0e7bz8g19b8pdd","","null","","<p style=""color:#690000;""><b>Incorrect!</b></p>","","null","","","","","","","","","","","","","","","","","","","","","","","","","","","","","","","",""
"audio-keyboard-response","72","128400","0.0-4.0-1.0-0.17","1","0","g0e7bz8g19b8pdd","","null","","sounds/induction/right_rev/re_SWS.wav","","null","","","","","","","","","","","","","","","","","","","","","","","","","","","","","","","",""
"html-button-response","73","128957","0.0-4.0-1.0-1.17","1","0","g0e7bz8g19b8pdd","","555.2000000476837","","Was the sound coming from the left or the right?","1","","","1","INDUCTION-JUDGMENT","right","1","","","","","","","","","","","","","","","","","","","","","","","","","","",""
"html-keyboard-response","74","129960","0.0-4.0-1.0-2.17","1","0","g0e7bz8g19b8pdd","","null","","<p style=""color:#054d00;""><b>Correct!</b></p>","","null","","","","","","","","","","","","","","","","","","","","","","","","","","","","","","","",""
"audio-keyboard-response","75","130768","0.0-4.0-1.0-0.18","1","0","g0e7bz8g19b8pdd","","null","","sounds/induction/left_rev/re_SWS.wav","","null","","","","","","","","","","","","","","","","","","","","","","","","","","","","","","","",""
"html-button-response","76","131404","0.0-4.0-1.0-1.18","1","0","g0e7bz8g19b8pdd","","633.3999999761581","","Was the sound coming from the left or the right?","1","","","0","INDUCTION-JUDGMENT","left","0","","","","","","","","","","","","","","","","","","","","","","","","","","",""
"html-keyboard-response","77","132411","0.0-4.0-1.0-2.18","1","0","g0e7bz8g19b8pdd","","null","","<p style=""color:#690000;""><b>Incorrect!</b></p>","","null","","","","","","","","","","","","","","","","","","","","","","","","","","","","","","","",""
"audio-keyboard-response","78","133216","0.0-4.0-1.0-0.19","1","0","g0e7bz8g19b8pdd","","null","","sounds/induction/left_rev/ti_SWS.wav","","null","","","","","","","","","","","","","","","","","","","","","","","","","","","","","","","",""
"html-button-response","79","136817","0.0-4.0-1.0-1.19","1","0","g0e7bz8g19b8pdd","","3599","","Was the sound coming from the left or the right?","1","","","0","INDUCTION-JUDGMENT","left","0","","","","","","","","","","","","","","","","","","","","","","","","","","",""
"html-keyboard-response","80","137820","0.0-4.0-1.0-2.19","1","0","g0e7bz8g19b8pdd","","null","","<p style=""color:#690000;""><b>Incorrect!</b></p>","","null","","","","","","","","","","","","","","","","","","","","","","","","","","","","","","","",""
"audio-keyboard-response","81","138630","0.0-4.0-1.0-0.20","1","0","g0e7bz8g19b8pdd","","null","","sounds/induction/right_rev/fe_SWS.wav","","null","","","","","","","","","","","","","","","","","","","","","","","","","","","","","","","",""
"html-button-response","82","143032","0.0-4.0-1.0-1.20","1","0","g0e7bz8g19b8pdd","","4400.399999976158","","Was the sound coming from the left or the right?","0","","","0","INDUCTION-JUDGMENT","right","1","","","","","","","","","","","","","","","","","","","","","","","","","","",""
"html-keyboard-response","83","144035","0.0-4.0-1.0-2.20","1","0","g0e7bz8g19b8pdd","","null","","<p style=""color:#690000;""><b>Incorrect!</b></p>","","null","","","","","","","","","","","","","","","","","","","","","","","","","","","","","","","",""
"audio-keyboard-response","84","144843","0.0-4.0-1.0-0.21","1","0","g0e7bz8g19b8pdd","","null","","sounds/induction/left_rev/me_SWS.wav","","null","","","","","","","","","","","","","","","","","","","","","","","","","","","","","","","",""
"html-button-response","85","145356","0.0-4.0-1.0-1.21","1","0","g0e7bz8g19b8pdd","","511.5","","Was the sound coming from the left or the right?","1","","","0","INDUCTION-JUDGMENT","left","0","","","","","","","","","","","","","","","","","","","","","","","","","","",""
"html-keyboard-response","86","146363","0.0-4.0-1.0-2.21","1","0","g0e7bz8g19b8pdd","","null","","<p style=""color:#690000;""><b>Incorrect!</b></p>","","null","","","","","","","","","","","","","","","","","","","","","","","","","","","","","","","",""
"audio-keyboard-response","87","147168","0.0-4.0-1.0-0.22","1","0","g0e7bz8g19b8pdd","","null","","sounds/induction/right_rev/ta_SWS.wav","","null","","","","","","","","","","","","","","","","","","","","","","","","","","","","","","","",""
"html-button-response","88","163144","0.0-4.0-1.0-1.22","1","0","g0e7bz8g19b8pdd","","15974.600000023842","","Was the sound coming from the left or the right?","0","","","0","INDUCTION-JUDGMENT","right","1","","","","","","","","","","","","","","","","","","","","","","","","","","",""
"html-keyboard-response","89","164149","0.0-4.0-1.0-2.22","1","0","g0e7bz8g19b8pdd","","null","","<p style=""color:#690000;""><b>Incorrect!</b></p>","","null","","","","","","","","","","","","","","","","","","","","","","","","","","","","","","","",""
"audio-keyboard-response","90","164954","0.0-4.0-1.0-0.23","1","0","g0e7bz8g19b8pdd","","null","","sounds/induction/left_rev/fu_SWS.wav","","null","","","","","","","","","","","","","","","","","","","","","","","","","","","","","","","",""
"html-button-response","91","165459","0.0-4.0-1.0-1.23","1","0","g0e7bz8g19b8pdd","","503.7999999523163","","Was the sound coming from the left or the right?","0","","","1","INDUCTION-JUDGMENT","left","0","","","","","","","","","","","","","","","","","","","","","","","","","","",""
"html-keyboard-response","92","166461","0.0-4.0-1.0-2.23","1","0","g0e7bz8g19b8pdd","","null","","<p style=""color:#054d00;""><b>Correct!</b></p>","","null","","","","","","","","","","","","","","","","","","","","","","","","","","","","","","","",""
"audio-keyboard-response","93","167264","0.0-4.0-1.0-0.24","1","0","g0e7bz8g19b8pdd","","null","","sounds/induction/left_rev/su_SWS.wav","","null","","","","","","","","","","","","","","","","","","","","","","","","","","","","","","","",""
"html-button-response","94","167876","0.0-4.0-1.0-1.24","1","0","g0e7bz8g19b8pdd","","609.8999999761581","","Was the sound coming from the left or the right?","1","","","0","INDUCTION-JUDGMENT","left","0","","","","","","","","","","","","","","","","","","","","","","","","","","",""
"html-keyboard-response","95","168880","0.0-4.0-1.0-2.24","1","0","g0e7bz8g19b8pdd","","null","","<p style=""color:#690000;""><b>Incorrect!</b></p>","","null","","","","","","","","","","","","","","","","","","","","","","","","","","","","","","","",""
"audio-keyboard-response","96","169685","0.0-4.0-1.0-0.25","1","0","g0e7bz8g19b8pdd","","null","","sounds/induction/left_rev/ti_SWS.wav","","null","","","","","","","","","","","","","","","","","","","","","","","","","","","","","","","",""
"html-button-response","97","176781","0.0-4.0-1.0-1.25","1","0","g0e7bz8g19b8pdd","","7093.100000023842","","Was the sound coming from the left or the right?","1","","","0","INDUCTION-JUDGMENT","left","0","","","","","","","","","","","","","","","","","","","","","","","","","","",""
"html-keyboard-response","98","177786","0.0-4.0-1.0-2.25","1","0","g0e7bz8g19b8pdd","","null","","<p style=""color:#690000;""><b>Incorrect!</b></p>","","null","","","","","","","","","","","","","","","","","","","","","","","","","","","","","","","",""
"audio-keyboard-response","99","178592","0.0-4.0-1.0-0.26","1","0","g0e7bz8g19b8pdd","","null","","sounds/induction/left_rev/me_SWS.wav","","null","","","","","","","","","","","","","","","","","","","","","","","","","","","","","","","",""
"html-button-response","100","179203","0.0-4.0-1.0-1.26","1","0","g0e7bz8g19b8pdd","","610.0999999046326","","Was the sound coming from the left or the right?","0","","","1","INDUCTION-JUDGMENT","left","0","","","","","","","","","","","","","","","","","","","","","","","","","","",""
"html-keyboard-response","101","180208","0.0-4.0-1.0-2.26","1","0","g0e7bz8g19b8pdd","","null","","<p style=""color:#054d00;""><b>Correct!</b></p>","","null","","","","","","","","","","","","","","","","","","","","","","","","","","","","","","","",""
"audio-keyboard-response","102","181013","0.0-4.0-1.0-0.27","1","0","g0e7bz8g19b8pdd","","null","","sounds/induction/left_rev/ta_SWS.wav","","null","","","","","","","","","","","","","","","","","","","","","","","","","","","","","","","",""
"html-button-response","103","181643","0.0-4.0-1.0-1.27","1","0","g0e7bz8g19b8pdd","","627.5","","Was the sound coming from the left or the right?","0","","","1","INDUCTION-JUDGMENT","left","0","","","","","","","","","","","","","","","","","","","","","","","","","","",""
"html-keyboard-response","104","182646","0.0-4.0-1.0-2.27","1","0","g0e7bz8g19b8pdd","","null","","<p style=""color:#054d00;""><b>Correct!</b></p>","","null","","","","","","","","","","","","","","","","","","","","","","","","","","","","","","","",""
"audio-keyboard-response","105","183450","0.0-4.0-1.0-0.28","1","0","g0e7bz8g19b8pdd","","null","","sounds/induction/left_rev/pu_SWS.wav","","null","","","","","","","","","","","","","","","","","","","","","","","","","","","","","","","",""
"html-button-response","106","184099","0.0-4.0-1.0-1.28","1","0","g0e7bz8g19b8pdd","","646","","Was the sound coming from the left or the right?","0","","","1","INDUCTION-JUDGMENT","left","0","","","","","","","","","","","","","","","","","","","","","","","","","","",""
"html-keyboard-response","107","185104","0.0-4.0-1.0-2.28","1","0","g0e7bz8g19b8pdd","","null","","<p style=""color:#054d00;""><b>Correct!</b></p>","","null","","","","","","","","","","","","","","","","","","","","","","","","","","","","","","","",""
"audio-keyboard-response","108","185904","0.0-4.0-1.0-0.29","1","0","g0e7bz8g19b8pdd","","null","","sounds/induction/left_rev/ge_SWS.wav","","null","","","","","","","","","","","","","","","","","","","","","","","","","","","","","","","",""
"html-button-response","109","187099","0.0-4.0-1.0-1.29","1","0","g0e7bz8g19b8pdd","","1192","","Was the sound coming from the left or the right?","1","","","0","INDUCTION-JUDGMENT","left","0","","","","","","","","","","","","","","","","","","","","","","","","","","",""
"html-keyboard-response","110","188103","0.0-4.0-1.0-2.29","1","0","g0e7bz8g19b8pdd","","null","","<p style=""color:#690000;""><b>Incorrect!</b></p>","","null","","","","","","","","","","","","","","","","","","","","","","","","","","","","","","","",""
"audio-keyboard-response","111","188906","0.0-4.0-1.0-0.30","1","0","g0e7bz8g19b8pdd","","null","","sounds/induction/right_rev/ru_SWS.wav","","null","","","","","","","","","","","","","","","","","","","","","","","","","","","","","","","",""
"html-button-response","112","196409","0.0-4.0-1.0-1.30","1","0","g0e7bz8g19b8pdd","","7501","","Was the sound coming from the left or the right?","1","","","1","INDUCTION-JUDGMENT","right","1","","","","","","","","","","","","","","","","","","","","","","","","","","",""
"html-keyboard-response","113","197412","0.0-4.0-1.0-2.30","1","0","g0e7bz8g19b8pdd","","null","","<p style=""color:#054d00;""><b>Correct!</b></p>","","null","","","","","","","","","","","","","","","","","","","","","","","","","","","","","","","",""
"audio-keyboard-response","114","198213","0.0-4.0-1.0-0.31","1","0","g0e7bz8g19b8pdd","","null","","sounds/induction/right_rev/ta_SWS.wav","","null","","","","","","","","","","","","","","","","","","","","","","","","","","","","","","","",""
"html-button-response","115","200747","0.0-4.0-1.0-1.31","1","0","g0e7bz8g19b8pdd","","2532.399999976158","","Was the sound coming from the left or the right?","1","","","1","INDUCTION-JUDGMENT","right","1","","","","","","","","","","","","","","","","","","","","","","","","","","",""
"html-keyboard-response","116","201749","0.0-4.0-1.0-2.31","1","0","g0e7bz8g19b8pdd","","null","","<p style=""color:#054d00;""><b>Correct!</b></p>","","null","","","","","","","","","","","","","","","","","","","","","","","","","","","","","","","",""
"audio-keyboard-response","117","202554","0.0-4.0-1.0-0.32","1","0","g0e7bz8g19b8pdd","","null","","sounds/induction/right_rev/fe_SWS.wav","","null","","","","","","","","","","","","","","","","","","","","","","","","","","","","","","","",""
"html-button-response","118","203540","0.0-4.0-1.0-1.32","1","0","g0e7bz8g19b8pdd","","982.8000000715256","","Was the sound coming from the left or the right?","1","","","1","INDUCTION-JUDGMENT","right","1","","","","","","","","","","","","","","","","","","","","","","","","","","",""
"html-keyboard-response","119","204543","0.0-4.0-1.0-2.32","1","0","g0e7bz8g19b8pdd","","null","","<p style=""color:#054d00;""><b>Correct!</b></p>","","null","","","","","","","","","","","","","","","","","","","","","","","","","","","","","","","",""
"audio-keyboard-response","120","205349","0.0-4.0-1.0-0.33","1","0","g0e7bz8g19b8pdd","","null","","sounds/induction/left_rev/pu_SWS.wav","","null","","","","","","","","","","","","","","","","","","","","","","","","","","","","","","","",""
"html-button-response","121","207539","0.0-4.0-1.0-1.33","1","0","g0e7bz8g19b8pdd","","2187.2999999523163","","Was the sound coming from the left or the right?","0","","","1","INDUCTION-JUDGMENT","left","0","","","","","","","","","","","","","","","","","","","","","","","","","","",""
"html-keyboard-response","122","208543","0.0-4.0-1.0-2.33","1","0","g0e7bz8g19b8pdd","","null","","<p style=""color:#054d00;""><b>Correct!</b></p>","","null","","","","","","","","","","","","","","","","","","","","","","","","","","","","","","","",""
"audio-keyboard-response","123","209349","0.0-4.0-1.0-0.34","1","0","g0e7bz8g19b8pdd","","null","","sounds/induction/left_rev/re_SWS.wav","","null","","","","","","","","","","","","","","","","","","","","","","","","","","","","","","","",""
"html-button-response","124","210952","0.0-4.0-1.0-1.34","1","0","g0e7bz8g19b8pdd","","1600.7999999523163","","Was the sound coming from the left or the right?","0","","","1","INDUCTION-JUDGMENT","left","0","","","","","","","","","","","","","","","","","","","","","","","","","","",""
"html-keyboard-response","125","211956","0.0-4.0-1.0-2.34","1","0","g0e7bz8g19b8pdd","","null","","<p style=""color:#054d00;""><b>Correct!</b></p>","","null","","","","","","","","","","","","","","","","","","","","","","","","","","","","","","","",""
"audio-keyboard-response","126","212762","0.0-4.0-1.0-0.35","1","0","g0e7bz8g19b8pdd","","null","","sounds/induction/left_rev/fe_SWS.wav","","null","","","","","","","","","","","","","","","","","","","","","","","","","","","","","","","",""
"html-button-response","127","213903","0.0-4.0-1.0-1.35","1","0","g0e7bz8g19b8pdd","","1140","","Was the sound coming from the left or the right?","1","","","0","INDUCTION-JUDGMENT","left","0","","","","","","","","","","","","","","","","","","","","","","","","","","",""
"html-keyboard-response","128","214905","0.0-4.0-1.0-2.35","1","0","g0e7bz8g19b8pdd","","null","","<p style=""color:#690000;""><b>Incorrect!</b></p>","","null","","","","","","","","","","","","","","","","","","","","","","","","","","","","","","","",""
"audio-keyboard-response","129","215712","0.0-4.0-1.0-0.36","1","0","g0e7bz8g19b8pdd","","null","","sounds/induction/right_rev/ti_SWS.wav","","null","","","","","","","","","","","","","","","","","","","","","","","","","","","","","","","",""
"html-button-response","130","217684","0.0-4.0-1.0-1.36","1","0","g0e7bz8g19b8pdd","","1970.6999999284744","","Was the sound coming from the left or the right?","0","","","0","INDUCTION-JUDGMENT","right","1","","","","","","","","","","","","","","","","","","","","","","","","","","",""
"html-keyboard-response","131","218690","0.0-4.0-1.0-2.36","1","0","g0e7bz8g19b8pdd","","null","","<p style=""color:#690000;""><b>Incorrect!</b></p>","","null","","","","","","","","","","","","","","","","","","","","","","","","","","","","","","","",""
"audio-keyboard-response","132","219493","0.0-4.0-1.0-0.37","1","0","g0e7bz8g19b8pdd","","null","","sounds/induction/left_rev/ru_SWS.wav","","null","","","","","","","","","","","","","","","","","","","","","","","","","","","","","","","",""
"html-button-response","133","221189","0.0-4.0-1.0-1.37","1","0","g0e7bz8g19b8pdd","","1693.8999999761581","","Was the sound coming from the left or the right?","1","","","0","INDUCTION-JUDGMENT","left","0","","","","","","","","","","","","","","","","","","","","","","","","","","",""
"html-keyboard-response","134","222192","0.0-4.0-1.0-2.37","1","0","g0e7bz8g19b8pdd","","null","","<p style=""color:#690000;""><b>Incorrect!</b></p>","","null","","","","","","","","","","","","","","","","","","","","","","","","","","","","","","","",""
"audio-keyboard-response","135","222997","0.0-4.0-1.0-0.38","1","0","g0e7bz8g19b8pdd","","null","","sounds/induction/right_rev/ni_SWS.wav","","null","","","","","","","","","","","","","","","","","","","","","","","","","","","","","","","",""
"html-button-response","136","225164","0.0-4.0-1.0-1.38","1","0","g0e7bz8g19b8pdd","","2165.3000000715256","","Was the sound coming from the left or the right?","0","","","0","INDUCTION-JUDGMENT","right","1","","","","","","","","","","","","","","","","","","","","","","","","","","",""
"html-keyboard-response","137","226169","0.0-4.0-1.0-2.38","1","0","g0e7bz8g19b8pdd","","null","","<p style=""color:#690000;""><b>Incorrect!</b></p>","","null","","","","","","","","","","","","","","","","","","","","","","","","","","","","","","","",""
"audio-keyboard-response","138","226975","0.0-4.0-1.0-0.39","1","0","g0e7bz8g19b8pdd","","null","","sounds/induction/left_rev/ni_SWS.wav","","null","","","","","","","","","","","","","","","","","","","","","","","","","","","","","","","",""
"html-button-response","139","227595","0.0-4.0-1.0-1.39","1","0","g0e7bz8g19b8pdd","","617.7999999523163","","Was the sound coming from the left or the right?","0","","","1","INDUCTION-JUDGMENT","left","0","","","","","","","","","","","","","","","","","","","","","","","","","","",""
"html-keyboard-response","140","228601","0.0-4.0-1.0-2.39","1","0","g0e7bz8g19b8pdd","","null","","<p style=""color:#054d00;""><b>Correct!</b></p>","","null","","","","","","","","","","","","","","","","","","","","","","","","","","","","","","","",""
"audio-keyboard-response","141","229402","0.0-4.0-1.0-0.40","1","0","g0e7bz8g19b8pdd","","null","","sounds/induction/right_rev/fu_SWS.wav","","null","","","","","","","","","","","","","","","","","","","","","","","","","","","","","","","",""
"html-button-response","142","230523","0.0-4.0-1.0-1.40","1","0","g0e7bz8g19b8pdd","","1118.5","","Was the sound coming from the left or the right?","1","","","1","INDUCTION-JUDGMENT","right","1","","","","","","","","","","","","","","","","","","","","","","","","","","",""
"html-keyboard-response","143","231529","0.0-4.0-1.0-2.40","1","0","g0e7bz8g19b8pdd","","null","","<p style=""color:#054d00;""><b>Correct!</b></p>","","null","","","","","","","","","","","","","","","","","","","","","","","","","","","","","","","",""
"audio-keyboard-response","144","232335","0.0-4.0-1.0-0.41","1","0","g0e7bz8g19b8pdd","","null","","sounds/induction/left_rev/fu_SWS.wav","","null","","","","","","","","","","","","","","","","","","","","","","","","","","","","","","","",""
"html-button-response","145","234369","0.0-4.0-1.0-1.41","1","0","g0e7bz8g19b8pdd","","2031.7000000476837","","Was the sound coming from the left or the right?","1","","","0","INDUCTION-JUDGMENT","left","0","","","","","","","","","","","","","","","","","","","","","","","","","","",""
"html-keyboard-response","146","235374","0.0-4.0-1.0-2.41","1","0","g0e7bz8g19b8pdd","","null","","<p style=""color:#690000;""><b>Incorrect!</b></p>","","null","","","","","","","","","","","","","","","","","","","","","","","","","","","","","","","",""
"audio-keyboard-response","147","236175","0.0-4.0-1.0-0.42","1","0","g0e7bz8g19b8pdd","","null","","sounds/induction/right_rev/su_SWS.wav","","null","","","","","","","","","","","","","","","","","","","","","","","","","","","","","","","",""
"html-button-response","148","236938","0.0-4.0-1.0-1.42","1","0","g0e7bz8g19b8pdd","","760.7000000476837","","Was the sound coming from the left or the right?","0","","","0","INDUCTION-JUDGMENT","right","1","","","","","","","","","","","","","","","","","","","","","","","","","","",""
"html-keyboard-response","149","237943","0.0-4.0-1.0-2.42","1","0","g0e7bz8g19b8pdd","","null","","<p style=""color:#690000;""><b>Incorrect!</b></p>","","null","","","","","","","","","","","","","","","","","","","","","","","","","","","","","","","",""
"audio-keyboard-response","150","238746","0.0-4.0-1.0-0.43","1","0","g0e7bz8g19b8pdd","","null","","sounds/induction/right_rev/pu_SWS.wav","","null","","","","","","","","","","","","","","","","","","","","","","","","","","","","","","","",""
"html-button-response","151","239151","0.0-4.0-1.0-1.43","1","0","g0e7bz8g19b8pdd","","403.2999999523163","","Was the sound coming from the left or the right?","0","","","0","INDUCTION-JUDGMENT","right","1","","","","","","","","","","","","","","","","","","","","","","","","","","",""
"html-keyboard-response","152","240153","0.0-4.0-1.0-2.43","1","0","g0e7bz8g19b8pdd","","null","","<p style=""color:#690000;""><b>Incorrect!</b></p>","","null","","","","","","","","","","","","","","","","","","","","","","","","","","","","","","","",""
"audio-keyboard-response","153","240954","0.0-4.0-1.0-0.44","1","0","g0e7bz8g19b8pdd","","null","","sounds/induction/left_rev/ko_SWS.wav","","null","","","","","","","","","","","","","","","","","","","","","","","","","","","","","","","",""
"html-button-response","154","241444","0.0-4.0-1.0-1.44","1","0","g0e7bz8g19b8pdd","","487.89999997615814","","Was the sound coming from the left or the right?","0","","","1","INDUCTION-JUDGMENT","left","0","","","","","","","","","","","","","","","","","","","","","","","","","","",""
"html-keyboard-response","155","242446","0.0-4.0-1.0-2.44","1","0","g0e7bz8g19b8pdd","","null","","<p style=""color:#054d00;""><b>Correct!</b></p>","","null","","","","","","","","","","","","","","","","","","","","","","","","","","","","","","","",""
"audio-keyboard-response","156","243247","0.0-4.0-1.0-0.45","1","0","g0e7bz8g19b8pdd","","null","","sounds/induction/left_rev/ta_SWS.wav","","null","","","","","","","","","","","","","","","","","","","","","","","","","","","","","","","",""
"html-button-response","157","243899","0.0-4.0-1.0-1.45","1","0","g0e7bz8g19b8pdd","","649.6000000238419","","Was the sound coming from the left or the right?","1","","","0","INDUCTION-JUDGMENT","left","0","","","","","","","","","","","","","","","","","","","","","","","","","","",""
"html-keyboard-response","158","244905","0.0-4.0-1.0-2.45","1","0","g0e7bz8g19b8pdd","","null","","<p style=""color:#690000;""><b>Incorrect!</b></p>","","null","","","","","","","","","","","","","","","","","","","","","","","","","","","","","","","",""
"audio-keyboard-response","159","245706","0.0-4.0-1.0-0.46","1","0","g0e7bz8g19b8pdd","","null","","sounds/induction/left_rev/ru_SWS.wav","","null","","","","","","","","","","","","","","","","","","","","","","","","","","","","","","","",""
"html-button-response","160","246851","0.0-4.0-1.0-1.46","1","0","g0e7bz8g19b8pdd","","1142","","Was the sound coming from the left or the right?","0","","","1","INDUCTION-JUDGMENT","left","0","","","","","","","","","","","","","","","","","","","","","","","","","","",""
"html-keyboard-response","161","247854","0.0-4.0-1.0-2.46","1","0","g0e7bz8g19b8pdd","","null","","<p style=""color:#054d00;""><b>Correct!</b></p>","","null","","","","","","","","","","","","","","","","","","","","","","","","","","","","","","","",""
"audio-keyboard-response","162","248655","0.0-4.0-1.0-0.47","1","0","g0e7bz8g19b8pdd","","null","","sounds/induction/right_rev/me_SWS.wav","","null","","","","","","","","","","","","","","","","","","","","","","","","","","","","","","","",""
"html-button-response","163","249916","0.0-4.0-1.0-1.47","1","0","g0e7bz8g19b8pdd","","1258.3999999761581","","Was the sound coming from the left or the right?","0","","","0","INDUCTION-JUDGMENT","right","1","","","","","","","","","","","","","","","","","","","","","","","","","","",""
"html-keyboard-response","164","250921","0.0-4.0-1.0-2.47","1","0","g0e7bz8g19b8pdd","","null","","<p style=""color:#690000;""><b>Incorrect!</b></p>","","null","","","","","","","","","","","","","","","","","","","","","","","","","","","","","","","",""
"html-button-response","165","252623","0.0-5.0-0.0","1","0","g0e7bz8g19b8pdd","","1200.3000000715256","","<p>Thank you for your answers.</p><p>You will now listen to similar sounds. The main difference is that the sounds will be longer.</p><p>Just as before, you will be asked to judge whether the sound was coming from the left or the right.</p><p>There are 10 of these longer sounds in total.","0","","","","","","","","","","","","","","","","","","","","","","","","","","","","","","","","",""
"audio-keyboard-response","166","255354","0.0-5.0-1.0-0.0","1","0","g0e7bz8g19b8pdd","","null","","sounds/sentences/right_rev/14_09_cfSWS.wav","","null","","","","","","","","","","","","","","","","","","","","","","","","","","","","","","","",""
"html-button-response","167","256247","0.0-5.0-1.0-1.0","1","0","g0e7bz8g19b8pdd","","889.5","","Was the sound coming from the left or the right?","1","","","1","INDUCTION-JUDGMENT","right","1","","","","","","","","","","","","","","","","","","","","","","","","","","",""
"html-keyboard-response","168","257249","0.0-5.0-1.0-2.0","1","0","g0e7bz8g19b8pdd","","null","","<p style=""color:#054d00;""><b>Correct!</b></p>","","null","","","","","","","","","","","","","","","","","","","","","","","","","","","","","","","",""
"html-button-response","169","258546","0.0-5.0-1.0-3.0","1","0","g0e7bz8g19b8pdd","","792.7000000476837","","<p>Press the button below when you are ready to continue.</p>","0","","","","","","","","","","","","","","","","","","","","","","","","","","","","","","","","",""
"audio-keyboard-response","170","261562","0.0-5.0-1.0-0.1","1","0","g0e7bz8g19b8pdd","","null","","sounds/sentences/right_rev/14_10_cfSWS.wav","","null","","","","","","","","","","","","","","","","","","","","","","","","","","","","","","","",""
"html-button-response","171","262166","0.0-5.0-1.0-1.1","1","0","g0e7bz8g19b8pdd","","601","","Was the sound coming from the left or the right?","1","","","1","INDUCTION-JUDGMENT","right","1","","","","","","","","","","","","","","","","","","","","","","","","","","",""
"html-keyboard-response","172","263171","0.0-5.0-1.0-2.1","1","0","g0e7bz8g19b8pdd","","null","","<p style=""color:#054d00;""><b>Correct!</b></p>","","null","","","","","","","","","","","","","","","","","","","","","","","","","","","","","","","",""
"html-button-response","173","264490","0.0-5.0-1.0-3.1","1","0","g0e7bz8g19b8pdd","","816.3999999761581","","<p>Press the button below when you are ready to continue.</p>","0","","","","","","","","","","","","","","","","","","","","","","","","","","","","","","","","",""
"audio-keyboard-response","174","267237","0.0-5.0-1.0-0.2","1","0","g0e7bz8g19b8pdd","","null","","sounds/sentences/right_rev/14_06_cfSWS.wav","","null","","","","","","","","","","","","","","","","","","","","","","","","","","","","","","","",""
"html-button-response","175","269573","0.0-5.0-1.0-1.2","1","0","g0e7bz8g19b8pdd","","2333.600000023842","","Was the sound coming from the left or the right?","0","","","0","INDUCTION-JUDGMENT","right","1","","","","","","","","","","","","","","","","","","","","","","","","","","",""
"html-keyboard-response","176","270579","0.0-5.0-1.0-2.2","1","0","g0e7bz8g19b8pdd","","null","","<p style=""color:#690000;""><b>Incorrect!</b></p>","","null","","","","","","","","","","","","","","","","","","","","","","","","","","","","","","","",""
"html-button-response","177","272111","0.0-5.0-1.0-3.2","1","0","g0e7bz8g19b8pdd","","1028.7000000476837","","<p>Press the button below when you are ready to continue.</p>","0","","","","","","","","","","","","","","","","","","","","","","","","","","","","","","","","",""
"audio-keyboard-response","178","274698","0.0-5.0-1.0-0.3","1","0","g0e7bz8g19b8pdd","","null","","sounds/sentences/left_rev/14_03_cfSWS.wav","","null","","","","","","","","","","","","","","","","","","","","","","","","","","","","","","","",""
"html-button-response","179","275843","0.0-5.0-1.0-1.3","1","0","g0e7bz8g19b8pdd","","1142.5","","Was the sound coming from the left or the right?","1","","","0","INDUCTION-JUDGMENT","left","0","","","","","","","","","","","","","","","","","","","","","","","","","","",""
"html-keyboard-response","180","276846","0.0-5.0-1.0-2.3","1","0","g0e7bz8g19b8pdd","","null","","<p style=""color:#690000;""><b>Incorrect!</b></p>","","null","","","","","","","","","","","","","","","","","","","","","","","","","","","","","","","",""
"html-button-response","181","279119","0.0-5.0-1.0-3.3","1","0","g0e7bz8g19b8pdd","","1766.7000000476837","","<p>Press the button below when you are ready to continue.</p>","0","","","","","","","","","","","","","","","","","","","","","","","","","","","","","","","","",""
"audio-keyboard-response","182","282010","0.0-5.0-1.0-0.4","1","0","g0e7bz8g19b8pdd","","null","","sounds/sentences/right_rev/14_07_cfSWS.wav","","null","","","","","","","","","","","","","","","","","","","","","","","","","","","","","","","",""
"html-button-response","183","282971","0.0-5.0-1.0-1.4","1","0","g0e7bz8g19b8pdd","","958.5","","Was the sound coming from the left or the right?","1","","","1","INDUCTION-JUDGMENT","right","1","","","","","","","","","","","","","","","","","","","","","","","","","","",""
"html-keyboard-response","184","283976","0.0-5.0-1.0-2.4","1","0","g0e7bz8g19b8pdd","","null","","<p style=""color:#054d00;""><b>Correct!</b></p>","","null","","","","","","","","","","","","","","","","","","","","","","","","","","","","","","","",""
"html-button-response","185","285274","0.0-5.0-1.0-3.4","1","0","g0e7bz8g19b8pdd","","793.9000000953674","","<p>Press the button below when you are ready to continue.</p>","0","","","","","","","","","","","","","","","","","","","","","","","","","","","","","","","","",""
"audio-keyboard-response","186","288266","0.0-5.0-1.0-0.5","1","0","g0e7bz8g19b8pdd","","null","","sounds/sentences/left_rev/14_05_cfSWS.wav","","null","","","","","","","","","","","","","","","","","","","","","","","","","","","","","","","",""
"html-button-response","187","289623","0.0-5.0-1.0-1.5","1","0","g0e7bz8g19b8pdd","","1354.3999999761581","","Was the sound coming from the left or the right?","0","","","1","INDUCTION-JUDGMENT","left","0","","","","","","","","","","","","","","","","","","","","","","","","","","",""
"html-keyboard-response","188","290627","0.0-5.0-1.0-2.5","1","0","g0e7bz8g19b8pdd","","null","","<p style=""color:#054d00;""><b>Correct!</b></p>","","null","","","","","","","","","","","","","","","","","","","","","","","","","","","","","","","",""
"html-button-response","189","305699","0.0-5.0-1.0-3.5","1","0","g0e7bz8g19b8pdd","","14569.899999976158","","<p>Press the button below when you are ready to continue.</p>","0","","","","","","","","","","","","","","","","","","","","","","","","","","","","","","","","",""
"audio-keyboard-response","190","308516","0.0-5.0-1.0-0.6","1","0","g0e7bz8g19b8pdd","","null","","sounds/sentences/left_rev/14_02_cfSWS.wav","","null","","","","","","","","","","","","","","","","","","","","","","","","","","","","","","","",""
"html-button-response","191","309268","0.0-5.0-1.0-1.6","1","0","g0e7bz8g19b8pdd","","748.1999999284744","","Was the sound coming from the left or the right?","1","","","0","INDUCTION-JUDGMENT","left","0","","","","","","","","","","","","","","","","","","","","","","","","","","",""
"html-keyboard-response","192","310270","0.0-5.0-1.0-2.6","1","0","g0e7bz8g19b8pdd","","null","","<p style=""color:#690000;""><b>Incorrect!</b></p>","","null","","","","","","","","","","","","","","","","","","","","","","","","","","","","","","","",""
"html-button-response","193","311430","0.0-5.0-1.0-3.6","1","0","g0e7bz8g19b8pdd","","652.3999999761581","","<p>Press the button below when you are ready to continue.</p>","0","","","","","","","","","","","","","","","","","","","","","","","","","","","","","","","","",""
"audio-keyboard-response","194","313983","0.0-5.0-1.0-0.7","1","0","g0e7bz8g19b8pdd","","null","","sounds/sentences/left_rev/14_04_cfSWS.wav","","null","","","","","","","","","","","","","","","","","","","","","","","","","","","","","","","",""
"html-button-response","195","315322","0.0-5.0-1.0-1.7","1","0","g0e7bz8g19b8pdd","","1335.6000000238419","","Was the sound coming from the left or the right?","0","","","1","INDUCTION-JUDGMENT","left","0","","","","","","","","","","","","","","","","","","","","","","","","","","",""
"html-keyboard-response","196","316327","0.0-5.0-1.0-2.7","1","0","g0e7bz8g19b8pdd","","null","","<p style=""color:#054d00;""><b>Correct!</b></p>","","null","","","","","","","","","","","","","","","","","","","","","","","","","","","","","","","",""
"html-button-response","197","319929","0.0-5.0-1.0-3.7","1","0","g0e7bz8g19b8pdd","","3099.2000000476837","","<p>Press the button below when you are ready to continue.</p>","0","","","","","","","","","","","","","","","","","","","","","","","","","","","","","","","","",""
"audio-keyboard-response","198","322687","0.0-5.0-1.0-0.8","1","0","g0e7bz8g19b8pdd","","null","","sounds/sentences/right_rev/14_08_cfSWS.wav","","null","","","","","","","","","","","","","","","","","","","","","","","","","","","","","","","",""
"html-button-response","199","323421","0.0-5.0-1.0-1.8","1","0","g0e7bz8g19b8pdd","","732.8000000715256","","Was the sound coming from the left or the right?","1","","","1","INDUCTION-JUDGMENT","right","1","","","","","","","","","","","","","","","","","","","","","","","","","","",""
"html-keyboard-response","200","324425","0.0-5.0-1.0-2.8","1","0","g0e7bz8g19b8pdd","","null","","<p style=""color:#054d00;""><b>Correct!</b></p>","","null","","","","","","","","","","","","","","","","","","","","","","","","","","","","","","","",""
"html-button-response","201","325581","0.0-5.0-1.0-3.8","1","0","g0e7bz8g19b8pdd","","653.3999999761581","","<p>Press the button below when you are ready to continue.</p>","0","","","","","","","","","","","","","","","","","","","","","","","","","","","","","","","","",""
"audio-keyboard-response","202","328703","0.0-5.0-1.0-0.9","1","0","g0e7bz8g19b8pdd","","null","","sounds/sentences/left_rev/14_01_cfSWS.wav","","null","","","","","","","","","","","","","","","","","","","","","","","","","","","","","","","",""
"html-button-response","203","331544","0.0-5.0-1.0-1.9","1","0","g0e7bz8g19b8pdd","","2838.100000023842","","Was the sound coming from the left or the right?","1","","","0","INDUCTION-JUDGMENT","left","0","","","","","","","","","","","","","","","","","","","","","","","","","","",""
"html-keyboard-response","204","332546","0.0-5.0-1.0-2.9","1","0","g0e7bz8g19b8pdd","","null","","<p style=""color:#690000;""><b>Incorrect!</b></p>","","null","","","","","","","","","","","","","","","","","","","","","","","","","","","","","","","",""
"html-button-response","205","333936","0.0-5.0-1.0-3.9","1","0","g0e7bz8g19b8pdd","","887.8999999761581","","<p>Press the button below when you are ready to continue.</p>","0","","","","","","","","","","","","","","","","","","","","","","","","","","","","","","","","",""
"html-keyboard-response","206","1886870","0.0-6.0-0.0","1","0","g0e7bz8g19b8pdd","","1531664.2000000477","","<p>In this part of the study, you will hear sounds similar to those you just heard.</p><p>Please focus on these sounds, as you may be asked questions about them later.</p><p>Occasionally, the sounds will pause for up to two seconds. When this happens, please press SPACEBAR as quickly as you can.</br>This helps ensure that you are paying attention to the sounds.</p><p>This part of the study will take about 12 minutes to complete, and you will be given the opportunity to take a couple of short breaks every few minutes.</p><p><strong>Press SPACEBAR to begin</strong></p>","","32","","","","","","","","","","","","","","","","","","","","","","","","","","","","","","","",""
"html-keyboard-response","207","1887874","0.0-6.0-1.0-0.0","1","0","g0e7bz8g19b8pdd","","null","","<p style=""font-size: 40px;"">+</p>","","null","","","","","","","","","","","","","","","","","","","","","","","","","","","","","","","",""
"html-keyboard-response","208","2072875","0.0-6.0-1.0-1.0","1","0","g0e7bz8g19b8pdd","","null","","","","null","","","SL-TRAIN","","","0","788.4000000953674","1953.6000000238419","sounds/A/TRAIN/SEQ__04.mp3","2","","","","","","","","","","","","","","","","","","","","","",""
"html-button-response","209","2078792","0.0-6.0-1.0-2.0","1","0","g0e7bz8g19b8pdd","","5914","","<p>You may take a short break if you wish.</p>","0","","","","","","","","","","","","","","","","","","","","","","","","","","","","","","","","",""
"html-keyboard-response","210","2079797","0.0-6.0-1.0-3.0","1","0","g0e7bz8g19b8pdd","","null","","<p style=""font-size: 40px;"">+</p>","","null","","","","","","","","","","","","","","","","","","","","","","","","","","","","","","","",""
"html-keyboard-response","211","2264800","0.0-6.0-1.0-4.0","1","0","g0e7bz8g19b8pdd","","null","","","","null","","","SL-TRAIN","","","0","981.6000000238419","1765.8000000715256","sounds/A/TRAIN/SEQ__03.mp3","10","","","","","","","","","","","","","","","","","","","","","",""
"html-button-response","212","2287896","0.0-6.0-1.0-5.0","1","0","g0e7bz8g19b8pdd","","23094.799999952316","","<p>You may take a short break if you wish.</p>","0","","","","","","","","","","","","","","","","","","","","","","","","","","","","","","","","",""
"html-keyboard-response","213","2288901","0.0-6.0-1.0-6.0","1","0","g0e7bz8g19b8pdd","","null","","<p style=""font-size: 40px;"">+</p>","","null","","","","","","","","","","","","","","","","","","","","","","","","","","","","","","","",""
"html-keyboard-response","214","2473903","0.0-6.0-1.0-7.0","1","0","g0e7bz8g19b8pdd","","null","","","","null","","","SL-TRAIN","","","0","1514.7000000476837","1034.1000000238419","sounds/A/TRAIN/SEQ__08.mp3","8","","","","","","","","","","","","","","","","","","","","","",""
"html-button-response","215","2475315","0.0-6.0-1.0-8.0","1","0","g0e7bz8g19b8pdd","","1409.7999999523163","","<p>You may take a short break if you wish.</p>","0","","","","","","","","","","","","","","","","","","","","","","","","","","","","","","","","",""
"html-keyboard-response","216","2476319","0.0-6.0-1.0-9.0","1","0","g0e7bz8g19b8pdd","","null","","<p style=""font-size: 40px;"">+</p>","","null","","","","","","","","","","","","","","","","","","","","","","","","","","","","","","","",""
"html-keyboard-response","217","2661323","0.0-6.0-1.0-10.0","1","0","g0e7bz8g19b8pdd","","null","","","","null","","","SL-TRAIN","","","0","1018.6000000238419","1268.8999999761581","sounds/A/TRAIN/SEQ__02.mp3","16","","","","","","","","","","","","","","","","","","","","","",""
"html-button-response","218","2663524","0.0-6.0-1.0-11.0","1","0","g0e7bz8g19b8pdd","","2195.8000000715256","","<p>You may take a short break if you wish.</p>","0","","","","","","","","","","","","","","","","","","","","","","","","","","","","","","","","",""
"html-button-response","219","2671564","0.0-7.0-0.0","1","0","g0e7bz8g19b8pdd","","8038.099999904633","","<p>Welcome to the second part of the study. This is a <u>familiarity task</u>.</p><p>You will now hear short sounds and will be asked to rate how familiar they sound to you <b>based on what you heard in the previous part of the study</b>.</p><p>You will rate 12 sounds in total.</p>","0","","","","","","","","","","","","","","","","","","","","","","","","","","","","","","","","",""
"html-keyboard-response","220","2672569","0.0-7.0-1.0-0.0","1","0","g0e7bz8g19b8pdd","","null","","","","null","","","","","","","","","","","","","","","","","","","","","","","","","","","","","","","",""
"audio-keyboard-response","221","2673544","0.0-7.0-1.0-1.0","1","0","g0e7bz8g19b8pdd","","null","","sounds/A/FAM/W004.mp3","","null","","","","","","","","","","","","","","","","","","","","","","","","","","","","","","","",""
"html-keyboard-response","222","2679927","0.0-7.0-1.0-2.0","1","0","g0e7bz8g19b8pdd","","5879.399999976158","","<p>How familiar did this sound to you?</p><p>1&nbsp;&nbsp;&nbsp;&nbsp;&nbsp;&nbsp;&nbsp;&nbsp;&nbsp;&nbsp;&nbsp;&nbsp;&nbsp;&nbsp;&nbsp;&nbsp;&nbsp;&nbsp;&nbsp;2&nbsp;&nbsp;&nbsp;&nbsp;&nbsp;&nbsp;&nbsp;&nbsp;&nbsp;&nbsp;&nbsp;&nbsp;&nbsp;&nbsp;&nbsp;&nbsp;&nbsp;&nbsp;&nbsp;3&nbsp;&nbsp;&nbsp;&nbsp;&nbsp;&nbsp;&nbsp;&nbsp;&nbsp;&nbsp;&nbsp;&nbsp;&nbsp;&nbsp;&nbsp;&nbsp;&nbsp;&nbsp;&nbsp;4</p><p style=""font-size:14px"">Not at all familiar&nbsp;&nbsp;&nbsp;&nbsp;A little familiar&nbsp;&nbsp;&nbsp;Moderately familiar&nbsp;&nbsp;&nbsp;Extremely familiar</p><p>(press the corresponding number on your keyboard)</p>","","52","","","FAM-RESPONSE","","","","","","","","sounds/A/FAM/W004.mp3","word","","","","","","","","","","","","","","","","","","","",""
"html-keyboard-response","223","2681934","0.0-7.0-1.0-0.1","1","0","g0e7bz8g19b8pdd","","null","","","","null","","","","","","","","","","","","","","","","","","","","","","","","","","","","","","","",""
"audio-keyboard-response","224","2682878","0.0-7.0-1.0-1.1","1","0","g0e7bz8g19b8pdd","","null","","sounds/A/FAM/P002.mp3","","null","","","","","","","","","","","","","","","","","","","","","","","","","","","","","","","",""
"html-keyboard-response","225","2684443","0.0-7.0-1.0-2.1","1","0","g0e7bz8g19b8pdd","","1062.1999999284744","","<p>How familiar did this sound to you?</p><p>1&nbsp;&nbsp;&nbsp;&nbsp;&nbsp;&nbsp;&nbsp;&nbsp;&nbsp;&nbsp;&nbsp;&nbsp;&nbsp;&nbsp;&nbsp;&nbsp;&nbsp;&nbsp;&nbsp;2&nbsp;&nbsp;&nbsp;&nbsp;&nbsp;&nbsp;&nbsp;&nbsp;&nbsp;&nbsp;&nbsp;&nbsp;&nbsp;&nbsp;&nbsp;&nbsp;&nbsp;&nbsp;&nbsp;3&nbsp;&nbsp;&nbsp;&nbsp;&nbsp;&nbsp;&nbsp;&nbsp;&nbsp;&nbsp;&nbsp;&nbsp;&nbsp;&nbsp;&nbsp;&nbsp;&nbsp;&nbsp;&nbsp;4</p><p style=""font-size:14px"">Not at all familiar&nbsp;&nbsp;&nbsp;&nbsp;A little familiar&nbsp;&nbsp;&nbsp;Moderately familiar&nbsp;&nbsp;&nbsp;Extremely familiar</p><p>(press the corresponding number on your keyboard)</p>","","51","","","FAM-RESPONSE","","","","","","","","sounds/A/FAM/P002.mp3","partword","","","","","","","","","","","","","","","","","","","",""
"html-keyboard-response","226","2686448","0.0-7.0-1.0-0.2","1","0","g0e7bz8g19b8pdd","","null","","","","null","","","","","","","","","","","","","","","","","","","","","","","","","","","","","","","",""
"audio-keyboard-response","227","2687390","0.0-7.0-1.0-1.2","1","0","g0e7bz8g19b8pdd","","null","","sounds/A/FAM/W003.mp3","","null","","","","","","","","","","","","","","","","","","","","","","","","","","","","","","","",""
"html-keyboard-response","228","2688720","0.0-7.0-1.0-2.2","1","0","g0e7bz8g19b8pdd","","824.3000000715256","","<p>How familiar did this sound to you?</p><p>1&nbsp;&nbsp;&nbsp;&nbsp;&nbsp;&nbsp;&nbsp;&nbsp;&nbsp;&nbsp;&nbsp;&nbsp;&nbsp;&nbsp;&nbsp;&nbsp;&nbsp;&nbsp;&nbsp;2&nbsp;&nbsp;&nbsp;&nbsp;&nbsp;&nbsp;&nbsp;&nbsp;&nbsp;&nbsp;&nbsp;&nbsp;&nbsp;&nbsp;&nbsp;&nbsp;&nbsp;&nbsp;&nbsp;3&nbsp;&nbsp;&nbsp;&nbsp;&nbsp;&nbsp;&nbsp;&nbsp;&nbsp;&nbsp;&nbsp;&nbsp;&nbsp;&nbsp;&nbsp;&nbsp;&nbsp;&nbsp;&nbsp;4</p><p style=""font-size:14px"">Not at all familiar&nbsp;&nbsp;&nbsp;&nbsp;A little familiar&nbsp;&nbsp;&nbsp;Moderately familiar&nbsp;&nbsp;&nbsp;Extremely familiar</p><p>(press the corresponding number on your keyboard)</p>","","51","","","FAM-RESPONSE","","","","","","","","sounds/A/FAM/W003.mp3","word","","","","","","","","","","","","","","","","","","","",""
"html-keyboard-response","229","2690729","0.0-7.0-1.0-0.3","1","0","g0e7bz8g19b8pdd","","null","","","","null","","","","","","","","","","","","","","","","","","","","","","","","","","","","","","","",""
"audio-keyboard-response","230","2691672","0.0-7.0-1.0-1.3","1","0","g0e7bz8g19b8pdd","","null","","sounds/A/FAM/N003.mp3","","null","","","","","","","","","","","","","","","","","","","","","","","","","","","","","","","",""
"html-keyboard-response","231","2692734","0.0-7.0-1.0-2.3","1","0","g0e7bz8g19b8pdd","","555","","<p>How familiar did this sound to you?</p><p>1&nbsp;&nbsp;&nbsp;&nbsp;&nbsp;&nbsp;&nbsp;&nbsp;&nbsp;&nbsp;&nbsp;&nbsp;&nbsp;&nbsp;&nbsp;&nbsp;&nbsp;&nbsp;&nbsp;2&nbsp;&nbsp;&nbsp;&nbsp;&nbsp;&nbsp;&nbsp;&nbsp;&nbsp;&nbsp;&nbsp;&nbsp;&nbsp;&nbsp;&nbsp;&nbsp;&nbsp;&nbsp;&nbsp;3&nbsp;&nbsp;&nbsp;&nbsp;&nbsp;&nbsp;&nbsp;&nbsp;&nbsp;&nbsp;&nbsp;&nbsp;&nbsp;&nbsp;&nbsp;&nbsp;&nbsp;&nbsp;&nbsp;4</p><p style=""font-size:14px"">Not at all familiar&nbsp;&nbsp;&nbsp;&nbsp;A little familiar&nbsp;&nbsp;&nbsp;Moderately familiar&nbsp;&nbsp;&nbsp;Extremely familiar</p><p>(press the corresponding number on your keyboard)</p>","","51","","","FAM-RESPONSE","","","","","","","","sounds/A/FAM/N003.mp3","nonword","","","","","","","","","","","","","","","","","","","",""
"html-keyboard-response","232","2694738","0.0-7.0-1.0-0.4","1","0","g0e7bz8g19b8pdd","","null","","","","null","","","","","","","","","","","","","","","","","","","","","","","","","","","","","","","",""
"audio-keyboard-response","233","2695683","0.0-7.0-1.0-1.4","1","0","g0e7bz8g19b8pdd","","null","","sounds/A/FAM/P003.mp3","","null","","","","","","","","","","","","","","","","","","","","","","","","","","","","","","","",""
"html-keyboard-response","234","2696507","0.0-7.0-1.0-2.4","1","0","g0e7bz8g19b8pdd","","318","","<p>How familiar did this sound to you?</p><p>1&nbsp;&nbsp;&nbsp;&nbsp;&nbsp;&nbsp;&nbsp;&nbsp;&nbsp;&nbsp;&nbsp;&nbsp;&nbsp;&nbsp;&nbsp;&nbsp;&nbsp;&nbsp;&nbsp;2&nbsp;&nbsp;&nbsp;&nbsp;&nbsp;&nbsp;&nbsp;&nbsp;&nbsp;&nbsp;&nbsp;&nbsp;&nbsp;&nbsp;&nbsp;&nbsp;&nbsp;&nbsp;&nbsp;3&nbsp;&nbsp;&nbsp;&nbsp;&nbsp;&nbsp;&nbsp;&nbsp;&nbsp;&nbsp;&nbsp;&nbsp;&nbsp;&nbsp;&nbsp;&nbsp;&nbsp;&nbsp;&nbsp;4</p><p style=""font-size:14px"">Not at all familiar&nbsp;&nbsp;&nbsp;&nbsp;A little familiar&nbsp;&nbsp;&nbsp;Moderately familiar&nbsp;&nbsp;&nbsp;Extremely familiar</p><p>(press the corresponding number on your keyboard)</p>","","52","","","FAM-RESPONSE","","","","","","","","sounds/A/FAM/P003.mp3","partword","","","","","","","","","","","","","","","","","","","",""
"html-keyboard-response","235","2698513","0.0-7.0-1.0-0.5","1","0","g0e7bz8g19b8pdd","","null","","","","null","","","","","","","","","","","","","","","","","","","","","","","","","","","","","","","",""
"audio-keyboard-response","236","2699459","0.0-7.0-1.0-1.5","1","0","g0e7bz8g19b8pdd","","null","","sounds/A/FAM/W002.mp3","","null","","","","","","","","","","","","","","","","","","","","","","","","","","","","","","","",""
"html-keyboard-response","237","2700357","0.0-7.0-1.0-2.5","1","0","g0e7bz8g19b8pdd","","393","","<p>How familiar did this sound to you?</p><p>1&nbsp;&nbsp;&nbsp;&nbsp;&nbsp;&nbsp;&nbsp;&nbsp;&nbsp;&nbsp;&nbsp;&nbsp;&nbsp;&nbsp;&nbsp;&nbsp;&nbsp;&nbsp;&nbsp;2&nbsp;&nbsp;&nbsp;&nbsp;&nbsp;&nbsp;&nbsp;&nbsp;&nbsp;&nbsp;&nbsp;&nbsp;&nbsp;&nbsp;&nbsp;&nbsp;&nbsp;&nbsp;&nbsp;3&nbsp;&nbsp;&nbsp;&nbsp;&nbsp;&nbsp;&nbsp;&nbsp;&nbsp;&nbsp;&nbsp;&nbsp;&nbsp;&nbsp;&nbsp;&nbsp;&nbsp;&nbsp;&nbsp;4</p><p style=""font-size:14px"">Not at all familiar&nbsp;&nbsp;&nbsp;&nbsp;A little familiar&nbsp;&nbsp;&nbsp;Moderately familiar&nbsp;&nbsp;&nbsp;Extremely familiar</p><p>(press the corresponding number on your keyboard)</p>","","52","","","FAM-RESPONSE","","","","","","","","sounds/A/FAM/W002.mp3","word","","","","","","","","","","","","","","","","","","","",""
"html-keyboard-response","238","2702362","0.0-7.0-1.0-0.6","1","0","g0e7bz8g19b8pdd","","null","","","","null","","","","","","","","","","","","","","","","","","","","","","","","","","","","","","","",""
"audio-keyboard-response","239","2703304","0.0-7.0-1.0-1.6","1","0","g0e7bz8g19b8pdd","","null","","sounds/A/FAM/P004.mp3","","null","","","","","","","","","","","","","","","","","","","","","","","","","","","","","","","",""
"html-keyboard-response","240","2704360","0.0-7.0-1.0-2.6","1","0","g0e7bz8g19b8pdd","","549.1999999284744","","<p>How familiar did this sound to you?</p><p>1&nbsp;&nbsp;&nbsp;&nbsp;&nbsp;&nbsp;&nbsp;&nbsp;&nbsp;&nbsp;&nbsp;&nbsp;&nbsp;&nbsp;&nbsp;&nbsp;&nbsp;&nbsp;&nbsp;2&nbsp;&nbsp;&nbsp;&nbsp;&nbsp;&nbsp;&nbsp;&nbsp;&nbsp;&nbsp;&nbsp;&nbsp;&nbsp;&nbsp;&nbsp;&nbsp;&nbsp;&nbsp;&nbsp;3&nbsp;&nbsp;&nbsp;&nbsp;&nbsp;&nbsp;&nbsp;&nbsp;&nbsp;&nbsp;&nbsp;&nbsp;&nbsp;&nbsp;&nbsp;&nbsp;&nbsp;&nbsp;&nbsp;4</p><p style=""font-size:14px"">Not at all familiar&nbsp;&nbsp;&nbsp;&nbsp;A little familiar&nbsp;&nbsp;&nbsp;Moderately familiar&nbsp;&nbsp;&nbsp;Extremely familiar</p><p>(press the corresponding number on your keyboard)</p>","","52","","","FAM-RESPONSE","","","","","","","","sounds/A/FAM/P004.mp3","partword","","","","","","","","","","","","","","","","","","","",""
"html-keyboard-response","241","2706367","0.0-7.0-1.0-0.7","1","0","g0e7bz8g19b8pdd","","null","","","","null","","","","","","","","","","","","","","","","","","","","","","","","","","","","","","","",""
"audio-keyboard-response","242","2707309","0.0-7.0-1.0-1.7","1","0","g0e7bz8g19b8pdd","","null","","sounds/A/FAM/W001.mp3","","null","","","","","","","","","","","","","","","","","","","","","","","","","","","","","","","",""
"html-keyboard-response","243","2708372","0.0-7.0-1.0-2.7","1","0","g0e7bz8g19b8pdd","","556.5","","<p>How familiar did this sound to you?</p><p>1&nbsp;&nbsp;&nbsp;&nbsp;&nbsp;&nbsp;&nbsp;&nbsp;&nbsp;&nbsp;&nbsp;&nbsp;&nbsp;&nbsp;&nbsp;&nbsp;&nbsp;&nbsp;&nbsp;2&nbsp;&nbsp;&nbsp;&nbsp;&nbsp;&nbsp;&nbsp;&nbsp;&nbsp;&nbsp;&nbsp;&nbsp;&nbsp;&nbsp;&nbsp;&nbsp;&nbsp;&nbsp;&nbsp;3&nbsp;&nbsp;&nbsp;&nbsp;&nbsp;&nbsp;&nbsp;&nbsp;&nbsp;&nbsp;&nbsp;&nbsp;&nbsp;&nbsp;&nbsp;&nbsp;&nbsp;&nbsp;&nbsp;4</p><p style=""font-size:14px"">Not at all familiar&nbsp;&nbsp;&nbsp;&nbsp;A little familiar&nbsp;&nbsp;&nbsp;Moderately familiar&nbsp;&nbsp;&nbsp;Extremely familiar</p><p>(press the corresponding number on your keyboard)</p>","","52","","","FAM-RESPONSE","","","","","","","","sounds/A/FAM/W001.mp3","word","","","","","","","","","","","","","","","","","","","",""
"html-keyboard-response","244","2710380","0.0-7.0-1.0-0.8","1","0","g0e7bz8g19b8pdd","","null","","","","null","","","","","","","","","","","","","","","","","","","","","","","","","","","","","","","",""
"audio-keyboard-response","245","2711325","0.0-7.0-1.0-1.8","1","0","g0e7bz8g19b8pdd","","null","","sounds/A/FAM/P001.mp3","","null","","","","","","","","","","","","","","","","","","","","","","","","","","","","","","","",""
"html-keyboard-response","246","2713558","0.0-7.0-1.0-2.8","1","0","g0e7bz8g19b8pdd","","1726.1000000238419","","<p>How familiar did this sound to you?</p><p>1&nbsp;&nbsp;&nbsp;&nbsp;&nbsp;&nbsp;&nbsp;&nbsp;&nbsp;&nbsp;&nbsp;&nbsp;&nbsp;&nbsp;&nbsp;&nbsp;&nbsp;&nbsp;&nbsp;2&nbsp;&nbsp;&nbsp;&nbsp;&nbsp;&nbsp;&nbsp;&nbsp;&nbsp;&nbsp;&nbsp;&nbsp;&nbsp;&nbsp;&nbsp;&nbsp;&nbsp;&nbsp;&nbsp;3&nbsp;&nbsp;&nbsp;&nbsp;&nbsp;&nbsp;&nbsp;&nbsp;&nbsp;&nbsp;&nbsp;&nbsp;&nbsp;&nbsp;&nbsp;&nbsp;&nbsp;&nbsp;&nbsp;4</p><p style=""font-size:14px"">Not at all familiar&nbsp;&nbsp;&nbsp;&nbsp;A little familiar&nbsp;&nbsp;&nbsp;Moderately familiar&nbsp;&nbsp;&nbsp;Extremely familiar</p><p>(press the corresponding number on your keyboard)</p>","","51","","","FAM-RESPONSE","","","","","","","","sounds/A/FAM/P001.mp3","partword","","","","","","","","","","","","","","","","","","","",""
"html-keyboard-response","247","2715563","0.0-7.0-1.0-0.9","1","0","g0e7bz8g19b8pdd","","null","","","","null","","","","","","","","","","","","","","","","","","","","","","","","","","","","","","","",""
"audio-keyboard-response","248","2716509","0.0-7.0-1.0-1.9","1","0","g0e7bz8g19b8pdd","","null","","sounds/A/FAM/N002.mp3","","null","","","","","","","","","","","","","","","","","","","","","","","","","","","","","","","",""
"html-keyboard-response","249","2718672","0.0-7.0-1.0-2.9","1","0","g0e7bz8g19b8pdd","","1656.5","","<p>How familiar did this sound to you?</p><p>1&nbsp;&nbsp;&nbsp;&nbsp;&nbsp;&nbsp;&nbsp;&nbsp;&nbsp;&nbsp;&nbsp;&nbsp;&nbsp;&nbsp;&nbsp;&nbsp;&nbsp;&nbsp;&nbsp;2&nbsp;&nbsp;&nbsp;&nbsp;&nbsp;&nbsp;&nbsp;&nbsp;&nbsp;&nbsp;&nbsp;&nbsp;&nbsp;&nbsp;&nbsp;&nbsp;&nbsp;&nbsp;&nbsp;3&nbsp;&nbsp;&nbsp;&nbsp;&nbsp;&nbsp;&nbsp;&nbsp;&nbsp;&nbsp;&nbsp;&nbsp;&nbsp;&nbsp;&nbsp;&nbsp;&nbsp;&nbsp;&nbsp;4</p><p style=""font-size:14px"">Not at all familiar&nbsp;&nbsp;&nbsp;&nbsp;A little familiar&nbsp;&nbsp;&nbsp;Moderately familiar&nbsp;&nbsp;&nbsp;Extremely familiar</p><p>(press the corresponding number on your keyboard)</p>","","50","","","FAM-RESPONSE","","","","","","","","sounds/A/FAM/N002.mp3","nonword","","","","","","","","","","","","","","","","","","","",""
"html-keyboard-response","250","2720682","0.0-7.0-1.0-0.10","1","0","g0e7bz8g19b8pdd","","null","","","","null","","","","","","","","","","","","","","","","","","","","","","","","","","","","","","","",""
"audio-keyboard-response","251","2721623","0.0-7.0-1.0-1.10","1","0","g0e7bz8g19b8pdd","","null","","sounds/A/FAM/N001.mp3","","null","","","","","","","","","","","","","","","","","","","","","","","","","","","","","","","",""
"html-keyboard-response","252","2723100","0.0-7.0-1.0-2.10","1","0","g0e7bz8g19b8pdd","","973.6000000238419","","<p>How familiar did this sound to you?</p><p>1&nbsp;&nbsp;&nbsp;&nbsp;&nbsp;&nbsp;&nbsp;&nbsp;&nbsp;&nbsp;&nbsp;&nbsp;&nbsp;&nbsp;&nbsp;&nbsp;&nbsp;&nbsp;&nbsp;2&nbsp;&nbsp;&nbsp;&nbsp;&nbsp;&nbsp;&nbsp;&nbsp;&nbsp;&nbsp;&nbsp;&nbsp;&nbsp;&nbsp;&nbsp;&nbsp;&nbsp;&nbsp;&nbsp;3&nbsp;&nbsp;&nbsp;&nbsp;&nbsp;&nbsp;&nbsp;&nbsp;&nbsp;&nbsp;&nbsp;&nbsp;&nbsp;&nbsp;&nbsp;&nbsp;&nbsp;&nbsp;&nbsp;4</p><p style=""font-size:14px"">Not at all familiar&nbsp;&nbsp;&nbsp;&nbsp;A little familiar&nbsp;&nbsp;&nbsp;Moderately familiar&nbsp;&nbsp;&nbsp;Extremely familiar</p><p>(press the corresponding number on your keyboard)</p>","","50","","","FAM-RESPONSE","","","","","","","","sounds/A/FAM/N001.mp3","nonword","","","","","","","","","","","","","","","","","","","",""
"html-keyboard-response","253","2725109","0.0-7.0-1.0-0.11","1","0","g0e7bz8g19b8pdd","","null","","","","null","","","","","","","","","","","","","","","","","","","","","","","","","","","","","","","",""
"audio-keyboard-response","254","2726050","0.0-7.0-1.0-1.11","1","0","g0e7bz8g19b8pdd","","null","","sounds/A/FAM/N004.mp3","","null","","","","","","","","","","","","","","","","","","","","","","","","","","","","","","","",""
"html-keyboard-response","255","2727324","0.0-7.0-1.0-2.11","1","0","g0e7bz8g19b8pdd","","769.6000000238419","","<p>How familiar did this sound to you?</p><p>1&nbsp;&nbsp;&nbsp;&nbsp;&nbsp;&nbsp;&nbsp;&nbsp;&nbsp;&nbsp;&nbsp;&nbsp;&nbsp;&nbsp;&nbsp;&nbsp;&nbsp;&nbsp;&nbsp;2&nbsp;&nbsp;&nbsp;&nbsp;&nbsp;&nbsp;&nbsp;&nbsp;&nbsp;&nbsp;&nbsp;&nbsp;&nbsp;&nbsp;&nbsp;&nbsp;&nbsp;&nbsp;&nbsp;3&nbsp;&nbsp;&nbsp;&nbsp;&nbsp;&nbsp;&nbsp;&nbsp;&nbsp;&nbsp;&nbsp;&nbsp;&nbsp;&nbsp;&nbsp;&nbsp;&nbsp;&nbsp;&nbsp;4</p><p style=""font-size:14px"">Not at all familiar&nbsp;&nbsp;&nbsp;&nbsp;A little familiar&nbsp;&nbsp;&nbsp;Moderately familiar&nbsp;&nbsp;&nbsp;Extremely familiar</p><p>(press the corresponding number on your keyboard)</p>","","50","","","FAM-RESPONSE","","","","","","","","sounds/A/FAM/N004.mp3","nonword","","","","","","","","","","","","","","","","","","","",""
"html-button-response","256","2744677","0.0-8.0-0.0","1","0","g0e7bz8g19b8pdd","","16347","","<p>You will now listen to longer sound sequences.</p><p>Each sound sequence will last about 16 seconds.</p><p>On each trial, you will be given a <u>TARGET SOUND</u>. Your task is to listen very carefully for this sound.</p><p>Every time you hear the <u>TARGET SOUND</u>, you will press the <b>SPACEBAR</b> as quickly and accurately as you can.</p>","0","","","","","","","","","","","","","","","","","","","","","","","","","","","","","","","","",""
"html-button-response","257","2747782","0.0-8.0-1.0","1","0","g0e7bz8g19b8pdd","","2847.2999999523163","","<p>It is very important that you make your responses as quickly and accurately as possible.</p><p>To help you make your responses, you will be able to listen to the <u>TARGET SOUND</u> at the beginning of each trial.</p><p>There will be 36 total trials.</p><p><b>Note: This is meant to be a difficult task. We simply want you to try your best.</p>","0","","","","","","","","","","","","","","","","","","","","","","","","","","","","","","","","",""
"html-button-response","258","2749473","0.0-8.0-2.0-0.0","1","0","g0e7bz8g19b8pdd","","1432.4000000953674","","<p>Trial 1 of 36</p>","0","","","","","","","","","","","","","","NI","sounds/syllables/ni_SWS.wav","2400,6900,8700,12300","3","","","","","","","","","","","","","","","",""
"html-keyboard-response","259","2758257","0.0-8.0-2.0-1.0","1","0","g0e7bz8g19b8pdd","","8782.200000047684","","","","80","","","","","","","","","","","","","NI","","2400,6900,8700,12300","3","","","","","","","","","","","","","","","",""
"audio-keyboard-response","260","2758589","0.0-8.0-2.0-2.0-0.0","1","0","g0e7bz8g19b8pdd","","null","","sounds/syllables/ni_SWS.wav","","null","","","","","","","","","","","","","","","","","","","","","","","","","","","","","","","",""
"html-keyboard-response","261","2762516","0.0-8.0-2.0-2.0-1.0","1","0","g0e7bz8g19b8pdd","","3926.899999976158","","<p>To replay the <u>TARGET SOUND</u>, press P.</p> When you are ready to begin, press SPACEBAR.","","80","","","","","","","","","","","","","","","","","","","","","","","","","","","","","","","",""
"audio-keyboard-response","262","2763319","0.0-8.0-2.0-2.1-0.1","1","0","g0e7bz8g19b8pdd","","null","","sounds/syllables/ni_SWS.wav","","null","","","","","","","","","","","","","","","","","","","","","","","","","","","","","","","",""
"html-keyboard-response","263","2763741","0.0-8.0-2.0-2.1-1.1","1","0","g0e7bz8g19b8pdd","","420.7000000476837","","<p>To replay the <u>TARGET SOUND</u>, press P.</p> When you are ready to begin, press SPACEBAR.","","32","","","","","","","","","","","","","","","","","","","","","","","","","","","","","","","",""
"audio-keyboard-response","264","2778690","0.0-8.0-2.0-3.0","1","0","g0e7bz8g19b8pdd","","960","","sounds/A/TD/NI_04_TD.mp3","","32","","","TD_SUMMARY","","","","","","","","","","NI","","2400,6900,8700,12300","3","2400","6900","8700","12300","883","590.6000000238419","630.3999999761581","null","959.1999999284744_1672.2999999523163_2638.399999976158_3283_4339.399999976158_6344.399999976158_7490.600000023842_8360_9330.399999976158_10652.899999976158_11841.399999976158_14221.100000023842","2","","","","","",""
"html-button-response","265","2783739","0.0-8.0-2.0-0.1","1","0","g0e7bz8g19b8pdd","","5044.600000023842","","<p>Trial 2 of 36</p>","0","","","","","","","","","","","","","","KO","sounds/syllables/ko_SWS.wav","3300,5100,9600,11400","3","","","","","","","","","","","","","","","",""
"html-keyboard-response","266","2785545","0.0-8.0-2.0-1.1","1","0","g0e7bz8g19b8pdd","","1803.8000000715256","","","","80","","","","","","","","","","","","","KO","","3300,5100,9600,11400","3","","","","","","","","","","","","","","","",""
"audio-keyboard-response","267","2785847","0.0-8.0-2.0-2.2-0.2","1","0","g0e7bz8g19b8pdd","","null","","sounds/syllables/ko_SWS.wav","","null","","","","","","","","","","","","","","","","","","","","","","","","","","","","","","","",""
"html-keyboard-response","268","2786232","0.0-8.0-2.0-2.2-1.2","1","0","g0e7bz8g19b8pdd","","383.2999999523163","","<p>To replay the <u>TARGET SOUND</u>, press P.</p> When you are ready to begin, press SPACEBAR.","","80","","","","","","","","","","","","","","","","","","","","","","","","","","","","","","","",""
"audio-keyboard-response","269","2787036","0.0-8.0-2.0-2.3-0.3","1","0","g0e7bz8g19b8pdd","","null","","sounds/syllables/ko_SWS.wav","","null","","","","","","","","","","","","","","","","","","","","","","","","","","","","","","","",""
"html-keyboard-response","270","2787833","0.0-8.0-2.0-2.3-1.3","1","0","g0e7bz8g19b8pdd","","795","","<p>To replay the <u>TARGET SOUND</u>, press P.</p> When you are ready to begin, press SPACEBAR.","","32","","","","","","","","","","","","","","","","","","","","","","","","","","","","","","","",""
"audio-keyboard-response","271","2802786","0.0-8.0-2.0-3.1","1","0","g0e7bz8g19b8pdd","","704","","sounds/A/TD/KO_01_TD.mp3","","32","","","TD_SUMMARY","","","","","","","","","","KO","","3300,5100,9600,11400","3","3300","5100","9600","11400","1088.1000000238419","852.3999999761581","467.39999997615814","null","____________706.2000000476837_1756.2000000476837_2812.5_3677.600000023842_4388.100000023842_5203.300000071526_5952.399999976158_7035.700000047684_8832.600000023842_9671.899999976158_10067.399999976158_11049.100000023842_11581.300000071526_13151.600000023842_13891.200000047684","2","","","","","",""
"html-button-response","272","2803810","0.0-8.0-2.0-0.2","1","0","g0e7bz8g19b8pdd","","1020.6999999284744","","<p>Trial 3 of 36</p>","0","","","","","","","","","","","","","","RE","sounds/syllables/re_SWS.wav","2700,5400,8100,11700","1","","","","","","","","","","","","","","","",""
"html-keyboard-response","273","2805190","0.0-8.0-2.0-1.2","1","0","g0e7bz8g19b8pdd","","1378.3999999761581","","","","80","","","","","","","","","","","","","RE","","2700,5400,8100,11700","1","","","","","","","","","","","","","","","",""
"audio-keyboard-response","274","2805495","0.0-8.0-2.0-2.4-0.4","1","0","g0e7bz8g19b8pdd","","null","","sounds/syllables/re_SWS.wav","","null","","","","","","","","","","","","","","","","","","","","","","","","","","","","","","","",""
"html-keyboard-response","275","2805958","0.0-8.0-2.0-2.4-1.4","1","0","g0e7bz8g19b8pdd","","461.5","","<p>To replay the <u>TARGET SOUND</u>, press P.</p> When you are ready to begin, press SPACEBAR.","","80","","","","","","","","","","","","","","","","","","","","","","","","","","","","","","","",""
"audio-keyboard-response","276","2806764","0.0-8.0-2.0-2.5-0.5","1","0","g0e7bz8g19b8pdd","","null","","sounds/syllables/re_SWS.wav","","null","","","","","","","","","","","","","","","","","","","","","","","","","","","","","","","",""
"html-keyboard-response","277","2807057","0.0-8.0-2.0-2.5-1.5","1","0","g0e7bz8g19b8pdd","","291.2000000476837","","<p>To replay the <u>TARGET SOUND</u>, press P.</p> When you are ready to begin, press SPACEBAR.","","32","","","","","","","","","","","","","","","","","","","","","","","","","","","","","","","",""
"audio-keyboard-response","278","2822007","0.0-8.0-2.0-3.2","1","0","g0e7bz8g19b8pdd","","448","","sounds/A/TD/RE_01_TD.mp3","","32","","","TD_SUMMARY","","","","","","","","","","RE","","2700,5400,8100,11700","1","2700","5400","8100","11700","null","238.30000007152557","1093.8000000715256","435.5","___________________________449.5_1658.7000000476837_2753.600000023842_4399.5_5638.300000071526_7033.800000071526_8048.700000047684_9193.800000071526_10634.800000071526_11632.900000095367_12135.5_13266.700000047684_13926.700000047684","2","","","","","",""
"html-button-response","279","2823372","0.0-8.0-2.0-0.3","1","0","g0e7bz8g19b8pdd","","1361.3999999761581","","<p>Trial 4 of 36</p>","0","","","","","","","","","","","","","","RU","sounds/syllables/ru_SWS.wav","1800,6300,8100,10800","1","","","","","","","","","","","","","","","",""
"html-keyboard-response","280","2824465","0.0-8.0-2.0-1.3","1","0","g0e7bz8g19b8pdd","","1091.2999999523163","","","","80","","","","","","","","","","","","","RU","","1800,6300,8100,10800","1","","","","","","","","","","","","","","","",""
"audio-keyboard-response","281","2824769","0.0-8.0-2.0-2.6-0.6","1","0","g0e7bz8g19b8pdd","","null","","sounds/syllables/ru_SWS.wav","","null","","","","","","","","","","","","","","","","","","","","","","","","","","","","","","","",""
"html-keyboard-response","282","2825194","0.0-8.0-2.0-2.6-1.6","1","0","g0e7bz8g19b8pdd","","423.7999999523163","","<p>To replay the <u>TARGET SOUND</u>, press P.</p> When you are ready to begin, press SPACEBAR.","","32","","","","","","","","","","","","","","","","","","","","","","","","","","","","","","","",""
"audio-keyboard-response","283","2840145","0.0-8.0-2.0-3.3","1","0","g0e7bz8g19b8pdd","","736","","sounds/A/TD/RU_07_TD.mp3","","32","","","TD_SUMMARY","","","","","","","","","","RU","","1800,6300,8100,10800","1","1800","6300","8100","10800","1135.7000000476837","304.39999997615814","723.8000000715256","1008.2000000476837","________________________________________737.8999999761581_1878.2000000476837_2935.7000000476837_3748.399999976158_5228.800000071526_6604.399999976158_7637.5_8823.800000071526_9739.5_11051.600000023842_11485.399999976158_11808.200000047684_12537.600000023842_13313.700000047684_13566.399999976158_13832.399999976158","1","","","","","",""
"html-button-response","284","2842205","0.0-8.0-2.0-0.4","1","0","g0e7bz8g19b8pdd","","2056.8000000715256","","<p>Trial 5 of 36</p>","0","","","","","","","","","","","","","","SU","sounds/syllables/su_SWS.wav","2400,6000,10500,12300","3","","","","","","","","","","","","","","","",""
"html-keyboard-response","285","2842795","0.0-8.0-2.0-1.4","1","0","g0e7bz8g19b8pdd","","587.2999999523163","","","","80","","","","","","","","","","","","","SU","","2400,6000,10500,12300","3","","","","","","","","","","","","","","","",""
"audio-keyboard-response","286","2843099","0.0-8.0-2.0-2.7-0.7","1","0","g0e7bz8g19b8pdd","","null","","sounds/syllables/su_SWS.wav","","null","","","","","","","","","","","","","","","","","","","","","","","","","","","","","","","",""
"html-keyboard-response","287","2843617","0.0-8.0-2.0-2.7-1.7","1","0","g0e7bz8g19b8pdd","","514.5","","<p>To replay the <u>TARGET SOUND</u>, press P.</p> When you are ready to begin, press SPACEBAR.","","80","","","","","","","","","","","","","","","","","","","","","","","","","","","","","","","",""
"audio-keyboard-response","288","2844422","0.0-8.0-2.0-2.8-0.8","1","0","g0e7bz8g19b8pdd","","null","","sounds/syllables/su_SWS.wav","","null","","","","","","","","","","","","","","","","","","","","","","","","","","","","","","","",""
"html-keyboard-response","289","2844787","0.0-8.0-2.0-2.8-1.8","1","0","g0e7bz8g19b8pdd","","363.3000000715256","","<p>To replay the <u>TARGET SOUND</u>, press P.</p> When you are ready to begin, press SPACEBAR.","","32","","","","","","","","","","","","","","","","","","","","","","","","","","","","","","","",""
"audio-keyboard-response","290","2859734","0.0-8.0-2.0-3.4","1","0","g0e7bz8g19b8pdd","","1632","","sounds/A/TD/SU_07_TD.mp3","","32","","","TD_SUMMARY","","","","","","","","","","SU","","2400,6000,10500,12300","3","2400","6000","10500","12300","null","684.4000000953674","1123.8000000715256","1043.6000000238419","________________________________________________________1630.5_2143.2000000476837_3630.600000023842_4291.5_5336.200000047684_5924.100000023842_6684.400000095367_7241.700000047684_7764.700000047684_8267.200000047684_9036.900000095367_9628.900000095367_10320.300000071526_10914.700000047684_11623.800000071526_12243.300000071526_12744.200000047684_13343.600000023842_13893.700000047684","2","","","","","",""
"html-button-response","291","2860827","0.0-8.0-2.0-0.5","1","0","g0e7bz8g19b8pdd","","1089.5999999046326","","<p>Trial 6 of 36</p>","0","","","","","","","","","","","","","","TA","sounds/syllables/ta_SWS.wav","4500,6300,9900,11700","1","","","","","","","","","","","","","","","",""
"html-keyboard-response","292","2862727","0.0-8.0-2.0-1.5","1","0","g0e7bz8g19b8pdd","","1897.8000000715256","","","","80","","","","","","","","","","","","","TA","","4500,6300,9900,11700","1","","","","","","","","","","","","","","","",""
"audio-keyboard-response","293","2863030","0.0-8.0-2.0-2.9-0.9","1","0","g0e7bz8g19b8pdd","","null","","sounds/syllables/ta_SWS.wav","","null","","","","","","","","","","","","","","","","","","","","","","","","","","","","","","","",""
"html-keyboard-response","294","2863451","0.0-8.0-2.0-2.9-1.9","1","0","g0e7bz8g19b8pdd","","420.2999999523163","","<p>To replay the <u>TARGET SOUND</u>, press P.</p> When you are ready to begin, press SPACEBAR.","","80","","","","","","","","","","","","","","","","","","","","","","","","","","","","","","","",""
"audio-keyboard-response","295","2864256","0.0-8.0-2.0-2.10-0.10","1","0","g0e7bz8g19b8pdd","","null","","sounds/syllables/ta_SWS.wav","","null","","","","","","","","","","","","","","","","","","","","","","","","","","","","","","","",""
"html-keyboard-response","296","2864542","0.0-8.0-2.0-2.10-1.10","1","0","g0e7bz8g19b8pdd","","284.09999990463257","","<p>To replay the <u>TARGET SOUND</u>, press P.</p> When you are ready to begin, press SPACEBAR.","","32","","","","","","","","","","","","","","","","","","","","","","","","","","","","","","","",""
"audio-keyboard-response","297","2879489","0.0-8.0-2.0-3.5","1","0","g0e7bz8g19b8pdd","","955","","sounds/A/TD/TA_04_TD.mp3","","32","","","TD_SUMMARY","","","","","","","","","","TA","","4500,6300,9900,11700","1","4500","6300","9900","11700","356.39999997615814","460.2999999523163","407.2999999523163","null","___________________________________________________________________________954.0999999046326_1885.8999999761581_3606.399999976158_4856.399999976158_5792.199999928474_6760.299999952316_8117.899999976158_9146_10307.299999952316_11689.599999904633_12979.199999928474_14347.899999976158","2","","","","","",""
"html-button-response","298","2880688","0.0-8.0-2.0-0.6","1","0","g0e7bz8g19b8pdd","","1196.5","","<p>Trial 7 of 36</p>","0","","","","","","","","","","","","","","FE","sounds/syllables/fe_SWS.wav","900,2700,5400,12600","1","","","","","","","","","","","","","","","",""
"html-keyboard-response","299","2882016","0.0-8.0-2.0-1.6","1","0","g0e7bz8g19b8pdd","","1326.3999999761581","","","","80","","","","","","","","","","","","","FE","","900,2700,5400,12600","1","","","","","","","","","","","","","","","",""
"audio-keyboard-response","300","2882320","0.0-8.0-2.0-2.11-0.11","1","0","g0e7bz8g19b8pdd","","null","","sounds/syllables/fe_SWS.wav","","null","","","","","","","","","","","","","","","","","","","","","","","","","","","","","","","",""
"html-keyboard-response","301","2882809","0.0-8.0-2.0-2.11-1.11","1","0","g0e7bz8g19b8pdd","","487.7999999523163","","<p>To replay the <u>TARGET SOUND</u>, press P.</p> When you are ready to begin, press SPACEBAR.","","32","","","","","","","","","","","","","","","","","","","","","","","","","","","","","","","",""
"audio-keyboard-response","302","2897760","0.0-8.0-2.0-3.6","1","0","g0e7bz8g19b8pdd","","437","","sounds/A/TD/FE_02_TD.mp3","","32","","","TD_SUMMARY","","","","","","","","","","FE","","900,2700,5400,12600","1","900","2700","5400","12600","996.7999999523163","705.6999999284744","1102.5","1111.3999999761581","_______________________________________________________________________________________441.39999997615814_1267.5_1896.7999999523163_2299.1999999284744_2847.6999999284744_3405.6999999284744_4001.399999976158_4891.699999928474_5535.099999904633_6502.5_7369.799999952316_8194.5_8829.899999976158_9705.799999952316_10532.599999904633_11491.399999976158_12889.599999904633_13711.399999976158","1","","","","","",""
"html-button-response","303","2899697","0.0-8.0-2.0-0.7","1","0","g0e7bz8g19b8pdd","","1932.6000000238419","","<p>Trial 8 of 36</p>","0","","","","","","","","","","","","","","GE","sounds/syllables/ge_SWS.wav","3000,4800,7500,10200","2","","","","","","","","","","","","","","","",""
"html-keyboard-response","304","2900522","0.0-8.0-2.0-1.7","1","0","g0e7bz8g19b8pdd","","823.9000000953674","","","","80","","","","","","","","","","","","","GE","","3000,4800,7500,10200","2","","","","","","","","","","","","","","","",""
"audio-keyboard-response","305","2900826","0.0-8.0-2.0-2.12-0.12","1","0","g0e7bz8g19b8pdd","","null","","sounds/syllables/ge_SWS.wav","","null","","","","","","","","","","","","","","","","","","","","","","","","","","","","","","","",""
"html-keyboard-response","306","2901624","0.0-8.0-2.0-2.12-1.12","1","0","g0e7bz8g19b8pdd","","796.3999999761581","","<p>To replay the <u>TARGET SOUND</u>, press P.</p> When you are ready to begin, press SPACEBAR.","","32","","","","","","","","","","","","","","","","","","","","","","","","","","","","","","","",""
"audio-keyboard-response","307","2916571","0.0-8.0-2.0-3.7","1","0","g0e7bz8g19b8pdd","","1019","","sounds/A/TD/GE_08_TD.mp3","","32","","","TD_SUMMARY","","","","","","","","","","GE","","3000,4800,7500,10200","2","3000","4800","7500","10200","1040.7999999523163","453.6999999284744","514.5","1038.7999999523163","_________________________________________________________________________________________________________1018.0999999046326_1676.1999999284744_2242.6999999284744_2882.5999999046326_3467.1999999284744_4040.7999999523163_4668.5_5253.699999928474_6422_7308_8014.5_8738.799999952316_9427.199999928474_10024.899999976158_10631.299999952316_11238.799999952316_12395_13026.299999952316_13619.799999952316_14355.799999952316","1","","","","","",""
"html-button-response","308","2919940","0.0-8.0-2.0-0.8","1","0","g0e7bz8g19b8pdd","","3366.2000000476837","","<p>Trial 9 of 36</p>","0","","","","","","","","","","","","","","KO","sounds/syllables/ko_SWS.wav","3300,5100,8700,13200","3","","","","","","","","","","","","","","","",""
"html-keyboard-response","309","2920681","0.0-8.0-2.0-1.8","1","0","g0e7bz8g19b8pdd","","740.1000000238419","","","","80","","","","","","","","","","","","","KO","","3300,5100,8700,13200","3","","","","","","","","","","","","","","","",""
"audio-keyboard-response","310","2920986","0.0-8.0-2.0-2.13-0.13","1","0","g0e7bz8g19b8pdd","","null","","sounds/syllables/ko_SWS.wav","","null","","","","","","","","","","","","","","","","","","","","","","","","","","","","","","","",""
"html-keyboard-response","311","2921286","0.0-8.0-2.0-2.13-1.13","1","0","g0e7bz8g19b8pdd","","299","","<p>To replay the <u>TARGET SOUND</u>, press P.</p> When you are ready to begin, press SPACEBAR.","","32","","","","","","","","","","","","","","","","","","","","","","","","","","","","","","","",""
"audio-keyboard-response","312","2936234","0.0-8.0-2.0-3.8","1","0","g0e7bz8g19b8pdd","","1525","","sounds/A/TD/KO_09_TD.mp3","","32","","","TD_SUMMARY","","","","","","","","","","KO","","3300,5100,8700,13200","3","3300","5100","8700","13200","null","678.3999999761581","772.1000000238419","417.7999999523163","_____________________________________________________________________________________________________________________________1525.6999999284744_2493.6999999284744_3315.7999999523163_4570.199999928474_5778.399999976158_6718.799999952316_8031.899999976158_9472.100000023842_10956.5_12369.600000023842_13617.799999952316","1","","","","","",""
"html-button-response","313","2937570","0.0-8.0-2.0-0.9","1","0","g0e7bz8g19b8pdd","","1331.7999999523163","","<p>Trial 10 of 36</p>","0","","","","","","","","","","","","","","GE","sounds/syllables/ge_SWS.wav","3000,7500,9300,11100","2","","","","","","","","","","","","","","","",""
"html-keyboard-response","314","2938329","0.0-8.0-2.0-1.9","1","0","g0e7bz8g19b8pdd","","757","","","","80","","","","","","","","","","","","","GE","","3000,7500,9300,11100","2","","","","","","","","","","","","","","","",""
"audio-keyboard-response","315","2938634","0.0-8.0-2.0-2.14-0.14","1","0","g0e7bz8g19b8pdd","","null","","sounds/syllables/ge_SWS.wav","","null","","","","","","","","","","","","","","","","","","","","","","","","","","","","","","","",""
"html-keyboard-response","316","2938824","0.0-8.0-2.0-2.14-1.14","1","0","g0e7bz8g19b8pdd","","188.29999995231628","","<p>To replay the <u>TARGET SOUND</u>, press P.</p> When you are ready to begin, press SPACEBAR.","","32","","","","","","","","","","","","","","","","","","","","","","","","","","","","","","","",""
"audio-keyboard-response","317","2953775","0.0-8.0-2.0-3.9","1","0","g0e7bz8g19b8pdd","","187","","sounds/A/TD/GE_03_TD.mp3","","32","","","TD_SUMMARY","","","","","","","","","","GE","","3000,7500,9300,11100","2","3000","7500","9300","11100","null","1065.5","249.20000004768372","763.8999999761581","________________________________________________________________________________________________________________________________________183.70000004768372_1402.2999999523163_7291.200000047684_8565.5_9549.200000047684_10682.5_11863.899999976158_12881.600000023842_13640.100000023842","1","","","","","",""
"html-button-response","318","2954898","0.0-8.0-2.0-0.10","1","0","g0e7bz8g19b8pdd","","1118.7999999523163","","<p>Trial 11 of 36</p>","0","","","","","","","","","","","","","","TI","sounds/syllables/ti_SWS.wav","2100,5700,9300,11100","2","","","","","","","","","","","","","","","",""
"html-keyboard-response","319","2955597","0.0-8.0-2.0-1.10","1","0","g0e7bz8g19b8pdd","","697.2000000476837","","","","80","","","","","","","","","","","","","TI","","2100,5700,9300,11100","2","","","","","","","","","","","","","","","",""
"audio-keyboard-response","320","2955898","0.0-8.0-2.0-2.15-0.15","1","0","g0e7bz8g19b8pdd","","null","","sounds/syllables/ti_SWS.wav","","null","","","","","","","","","","","","","","","","","","","","","","","","","","","","","","","",""
"html-keyboard-response","321","2956506","0.0-8.0-2.0-2.15-1.15","1","0","g0e7bz8g19b8pdd","","606.6000000238419","","<p>To replay the <u>TARGET SOUND</u>, press P.</p> When you are ready to begin, press SPACEBAR.","","32","","","","","","","","","","","","","","","","","","","","","","","","","","","","","","","",""
"audio-keyboard-response","322","2971455","0.0-8.0-2.0-3.10","1","0","g0e7bz8g19b8pdd","","976","","sounds/A/TD/TI_04_TD.mp3","","32","","","TD_SUMMARY","","","","","","","","","","TI","","2100,5700,9300,11100","2","2100","5700","9300","11100","428","821.7999999523163","1097","608.2999999523163","_________________________________________________________________________________________________________________________________________________972_2528_4929.100000023842_6521.799999952316_7788.399999976158_9019.100000023842_10397_11708.299999952316_12975.899999976158_14134.299999952316","1","","","","","",""
"html-button-response","323","2972591","0.0-8.0-2.0-0.11","1","0","g0e7bz8g19b8pdd","","1132.2000000476837","","<p>Trial 12 of 36</p>","0","","","","","","","","","","","","","","TI","sounds/syllables/ti_SWS.wav","3000,5700,7500,12000","2","","","","","","","","","","","","","","","",""
"html-keyboard-response","324","2973553","0.0-8.0-2.0-1.11","1","0","g0e7bz8g19b8pdd","","960.1000000238419","","","","80","","","","","","","","","","","","","TI","","3000,5700,7500,12000","2","","","","","","","","","","","","","","","",""
"audio-keyboard-response","325","2973855","0.0-8.0-2.0-2.16-0.16","1","0","g0e7bz8g19b8pdd","","null","","sounds/syllables/ti_SWS.wav","","null","","","","","","","","","","","","","","","","","","","","","","","","","","","","","","","",""
"html-keyboard-response","326","2974244","0.0-8.0-2.0-2.16-1.16","1","0","g0e7bz8g19b8pdd","","387.5","","<p>To replay the <u>TARGET SOUND</u>, press P.</p> When you are ready to begin, press SPACEBAR.","","32","","","","","","","","","","","","","","","","","","","","","","","","","","","","","","","",""
"audio-keyboard-response","327","2989194","0.0-8.0-2.0-3.11","1","0","g0e7bz8g19b8pdd","","3744","","sounds/A/TD/TI_09_TD.mp3","","32","","","TD_SUMMARY","","","","","","","","","","TI","","3000,5700,7500,12000","2","3000","5700","7500","12000","748.3000000715256","1140.2000000476837","789.1000000238419","762.2000000476837","___________________________________________________________________________________________________________________________________________________________3748.3000000715256_4651.200000047684_5857.100000023842_6840.200000047684_7635.800000071526_8289.100000023842_9134_9797.900000095367_10387.300000071526_11161.100000023842_11878.900000095367_12762.200000047684_13655.5","1","","","","","",""
"html-button-response","328","2990711","0.0-8.0-2.0-0.12","1","0","g0e7bz8g19b8pdd","","1513.2000000476837","","<p>Trial 13 of 36</p>","0","","","","","","","","","","","","","","RU","sounds/syllables/ru_SWS.wav","2700,5400,8100,10800","1","","","","","","","","","","","","","","","",""
