"trial_type","trial_index","time_elapsed","internal_node_id","counterbalance","lang_instruct","ParticipantID","view_history","rt","url","stimulus","button_pressed","key_press","correctRESP","correct","designation","location","correctanswer","responses","sentence","keywords","typed_resp","keyword1_acc","keyword2_acc","keyword3_acc","keyword4_acc","keyword5_acc","total_acc","prop_acc","timeouts","pause_rt01","pause_rt02","train_file","numKeyPress","sound","fam_type","SYLLABLE","EXEMPLAR","TD_LOCS","TD_TYPE","TDLOC_01","TDLOC_02","TDLOC_03","TDLOC_04","TD_RT_01","TD_RT_02","TD_RT_03","TD_RT_04","TD_SUBJ_RTs","number_of_plays","slider_start","response","question_order","syllable","syllable_type"
"pavlovia","0","5","0.0-0.0","1","1","wa4yhfgsk768xe4","","","","","","","","","","","","","","","","","","","","","","","","","","","","","","","","","","","","","","","","","","","","","","","",""
"instructions","1","14753","0.0-1.0","1","1","wa4yhfgsk768xe4","[{""page_index"":0,""viewing_time"":3738},{""page_index"":1,""viewing_time"":11003.300000011921}]","14747.399999976158","","","","","","","","","","","","","","","","","","","","","","","","","","","","","","","","","","","","","","","","","","","","","",""
"external-html","2","24108","0.0-2.0","1","1","wa4yhfgsk768xe4","","8629.200000047684","consent/consent.html","","","","","","","","","","","","","","","","","","","","","","","","","","","","","","","","","","","","","","","","","","","","",""
"html-button-response","3","56040","0.0-3.0-0.0-0.0","1","1","wa4yhfgsk768xe4","","31926","","<p>Welcome to the study. You will first complete a short volume calibration and headphone check.</p><p>Please make sure you are in a quiet listening environment, that you are wearing headphones, and that your computer's volume is turned on.<p></p>","0","","","","","","","","","","","","","","","","","","","","","","","","","","","","","","","","","","","","","","","","","","",""
"html-button-response","4","61353","0.0-3.0-0.0-1.0","1","1","wa4yhfgsk768xe4","","5058.800000011921","","<p>The volume calibration will be first.</p><p>You will hear a thirty-second noise. Please adjust your computer's volume so that this noise is being presented at a comfortable level.<p></p>","0","","","","","","","","","","","","","","","","","","","","","","","","","","","","","","","","","","","","","","","","","","",""
"audio-button-response","5","66564","0.0-3.0-0.0-2.0","1","1","wa4yhfgsk768xe4","","4763","","audCalib/volumetest.mp3","0","","","","","","","","","","","","","","","","","","","","","","","","","","","","","","","","","","","","","","","","","","",""
"html-button-response","6","73128","0.0-3.0-1.0-0.0","1","1","wa4yhfgsk768xe4","","6563.199999988079","","<p>You will now complete a short headphone check.</p><p>On each trial, you will hear three tones. One of these tones will be quieter than the others. Your task is to identify whether the quiet tone occured first, second, or third.</p><p>There are six trials in total.<p></p>","0","","","","","","","","","","","","","","","","","","","","","","","","","","","","","","","","","","","","","","","","","","",""
"html-keyboard-response","7","73883","0.0-3.0-1.0-1.0-0.0","1","1","wa4yhfgsk768xe4","","null","","<div style=""font-size:60px;"">+</div>","","null","","","","","","","","","","","","","","","","","","","","","","","","","","","","","","","","","","","","","","","","","",""
"audio-button-response","8","78862","0.0-3.0-1.0-1.0-1.0","1","1","wa4yhfgsk768xe4","","4976","","audCalib/t2_1.mp3","1","","1","1","headphone-test","","","","","","","","","","","","","","","","","","","","","","","","","","","","","","","","","","","","","","",""
"html-keyboard-response","9","79618","0.0-3.0-1.0-1.0-0.1","1","1","wa4yhfgsk768xe4","","null","","<div style=""font-size:60px;"">+</div>","","null","","","","","","","","","","","","","","","","","","","","","","","","","","","","","","","","","","","","","","","","","",""
"audio-button-response","10","84400","0.0-3.0-1.0-1.0-1.1","1","1","wa4yhfgsk768xe4","","4779","","audCalib/t1_1.mp3","0","","0","1","headphone-test","","","","","","","","","","","","","","","","","","","","","","","","","","","","","","","","","","","","","","",""
"html-keyboard-response","11","85152","0.0-3.0-1.0-1.0-0.2","1","1","wa4yhfgsk768xe4","","null","","<div style=""font-size:60px;"">+</div>","","null","","","","","","","","","","","","","","","","","","","","","","","","","","","","","","","","","","","","","","","","","",""
"audio-button-response","12","90938","0.0-3.0-1.0-1.0-1.2","1","1","wa4yhfgsk768xe4","","5781","","audCalib/t1_2.mp3","1","","0","0","headphone-test","","","","","","","","","","","","","","","","","","","","","","","","","","","","","","","","","","","","","","",""
"html-keyboard-response","13","91694","0.0-3.0-1.0-1.0-0.3","1","1","wa4yhfgsk768xe4","","null","","<div style=""font-size:60px;"">+</div>","","null","","","","","","","","","","","","","","","","","","","","","","","","","","","","","","","","","","","","","","","","","",""
"audio-button-response","14","96376","0.0-3.0-1.0-1.0-1.3","1","1","wa4yhfgsk768xe4","","4683","","audCalib/t3_1.mp3","2","","2","1","headphone-test","","","","","","","","","","","","","","","","","","","","","","","","","","","","","","","","","","","","","","",""
"html-keyboard-response","15","97133","0.0-3.0-1.0-1.0-0.4","1","1","wa4yhfgsk768xe4","","null","","<div style=""font-size:60px;"">+</div>","","null","","","","","","","","","","","","","","","","","","","","","","","","","","","","","","","","","","","","","","","","","",""
"audio-button-response","16","101661","0.0-3.0-1.0-1.0-1.4","1","1","wa4yhfgsk768xe4","","4528","","audCalib/t3_2.mp3","2","","2","1","headphone-test","","","","","","","","","","","","","","","","","","","","","","","","","","","","","","","","","","","","","","",""
"html-keyboard-response","17","102418","0.0-3.0-1.0-1.0-0.5","1","1","wa4yhfgsk768xe4","","null","","<div style=""font-size:60px;"">+</div>","","null","","","","","","","","","","","","","","","","","","","","","","","","","","","","","","","","","","","","","","","","","",""
"audio-button-response","18","106368","0.0-3.0-1.0-1.0-1.5","1","1","wa4yhfgsk768xe4","","3947","","audCalib/t2_2.mp3","1","","1","1","headphone-test","","","","","","","","","","","","","","","","","","","","","","","","","","","","","","","","","","","","","","",""
"html-button-response","19","108038","0.0-3.0-2.0","1","1","wa4yhfgsk768xe4","","1417.699999988079","","<p>The volume calibration and headphone check are now complete.</p>","0","","","","","","","","","","","","","","","","","","","","","","","","","","","","","","","","","","","","","","","","","","",""
"instructions","20","124911","0.0-4.0-0.0","1","1","wa4yhfgsk768xe4","[{""page_index"":0,""viewing_time"":1420.5},{""page_index"":1,""viewing_time"":13932.699999988079},{""page_index"":2,""viewing_time"":1518}]","16871.600000023842","","","","","","","","","","","","","","","","","","","","","","","","","","","","","","","","","","","","","","","","","","","","","",""
"audio-keyboard-response","21","125213","0.0-4.0-1.0-0.0","1","1","wa4yhfgsk768xe4","","null","","sounds/induction/right/su_SWS.wav","","null","","","","","","","","","","","","","","","","","","","","","","","","","","","","","","","","","","","","","","","","","",""
"html-button-response","22","127609","0.0-4.0-1.0-1.0","1","1","wa4yhfgsk768xe4","","2394.900000035763","","What sound did you hear?","0","","","0","INDUCTION-JUDGMENT","right","1","","","","","","","","","","","","","","","","","","","","","","","","","","","","","","","","","","","","",""
"html-keyboard-response","23","128614","0.0-4.0-1.0-2.0","1","1","wa4yhfgsk768xe4","","null","","<p style=""color:red;""><b>Incorrect!</b></p>","","null","","","","","","","","","","","","","","","","","","","","","","","","","","","","","","","","","","","","","","","","","",""
"audio-keyboard-response","24","129416","0.0-4.0-1.0-0.1","1","1","wa4yhfgsk768xe4","","null","","sounds/induction/right/ru_SWS.wav","","null","","","","","","","","","","","","","","","","","","","","","","","","","","","","","","","","","","","","","","","","","",""
"html-button-response","25","131160","0.0-4.0-1.0-1.1","1","1","wa4yhfgsk768xe4","","1743.2999999523163","","What sound did you hear?","1","","","1","INDUCTION-JUDGMENT","right","1","","","","","","","","","","","","","","","","","","","","","","","","","","","","","","","","","","","","",""
"html-keyboard-response","26","132162","0.0-4.0-1.0-2.1","1","1","wa4yhfgsk768xe4","","null","","<p style=""color:green;""><b>Correct!</b></p>","","null","","","","","","","","","","","","","","","","","","","","","","","","","","","","","","","","","","","","","","","","","",""
"audio-keyboard-response","27","132968","0.0-4.0-1.0-0.2","1","1","wa4yhfgsk768xe4","","null","","sounds/induction/left/ru_SWS.wav","","null","","","","","","","","","","","","","","","","","","","","","","","","","","","","","","","","","","","","","","","","","",""
"html-button-response","28","134043","0.0-4.0-1.0-1.2","1","1","wa4yhfgsk768xe4","","1074.199999988079","","What sound did you hear?","0","","","1","INDUCTION-JUDGMENT","left","0","","","","","","","","","","","","","","","","","","","","","","","","","","","","","","","","","","","","",""
"html-keyboard-response","29","135048","0.0-4.0-1.0-2.2","1","1","wa4yhfgsk768xe4","","null","","<p style=""color:green;""><b>Correct!</b></p>","","null","","","","","","","","","","","","","","","","","","","","","","","","","","","","","","","","","","","","","","","","","",""
"audio-keyboard-response","30","135853","0.0-4.0-1.0-0.3","1","1","wa4yhfgsk768xe4","","null","","sounds/induction/left/ru_SWS.wav","","null","","","","","","","","","","","","","","","","","","","","","","","","","","","","","","","","","","","","","","","","","",""
"html-button-response","31","136444","0.0-4.0-1.0-1.3","1","1","wa4yhfgsk768xe4","","590.2000000476837","","What sound did you hear?","0","","","1","INDUCTION-JUDGMENT","left","0","","","","","","","","","","","","","","","","","","","","","","","","","","","","","","","","","","","","",""
"html-keyboard-response","32","137450","0.0-4.0-1.0-2.3","1","1","wa4yhfgsk768xe4","","null","","<p style=""color:green;""><b>Correct!</b></p>","","null","","","","","","","","","","","","","","","","","","","","","","","","","","","","","","","","","","","","","","","","","",""
"audio-keyboard-response","33","138259","0.0-4.0-1.0-0.4","1","1","wa4yhfgsk768xe4","","null","","sounds/induction/left/fe_SWS.wav","","null","","","","","","","","","","","","","","","","","","","","","","","","","","","","","","","","","","","","","","","","","",""
"html-button-response","34","139503","0.0-4.0-1.0-1.4","1","1","wa4yhfgsk768xe4","","1243.6000000238419","","What sound did you hear?","1","","","1","INDUCTION-JUDGMENT","left","1","","","","","","","","","","","","","","","","","","","","","","","","","","","","","","","","","","","","",""
"html-keyboard-response","35","140509","0.0-4.0-1.0-2.4","1","1","wa4yhfgsk768xe4","","null","","<p style=""color:green;""><b>Correct!</b></p>","","null","","","","","","","","","","","","","","","","","","","","","","","","","","","","","","","","","","","","","","","","","",""
"audio-keyboard-response","36","141315","0.0-4.0-1.0-0.5","1","1","wa4yhfgsk768xe4","","null","","sounds/induction/left/re_SWS.wav","","null","","","","","","","","","","","","","","","","","","","","","","","","","","","","","","","","","","","","","","","","","",""
"html-button-response","37","143961","0.0-4.0-1.0-1.5","1","1","wa4yhfgsk768xe4","","2645.699999988079","","What sound did you hear?","1","","","0","INDUCTION-JUDGMENT","left","0","","","","","","","","","","","","","","","","","","","","","","","","","","","","","","","","","","","","",""
"html-keyboard-response","38","144966","0.0-4.0-1.0-2.5","1","1","wa4yhfgsk768xe4","","null","","<p style=""color:red;""><b>Incorrect!</b></p>","","null","","","","","","","","","","","","","","","","","","","","","","","","","","","","","","","","","","","","","","","","","",""
"audio-keyboard-response","39","145768","0.0-4.0-1.0-0.6","1","1","wa4yhfgsk768xe4","","null","","sounds/induction/right/re_SWS.wav","","null","","","","","","","","","","","","","","","","","","","","","","","","","","","","","","","","","","","","","","","","","",""
"html-button-response","40","147075","0.0-4.0-1.0-1.6","1","1","wa4yhfgsk768xe4","","1306.199999988079","","What sound did you hear?","0","","","0","INDUCTION-JUDGMENT","right","1","","","","","","","","","","","","","","","","","","","","","","","","","","","","","","","","","","","","",""
"html-keyboard-response","41","148079","0.0-4.0-1.0-2.6","1","1","wa4yhfgsk768xe4","","null","","<p style=""color:red;""><b>Incorrect!</b></p>","","null","","","","","","","","","","","","","","","","","","","","","","","","","","","","","","","","","","","","","","","","","",""
"audio-keyboard-response","42","148884","0.0-4.0-1.0-0.7","1","1","wa4yhfgsk768xe4","","null","","sounds/induction/left/me_SWS.wav","","null","","","","","","","","","","","","","","","","","","","","","","","","","","","","","","","","","","","","","","","","","",""
"html-button-response","43","151778","0.0-4.0-1.0-1.7","1","1","wa4yhfgsk768xe4","","2893.5","","What sound did you hear?","1","","","1","INDUCTION-JUDGMENT","left","1","","","","","","","","","","","","","","","","","","","","","","","","","","","","","","","","","","","","",""
"html-keyboard-response","44","152782","0.0-4.0-1.0-2.7","1","1","wa4yhfgsk768xe4","","null","","<p style=""color:green;""><b>Correct!</b></p>","","null","","","","","","","","","","","","","","","","","","","","","","","","","","","","","","","","","","","","","","","","","",""
"audio-keyboard-response","45","153592","0.0-4.0-1.0-0.8","1","1","wa4yhfgsk768xe4","","null","","sounds/induction/right/pu_SWS.wav","","null","","","","","","","","","","","","","","","","","","","","","","","","","","","","","","","","","","","","","","","","","",""
"html-button-response","46","154674","0.0-4.0-1.0-1.8","1","1","wa4yhfgsk768xe4","","1081.1000000238419","","What sound did you hear?","1","","","1","INDUCTION-JUDGMENT","right","1","","","","","","","","","","","","","","","","","","","","","","","","","","","","","","","","","","","","",""
"html-keyboard-response","47","155678","0.0-4.0-1.0-2.8","1","1","wa4yhfgsk768xe4","","null","","<p style=""color:green;""><b>Correct!</b></p>","","null","","","","","","","","","","","","","","","","","","","","","","","","","","","","","","","","","","","","","","","","","",""
"audio-keyboard-response","48","156478","0.0-4.0-1.0-0.9","1","1","wa4yhfgsk768xe4","","null","","sounds/induction/right/ni_SWS.wav","","null","","","","","","","","","","","","","","","","","","","","","","","","","","","","","","","","","","","","","","","","","",""
"html-button-response","49","159026","0.0-4.0-1.0-1.9","1","1","wa4yhfgsk768xe4","","2547.2999999523163","","What sound did you hear?","1","","","0","INDUCTION-JUDGMENT","right","0","","","","","","","","","","","","","","","","","","","","","","","","","","","","","","","","","","","","",""
"html-keyboard-response","50","160030","0.0-4.0-1.0-2.9","1","1","wa4yhfgsk768xe4","","null","","<p style=""color:red;""><b>Incorrect!</b></p>","","null","","","","","","","","","","","","","","","","","","","","","","","","","","","","","","","","","","","","","","","","","",""
"audio-keyboard-response","51","160835","0.0-4.0-1.0-0.10","1","1","wa4yhfgsk768xe4","","null","","sounds/induction/right/fe_SWS.wav","","null","","","","","","","","","","","","","","","","","","","","","","","","","","","","","","","","","","","","","","","","","",""
"html-button-response","52","162213","0.0-4.0-1.0-1.10","1","1","wa4yhfgsk768xe4","","1376.5999999642372","","What sound did you hear?","0","","","1","INDUCTION-JUDGMENT","right","0","","","","","","","","","","","","","","","","","","","","","","","","","","","","","","","","","","","","",""
"html-keyboard-response","53","163219","0.0-4.0-1.0-2.10","1","1","wa4yhfgsk768xe4","","null","","<p style=""color:green;""><b>Correct!</b></p>","","null","","","","","","","","","","","","","","","","","","","","","","","","","","","","","","","","","","","","","","","","","",""
"audio-keyboard-response","54","164025","0.0-4.0-1.0-0.11","1","1","wa4yhfgsk768xe4","","null","","sounds/induction/left/ge_SWS.wav","","null","","","","","","","","","","","","","","","","","","","","","","","","","","","","","","","","","","","","","","","","","",""
"html-button-response","55","165503","0.0-4.0-1.0-1.11","1","1","wa4yhfgsk768xe4","","1476.5","","What sound did you hear?","0","","","0","INDUCTION-JUDGMENT","left","1","","","","","","","","","","","","","","","","","","","","","","","","","","","","","","","","","","","","",""
"html-keyboard-response","56","166504","0.0-4.0-1.0-2.11","1","1","wa4yhfgsk768xe4","","null","","<p style=""color:red;""><b>Incorrect!</b></p>","","null","","","","","","","","","","","","","","","","","","","","","","","","","","","","","","","","","","","","","","","","","",""
"audio-keyboard-response","57","167310","0.0-4.0-1.0-0.12","1","1","wa4yhfgsk768xe4","","null","","sounds/induction/left/ni_SWS.wav","","null","","","","","","","","","","","","","","","","","","","","","","","","","","","","","","","","","","","","","","","","","",""
"html-button-response","58","168803","0.0-4.0-1.0-1.12","1","1","wa4yhfgsk768xe4","","1491.5","","What sound did you hear?","1","","","1","INDUCTION-JUDGMENT","left","1","","","","","","","","","","","","","","","","","","","","","","","","","","","","","","","","","","","","",""
"html-keyboard-response","59","169805","0.0-4.0-1.0-2.12","1","1","wa4yhfgsk768xe4","","null","","<p style=""color:green;""><b>Correct!</b></p>","","null","","","","","","","","","","","","","","","","","","","","","","","","","","","","","","","","","","","","","","","","","",""
"audio-keyboard-response","60","170606","0.0-4.0-1.0-0.13","1","1","wa4yhfgsk768xe4","","null","","sounds/induction/left/ko_SWS.wav","","null","","","","","","","","","","","","","","","","","","","","","","","","","","","","","","","","","","","","","","","","","",""
"html-button-response","61","172462","0.0-4.0-1.0-1.13","1","1","wa4yhfgsk768xe4","","1855.1000000238419","","What sound did you hear?","1","","","1","INDUCTION-JUDGMENT","left","1","","","","","","","","","","","","","","","","","","","","","","","","","","","","","","","","","","","","",""
"html-keyboard-response","62","173467","0.0-4.0-1.0-2.13","1","1","wa4yhfgsk768xe4","","null","","<p style=""color:green;""><b>Correct!</b></p>","","null","","","","","","","","","","","","","","","","","","","","","","","","","","","","","","","","","","","","","","","","","",""
"audio-keyboard-response","63","174271","0.0-4.0-1.0-0.14","1","1","wa4yhfgsk768xe4","","null","","sounds/induction/left/ta_SWS.wav","","null","","","","","","","","","","","","","","","","","","","","","","","","","","","","","","","","","","","","","","","","","",""
"html-button-response","64","175651","0.0-4.0-1.0-1.14","1","1","wa4yhfgsk768xe4","","1378.5","","What sound did you hear?","0","","","1","INDUCTION-JUDGMENT","left","0","","","","","","","","","","","","","","","","","","","","","","","","","","","","","","","","","","","","",""
"html-keyboard-response","65","176653","0.0-4.0-1.0-2.14","1","1","wa4yhfgsk768xe4","","null","","<p style=""color:green;""><b>Correct!</b></p>","","null","","","","","","","","","","","","","","","","","","","","","","","","","","","","","","","","","","","","","","","","","",""
"audio-keyboard-response","66","177454","0.0-4.0-1.0-0.15","1","1","wa4yhfgsk768xe4","","null","","sounds/induction/left/fe_SWS.wav","","null","","","","","","","","","","","","","","","","","","","","","","","","","","","","","","","","","","","","","","","","","",""
"html-button-response","67","178486","0.0-4.0-1.0-1.15","1","1","wa4yhfgsk768xe4","","1029.8999999761581","","What sound did you hear?","1","","","1","INDUCTION-JUDGMENT","left","1","","","","","","","","","","","","","","","","","","","","","","","","","","","","","","","","","","","","",""
"html-keyboard-response","68","179491","0.0-4.0-1.0-2.15","1","1","wa4yhfgsk768xe4","","null","","<p style=""color:green;""><b>Correct!</b></p>","","null","","","","","","","","","","","","","","","","","","","","","","","","","","","","","","","","","","","","","","","","","",""
"audio-keyboard-response","69","180292","0.0-4.0-1.0-0.16","1","1","wa4yhfgsk768xe4","","null","","sounds/induction/right/fu_SWS.wav","","null","","","","","","","","","","","","","","","","","","","","","","","","","","","","","","","","","","","","","","","","","",""
"html-button-response","70","182405","0.0-4.0-1.0-1.16","1","1","wa4yhfgsk768xe4","","2110","","What sound did you hear?","0","","","1","INDUCTION-JUDGMENT","right","0","","","","","","","","","","","","","","","","","","","","","","","","","","","","","","","","","","","","",""
"html-keyboard-response","71","183409","0.0-4.0-1.0-2.16","1","1","wa4yhfgsk768xe4","","null","","<p style=""color:green;""><b>Correct!</b></p>","","null","","","","","","","","","","","","","","","","","","","","","","","","","","","","","","","","","","","","","","","","","",""
"audio-keyboard-response","72","184212","0.0-4.0-1.0-0.17","1","1","wa4yhfgsk768xe4","","null","","sounds/induction/left/me_SWS.wav","","null","","","","","","","","","","","","","","","","","","","","","","","","","","","","","","","","","","","","","","","","","",""
"html-button-response","73","185240","0.0-4.0-1.0-1.17","1","1","wa4yhfgsk768xe4","","1027.699999988079","","What sound did you hear?","1","","","1","INDUCTION-JUDGMENT","left","1","","","","","","","","","","","","","","","","","","","","","","","","","","","","","","","","","","","","",""
"html-keyboard-response","74","186243","0.0-4.0-1.0-2.17","1","1","wa4yhfgsk768xe4","","null","","<p style=""color:green;""><b>Correct!</b></p>","","null","","","","","","","","","","","","","","","","","","","","","","","","","","","","","","","","","","","","","","","","","",""
"audio-keyboard-response","75","187049","0.0-4.0-1.0-0.18","1","1","wa4yhfgsk768xe4","","null","","sounds/induction/left/pu_SWS.wav","","null","","","","","","","","","","","","","","","","","","","","","","","","","","","","","","","","","","","","","","","","","",""
"html-button-response","76","188099","0.0-4.0-1.0-1.18","1","1","wa4yhfgsk768xe4","","1049.3999999761581","","What sound did you hear?","0","","","1","INDUCTION-JUDGMENT","left","0","","","","","","","","","","","","","","","","","","","","","","","","","","","","","","","","","","","","",""
"html-keyboard-response","77","189103","0.0-4.0-1.0-2.18","1","1","wa4yhfgsk768xe4","","null","","<p style=""color:green;""><b>Correct!</b></p>","","null","","","","","","","","","","","","","","","","","","","","","","","","","","","","","","","","","","","","","","","","","",""
"audio-keyboard-response","78","189903","0.0-4.0-1.0-0.19","1","1","wa4yhfgsk768xe4","","null","","sounds/induction/right/ni_SWS.wav","","null","","","","","","","","","","","","","","","","","","","","","","","","","","","","","","","","","","","","","","","","","",""
"html-button-response","79","191745","0.0-4.0-1.0-1.19","1","1","wa4yhfgsk768xe4","","1841","","What sound did you hear?","0","","","1","INDUCTION-JUDGMENT","right","0","","","","","","","","","","","","","","","","","","","","","","","","","","","","","","","","","","","","",""
"html-keyboard-response","80","192746","0.0-4.0-1.0-2.19","1","1","wa4yhfgsk768xe4","","null","","<p style=""color:green;""><b>Correct!</b></p>","","null","","","","","","","","","","","","","","","","","","","","","","","","","","","","","","","","","","","","","","","","","",""
"audio-keyboard-response","81","193551","0.0-4.0-1.0-0.20","1","1","wa4yhfgsk768xe4","","null","","sounds/induction/left/ta_SWS.wav","","null","","","","","","","","","","","","","","","","","","","","","","","","","","","","","","","","","","","","","","","","","",""
"html-button-response","82","195449","0.0-4.0-1.0-1.20","1","1","wa4yhfgsk768xe4","","1897.199999988079","","What sound did you hear?","0","","","1","INDUCTION-JUDGMENT","left","0","","","","","","","","","","","","","","","","","","","","","","","","","","","","","","","","","","","","",""
"html-keyboard-response","83","196451","0.0-4.0-1.0-2.20","1","1","wa4yhfgsk768xe4","","null","","<p style=""color:green;""><b>Correct!</b></p>","","null","","","","","","","","","","","","","","","","","","","","","","","","","","","","","","","","","","","","","","","","","",""
"audio-keyboard-response","84","197252","0.0-4.0-1.0-0.21","1","1","wa4yhfgsk768xe4","","null","","sounds/induction/right/su_SWS.wav","","null","","","","","","","","","","","","","","","","","","","","","","","","","","","","","","","","","","","","","","","","","",""
"html-button-response","85","198957","0.0-4.0-1.0-1.21","1","1","wa4yhfgsk768xe4","","1703.5999999642372","","What sound did you hear?","1","","","1","INDUCTION-JUDGMENT","right","1","","","","","","","","","","","","","","","","","","","","","","","","","","","","","","","","","","","","",""
"html-keyboard-response","86","199960","0.0-4.0-1.0-2.21","1","1","wa4yhfgsk768xe4","","null","","<p style=""color:green;""><b>Correct!</b></p>","","null","","","","","","","","","","","","","","","","","","","","","","","","","","","","","","","","","","","","","","","","","",""
"audio-keyboard-response","87","200762","0.0-4.0-1.0-0.22","1","1","wa4yhfgsk768xe4","","null","","sounds/induction/right/fu_SWS.wav","","null","","","","","","","","","","","","","","","","","","","","","","","","","","","","","","","","","","","","","","","","","",""
"html-button-response","88","204076","0.0-4.0-1.0-1.22","1","1","wa4yhfgsk768xe4","","3313.100000023842","","What sound did you hear?","0","","","1","INDUCTION-JUDGMENT","right","0","","","","","","","","","","","","","","","","","","","","","","","","","","","","","","","","","","","","",""
"html-keyboard-response","89","205081","0.0-4.0-1.0-2.22","1","1","wa4yhfgsk768xe4","","null","","<p style=""color:green;""><b>Correct!</b></p>","","null","","","","","","","","","","","","","","","","","","","","","","","","","","","","","","","","","","","","","","","","","",""
"audio-keyboard-response","90","205887","0.0-4.0-1.0-0.23","1","1","wa4yhfgsk768xe4","","null","","sounds/induction/right/ti_SWS.wav","","null","","","","","","","","","","","","","","","","","","","","","","","","","","","","","","","","","","","","","","","","","",""
"html-button-response","91","207552","0.0-4.0-1.0-1.23","1","1","wa4yhfgsk768xe4","","1664.0999999642372","","What sound did you hear?","0","","","0","INDUCTION-JUDGMENT","right","1","","","","","","","","","","","","","","","","","","","","","","","","","","","","","","","","","","","","",""
"html-keyboard-response","92","208553","0.0-4.0-1.0-2.23","1","1","wa4yhfgsk768xe4","","null","","<p style=""color:red;""><b>Incorrect!</b></p>","","null","","","","","","","","","","","","","","","","","","","","","","","","","","","","","","","","","","","","","","","","","",""
"audio-keyboard-response","93","209354","0.0-4.0-1.0-0.24","1","1","wa4yhfgsk768xe4","","null","","sounds/induction/right/ge_SWS.wav","","null","","","","","","","","","","","","","","","","","","","","","","","","","","","","","","","","","","","","","","","","","",""
"html-button-response","94","210211","0.0-4.0-1.0-1.24","1","1","wa4yhfgsk768xe4","","855.9000000357628","","What sound did you hear?","0","","","1","INDUCTION-JUDGMENT","right","0","","","","","","","","","","","","","","","","","","","","","","","","","","","","","","","","","","","","",""
"html-keyboard-response","95","211215","0.0-4.0-1.0-2.24","1","1","wa4yhfgsk768xe4","","null","","<p style=""color:green;""><b>Correct!</b></p>","","null","","","","","","","","","","","","","","","","","","","","","","","","","","","","","","","","","","","","","","","","","",""
"audio-keyboard-response","96","212021","0.0-4.0-1.0-0.25","1","1","wa4yhfgsk768xe4","","null","","sounds/induction/right/ta_SWS.wav","","null","","","","","","","","","","","","","","","","","","","","","","","","","","","","","","","","","","","","","","","","","",""
"html-button-response","97","213351","0.0-4.0-1.0-1.25","1","1","wa4yhfgsk768xe4","","1329.2999999523163","","What sound did you hear?","1","","","1","INDUCTION-JUDGMENT","right","1","","","","","","","","","","","","","","","","","","","","","","","","","","","","","","","","","","","","",""
"html-keyboard-response","98","214355","0.0-4.0-1.0-2.25","1","1","wa4yhfgsk768xe4","","null","","<p style=""color:green;""><b>Correct!</b></p>","","null","","","","","","","","","","","","","","","","","","","","","","","","","","","","","","","","","","","","","","","","","",""
"audio-keyboard-response","99","215162","0.0-4.0-1.0-0.26","1","1","wa4yhfgsk768xe4","","null","","sounds/induction/left/ni_SWS.wav","","null","","","","","","","","","","","","","","","","","","","","","","","","","","","","","","","","","","","","","","","","","",""
"html-button-response","100","218202","0.0-4.0-1.0-1.26","1","1","wa4yhfgsk768xe4","","3038.899999976158","","What sound did you hear?","1","","","1","INDUCTION-JUDGMENT","left","1","","","","","","","","","","","","","","","","","","","","","","","","","","","","","","","","","","","","",""
"html-keyboard-response","101","219204","0.0-4.0-1.0-2.26","1","1","wa4yhfgsk768xe4","","null","","<p style=""color:green;""><b>Correct!</b></p>","","null","","","","","","","","","","","","","","","","","","","","","","","","","","","","","","","","","","","","","","","","","",""
"audio-keyboard-response","102","220005","0.0-4.0-1.0-0.27","1","1","wa4yhfgsk768xe4","","null","","sounds/induction/left/ti_SWS.wav","","null","","","","","","","","","","","","","","","","","","","","","","","","","","","","","","","","","","","","","","","","","",""
"html-button-response","103","221497","0.0-4.0-1.0-1.27","1","1","wa4yhfgsk768xe4","","1490.8999999761581","","What sound did you hear?","0","","","1","INDUCTION-JUDGMENT","left","0","","","","","","","","","","","","","","","","","","","","","","","","","","","","","","","","","","","","",""
"html-keyboard-response","104","222502","0.0-4.0-1.0-2.27","1","1","wa4yhfgsk768xe4","","null","","<p style=""color:green;""><b>Correct!</b></p>","","null","","","","","","","","","","","","","","","","","","","","","","","","","","","","","","","","","","","","","","","","","",""
"audio-keyboard-response","105","223306","0.0-4.0-1.0-0.28","1","1","wa4yhfgsk768xe4","","null","","sounds/induction/left/ge_SWS.wav","","null","","","","","","","","","","","","","","","","","","","","","","","","","","","","","","","","","","","","","","","","","",""
"html-button-response","106","224303","0.0-4.0-1.0-1.28","1","1","wa4yhfgsk768xe4","","995.8000000119209","","What sound did you hear?","0","","","0","INDUCTION-JUDGMENT","left","1","","","","","","","","","","","","","","","","","","","","","","","","","","","","","","","","","","","","",""
"html-keyboard-response","107","225309","0.0-4.0-1.0-2.28","1","1","wa4yhfgsk768xe4","","null","","<p style=""color:red;""><b>Incorrect!</b></p>","","null","","","","","","","","","","","","","","","","","","","","","","","","","","","","","","","","","","","","","","","","","",""
"audio-keyboard-response","108","226112","0.0-4.0-1.0-0.29","1","1","wa4yhfgsk768xe4","","null","","sounds/induction/right/fe_SWS.wav","","null","","","","","","","","","","","","","","","","","","","","","","","","","","","","","","","","","","","","","","","","","",""
"html-button-response","109","227002","0.0-4.0-1.0-1.29","1","1","wa4yhfgsk768xe4","","888.8999999761581","","What sound did you hear?","0","","","1","INDUCTION-JUDGMENT","right","0","","","","","","","","","","","","","","","","","","","","","","","","","","","","","","","","","","","","",""
"html-keyboard-response","110","228005","0.0-4.0-1.0-2.29","1","1","wa4yhfgsk768xe4","","null","","<p style=""color:green;""><b>Correct!</b></p>","","null","","","","","","","","","","","","","","","","","","","","","","","","","","","","","","","","","","","","","","","","","",""
"audio-keyboard-response","111","228810","0.0-4.0-1.0-0.30","1","1","wa4yhfgsk768xe4","","null","","sounds/induction/left/fu_SWS.wav","","null","","","","","","","","","","","","","","","","","","","","","","","","","","","","","","","","","","","","","","","","","",""
"html-button-response","112","229756","0.0-4.0-1.0-1.30","1","1","wa4yhfgsk768xe4","","945.1000000238419","","What sound did you hear?","1","","","1","INDUCTION-JUDGMENT","left","1","","","","","","","","","","","","","","","","","","","","","","","","","","","","","","","","","","","","",""
"html-keyboard-response","113","230761","0.0-4.0-1.0-2.30","1","1","wa4yhfgsk768xe4","","null","","<p style=""color:green;""><b>Correct!</b></p>","","null","","","","","","","","","","","","","","","","","","","","","","","","","","","","","","","","","","","","","","","","","",""
"audio-keyboard-response","114","231568","0.0-4.0-1.0-0.31","1","1","wa4yhfgsk768xe4","","null","","sounds/induction/right/pu_SWS.wav","","null","","","","","","","","","","","","","","","","","","","","","","","","","","","","","","","","","","","","","","","","","",""
"html-button-response","115","232446","0.0-4.0-1.0-1.31","1","1","wa4yhfgsk768xe4","","877.2999999523163","","What sound did you hear?","1","","","1","INDUCTION-JUDGMENT","right","1","","","","","","","","","","","","","","","","","","","","","","","","","","","","","","","","","","","","",""
"html-keyboard-response","116","233450","0.0-4.0-1.0-2.31","1","1","wa4yhfgsk768xe4","","null","","<p style=""color:green;""><b>Correct!</b></p>","","null","","","","","","","","","","","","","","","","","","","","","","","","","","","","","","","","","","","","","","","","","",""
"audio-keyboard-response","117","234256","0.0-4.0-1.0-0.32","1","1","wa4yhfgsk768xe4","","null","","sounds/induction/left/su_SWS.wav","","null","","","","","","","","","","","","","","","","","","","","","","","","","","","","","","","","","","","","","","","","","",""
"html-button-response","118","236536","0.0-4.0-1.0-1.32","1","1","wa4yhfgsk768xe4","","2279.199999988079","","What sound did you hear?","0","","","1","INDUCTION-JUDGMENT","left","0","","","","","","","","","","","","","","","","","","","","","","","","","","","","","","","","","","","","",""
"html-keyboard-response","119","237540","0.0-4.0-1.0-2.32","1","1","wa4yhfgsk768xe4","","null","","<p style=""color:green;""><b>Correct!</b></p>","","null","","","","","","","","","","","","","","","","","","","","","","","","","","","","","","","","","","","","","","","","","",""
"audio-keyboard-response","120","238341","0.0-4.0-1.0-0.33","1","1","wa4yhfgsk768xe4","","null","","sounds/induction/left/fu_SWS.wav","","null","","","","","","","","","","","","","","","","","","","","","","","","","","","","","","","","","","","","","","","","","",""
"html-button-response","121","239371","0.0-4.0-1.0-1.33","1","1","wa4yhfgsk768xe4","","1028.5999999642372","","What sound did you hear?","1","","","1","INDUCTION-JUDGMENT","left","1","","","","","","","","","","","","","","","","","","","","","","","","","","","","","","","","","","","","",""
"html-keyboard-response","122","240373","0.0-4.0-1.0-2.33","1","1","wa4yhfgsk768xe4","","null","","<p style=""color:green;""><b>Correct!</b></p>","","null","","","","","","","","","","","","","","","","","","","","","","","","","","","","","","","","","","","","","","","","","",""
"audio-keyboard-response","123","241173","0.0-4.0-1.0-0.34","1","1","wa4yhfgsk768xe4","","null","","sounds/induction/right/ge_SWS.wav","","null","","","","","","","","","","","","","","","","","","","","","","","","","","","","","","","","","","","","","","","","","",""
"html-button-response","124","242375","0.0-4.0-1.0-1.34","1","1","wa4yhfgsk768xe4","","1201","","What sound did you hear?","0","","","1","INDUCTION-JUDGMENT","right","0","","","","","","","","","","","","","","","","","","","","","","","","","","","","","","","","","","","","",""
"html-keyboard-response","125","243381","0.0-4.0-1.0-2.34","1","1","wa4yhfgsk768xe4","","null","","<p style=""color:green;""><b>Correct!</b></p>","","null","","","","","","","","","","","","","","","","","","","","","","","","","","","","","","","","","","","","","","","","","",""
"audio-keyboard-response","126","244187","0.0-4.0-1.0-0.35","1","1","wa4yhfgsk768xe4","","null","","sounds/induction/right/ta_SWS.wav","","null","","","","","","","","","","","","","","","","","","","","","","","","","","","","","","","","","","","","","","","","","",""
"html-button-response","127","245620","0.0-4.0-1.0-1.35","1","1","wa4yhfgsk768xe4","","1432.0999999642372","","What sound did you hear?","1","","","1","INDUCTION-JUDGMENT","right","1","","","","","","","","","","","","","","","","","","","","","","","","","","","","","","","","","","","","",""
"html-keyboard-response","128","246623","0.0-4.0-1.0-2.35","1","1","wa4yhfgsk768xe4","","null","","<p style=""color:green;""><b>Correct!</b></p>","","null","","","","","","","","","","","","","","","","","","","","","","","","","","","","","","","","","","","","","","","","","",""
"audio-keyboard-response","129","247424","0.0-4.0-1.0-0.36","1","1","wa4yhfgsk768xe4","","null","","sounds/induction/right/ko_SWS.wav","","null","","","","","","","","","","","","","","","","","","","","","","","","","","","","","","","","","","","","","","","","","",""
"html-button-response","130","249878","0.0-4.0-1.0-1.36","1","1","wa4yhfgsk768xe4","","2452.800000011921","","What sound did you hear?","0","","","1","INDUCTION-JUDGMENT","right","0","","","","","","","","","","","","","","","","","","","","","","","","","","","","","","","","","","","","",""
"html-keyboard-response","131","250880","0.0-4.0-1.0-2.36","1","1","wa4yhfgsk768xe4","","null","","<p style=""color:green;""><b>Correct!</b></p>","","null","","","","","","","","","","","","","","","","","","","","","","","","","","","","","","","","","","","","","","","","","",""
"audio-keyboard-response","132","251681","0.0-4.0-1.0-0.37","1","1","wa4yhfgsk768xe4","","null","","sounds/induction/right/ti_SWS.wav","","null","","","","","","","","","","","","","","","","","","","","","","","","","","","","","","","","","","","","","","","","","",""
"html-button-response","133","253621","0.0-4.0-1.0-1.37","1","1","wa4yhfgsk768xe4","","1938.199999988079","","What sound did you hear?","1","","","1","INDUCTION-JUDGMENT","right","1","","","","","","","","","","","","","","","","","","","","","","","","","","","","","","","","","","","","",""
"html-keyboard-response","134","254624","0.0-4.0-1.0-2.37","1","1","wa4yhfgsk768xe4","","null","","<p style=""color:green;""><b>Correct!</b></p>","","null","","","","","","","","","","","","","","","","","","","","","","","","","","","","","","","","","","","","","","","","","",""
"audio-keyboard-response","135","255424","0.0-4.0-1.0-0.38","1","1","wa4yhfgsk768xe4","","null","","sounds/induction/left/ti_SWS.wav","","null","","","","","","","","","","","","","","","","","","","","","","","","","","","","","","","","","","","","","","","","","",""
"html-button-response","136","256698","0.0-4.0-1.0-1.38","1","1","wa4yhfgsk768xe4","","1272.300000011921","","What sound did you hear?","0","","","1","INDUCTION-JUDGMENT","left","0","","","","","","","","","","","","","","","","","","","","","","","","","","","","","","","","","","","","",""
"html-keyboard-response","137","257702","0.0-4.0-1.0-2.38","1","1","wa4yhfgsk768xe4","","null","","<p style=""color:green;""><b>Correct!</b></p>","","null","","","","","","","","","","","","","","","","","","","","","","","","","","","","","","","","","","","","","","","","","",""
"audio-keyboard-response","138","258507","0.0-4.0-1.0-0.39","1","1","wa4yhfgsk768xe4","","null","","sounds/induction/right/ko_SWS.wav","","null","","","","","","","","","","","","","","","","","","","","","","","","","","","","","","","","","","","","","","","","","",""
"html-button-response","139","262667","0.0-4.0-1.0-1.39","1","1","wa4yhfgsk768xe4","","4158.800000011921","","What sound did you hear?","0","","","1","INDUCTION-JUDGMENT","right","0","","","","","","","","","","","","","","","","","","","","","","","","","","","","","","","","","","","","",""
"html-keyboard-response","140","263670","0.0-4.0-1.0-2.39","1","1","wa4yhfgsk768xe4","","null","","<p style=""color:green;""><b>Correct!</b></p>","","null","","","","","","","","","","","","","","","","","","","","","","","","","","","","","","","","","","","","","","","","","",""
"audio-keyboard-response","141","264478","0.0-4.0-1.0-0.40","1","1","wa4yhfgsk768xe4","","null","","sounds/induction/right/me_SWS.wav","","null","","","","","","","","","","","","","","","","","","","","","","","","","","","","","","","","","","","","","","","","","",""
"html-button-response","142","265735","0.0-4.0-1.0-1.40","1","1","wa4yhfgsk768xe4","","1255.3999999761581","","What sound did you hear?","0","","","1","INDUCTION-JUDGMENT","right","0","","","","","","","","","","","","","","","","","","","","","","","","","","","","","","","","","","","","",""
"html-keyboard-response","143","266736","0.0-4.0-1.0-2.40","1","1","wa4yhfgsk768xe4","","null","","<p style=""color:green;""><b>Correct!</b></p>","","null","","","","","","","","","","","","","","","","","","","","","","","","","","","","","","","","","","","","","","","","","",""
"audio-keyboard-response","144","267537","0.0-4.0-1.0-0.41","1","1","wa4yhfgsk768xe4","","null","","sounds/induction/left/ko_SWS.wav","","null","","","","","","","","","","","","","","","","","","","","","","","","","","","","","","","","","","","","","","","","","",""
"html-button-response","145","268683","0.0-4.0-1.0-1.41","1","1","wa4yhfgsk768xe4","","1144.800000011921","","What sound did you hear?","1","","","1","INDUCTION-JUDGMENT","left","1","","","","","","","","","","","","","","","","","","","","","","","","","","","","","","","","","","","","",""
"html-keyboard-response","146","269685","0.0-4.0-1.0-2.41","1","1","wa4yhfgsk768xe4","","null","","<p style=""color:green;""><b>Correct!</b></p>","","null","","","","","","","","","","","","","","","","","","","","","","","","","","","","","","","","","","","","","","","","","",""
"audio-keyboard-response","147","270491","0.0-4.0-1.0-0.42","1","1","wa4yhfgsk768xe4","","null","","sounds/induction/right/me_SWS.wav","","null","","","","","","","","","","","","","","","","","","","","","","","","","","","","","","","","","","","","","","","","","",""
"html-button-response","148","271744","0.0-4.0-1.0-1.42","1","1","wa4yhfgsk768xe4","","1251.0999999642372","","What sound did you hear?","0","","","1","INDUCTION-JUDGMENT","right","0","","","","","","","","","","","","","","","","","","","","","","","","","","","","","","","","","","","","",""
"html-keyboard-response","149","272747","0.0-4.0-1.0-2.42","1","1","wa4yhfgsk768xe4","","null","","<p style=""color:green;""><b>Correct!</b></p>","","null","","","","","","","","","","","","","","","","","","","","","","","","","","","","","","","","","","","","","","","","","",""
"audio-keyboard-response","150","273553","0.0-4.0-1.0-0.43","1","1","wa4yhfgsk768xe4","","null","","sounds/induction/right/re_SWS.wav","","null","","","","","","","","","","","","","","","","","","","","","","","","","","","","","","","","","","","","","","","","","",""
"html-button-response","151","274395","0.0-4.0-1.0-1.43","1","1","wa4yhfgsk768xe4","","840.7000000476837","","What sound did you hear?","0","","","0","INDUCTION-JUDGMENT","right","1","","","","","","","","","","","","","","","","","","","","","","","","","","","","","","","","","","","","",""
"html-keyboard-response","152","275399","0.0-4.0-1.0-2.43","1","1","wa4yhfgsk768xe4","","null","","<p style=""color:red;""><b>Incorrect!</b></p>","","null","","","","","","","","","","","","","","","","","","","","","","","","","","","","","","","","","","","","","","","","","",""
"audio-keyboard-response","153","276209","0.0-4.0-1.0-0.44","1","1","wa4yhfgsk768xe4","","null","","sounds/induction/left/re_SWS.wav","","null","","","","","","","","","","","","","","","","","","","","","","","","","","","","","","","","","","","","","","","","","",""
"html-button-response","154","277254","0.0-4.0-1.0-1.44","1","1","wa4yhfgsk768xe4","","1043.9000000357628","","What sound did you hear?","0","","","1","INDUCTION-JUDGMENT","left","0","","","","","","","","","","","","","","","","","","","","","","","","","","","","","","","","","","","","",""
"html-keyboard-response","155","278256","0.0-4.0-1.0-2.44","1","1","wa4yhfgsk768xe4","","null","","<p style=""color:green;""><b>Correct!</b></p>","","null","","","","","","","","","","","","","","","","","","","","","","","","","","","","","","","","","","","","","","","","","",""
"audio-keyboard-response","156","279062","0.0-4.0-1.0-0.45","1","1","wa4yhfgsk768xe4","","null","","sounds/induction/left/pu_SWS.wav","","null","","","","","","","","","","","","","","","","","","","","","","","","","","","","","","","","","","","","","","","","","",""
"html-button-response","157","280034","0.0-4.0-1.0-1.45","1","1","wa4yhfgsk768xe4","","970.3000000119209","","What sound did you hear?","0","","","1","INDUCTION-JUDGMENT","left","0","","","","","","","","","","","","","","","","","","","","","","","","","","","","","","","","","","","","",""
"html-keyboard-response","158","281036","0.0-4.0-1.0-2.45","1","1","wa4yhfgsk768xe4","","null","","<p style=""color:green;""><b>Correct!</b></p>","","null","","","","","","","","","","","","","","","","","","","","","","","","","","","","","","","","","","","","","","","","","",""
"audio-keyboard-response","159","281841","0.0-4.0-1.0-0.46","1","1","wa4yhfgsk768xe4","","null","","sounds/induction/left/su_SWS.wav","","null","","","","","","","","","","","","","","","","","","","","","","","","","","","","","","","","","","","","","","","","","",""
"html-button-response","160","285399","0.0-4.0-1.0-1.46","1","1","wa4yhfgsk768xe4","","3557","","What sound did you hear?","1","","","0","INDUCTION-JUDGMENT","left","0","","","","","","","","","","","","","","","","","","","","","","","","","","","","","","","","","","","","",""
"html-keyboard-response","161","286402","0.0-4.0-1.0-2.46","1","1","wa4yhfgsk768xe4","","null","","<p style=""color:red;""><b>Incorrect!</b></p>","","null","","","","","","","","","","","","","","","","","","","","","","","","","","","","","","","","","","","","","","","","","",""
"audio-keyboard-response","162","287206","0.0-4.0-1.0-0.47","1","1","wa4yhfgsk768xe4","","null","","sounds/induction/right/ru_SWS.wav","","null","","","","","","","","","","","","","","","","","","","","","","","","","","","","","","","","","","","","","","","","","",""
"html-button-response","163","288313","0.0-4.0-1.0-1.47","1","1","wa4yhfgsk768xe4","","1105.2999999523163","","What sound did you hear?","1","","","1","INDUCTION-JUDGMENT","right","1","","","","","","","","","","","","","","","","","","","","","","","","","","","","","","","","","","","","",""
"html-keyboard-response","164","289318","0.0-4.0-1.0-2.47","1","1","wa4yhfgsk768xe4","","null","","<p style=""color:green;""><b>Correct!</b></p>","","null","","","","","","","","","","","","","","","","","","","","","","","","","","","","","","","","","","","","","","","","","",""
"html-button-response","165","298602","0.0-5.0-0.0","1","1","wa4yhfgsk768xe4","","8781.100000023842","","<p>Thank you for your answers.</p><p>You will now listen to similar sounds. The main difference is that the sounds will be longer and will make up complete sentences.</p><p>Please listen carefully to each sentence. After each sentence, you will be asked to type back what you heard to the best of your ability. After you provide your response, you will be given feedback about the correct answer.</p><p>There are 10 sentences in total.","0","","","","","","","","","","","","","","","","","","","","","","","","","","","","","","","","","","","","","","","","","","",""
"audio-keyboard-response","166","301591","0.0-5.0-1.0-0.0","1","1","wa4yhfgsk768xe4","","null","","sounds/sentences/left/14_05_cfSWS.wav","","null","","","","","","","","","","","","","","","","","","","","","","","","","","","","","","","","","","","","","","","","","",""
"sentence-resp","167","329718","0.0-5.0-1.0-1.0","1","1","wa4yhfgsk768xe4","","28125","","","","","","","SWS-SENT-RESPONSE","","","{""Q0"":""and i know what she told\n""}","The glow deepened in the eyes of the sweet girl.","glow,deepened,eyes,sweet,girl","AND I KNOW WHAT SHE TOLD ","0","0","0","0","0","0","0","","","","","","","","","","","","","","","","","","","","","","","","","",""
"html-keyboard-response","168","330972","0.0-5.0-1.0-2.0","1","1","wa4yhfgsk768xe4","","null","","","","null","","","","","","","","","","","","","","","","","","","","","","","","","","","","","","","","","","","","","","","","","",""
"audio-keyboard-response","169","333464","0.0-5.0-1.0-3.0","1","1","wa4yhfgsk768xe4","","null","","sounds/sentences/left/14_05_cfSWS.wav","","null","","","","","","","","","","","","","","","","","","","","","","","","","","","","","","","","","","","","","","","","","",""
"html-keyboard-response","170","334467","0.0-5.0-1.0-4.0","1","1","wa4yhfgsk768xe4","","null","","","","null","","","","","","","","","","","","","","","","","","","","","","","","","","","","","","","","","","","","","","","","","",""
"html-button-response","171","336036","0.0-5.0-1.0-5.0","1","1","wa4yhfgsk768xe4","","1063.5999999642372","","<p>Press the button below when you are ready to continue.</p>","0","","","","","","","","","","","","","","","","","","","","","","","","","","","","","","","","","","","","","","","","","","",""
"audio-keyboard-response","172","338771","0.0-5.0-1.0-0.1","1","1","wa4yhfgsk768xe4","","null","","sounds/sentences/right/14_09_cfSWS.wav","","null","","","","","","","","","","","","","","","","","","","","","","","","","","","","","","","","","","","","","","","","","",""
"sentence-resp","173","364528","0.0-5.0-1.0-1.1","1","1","wa4yhfgsk768xe4","","25756","","","","","","","SWS-SENT-RESPONSE","","","{""Q0"":""the glow deepened in the eyes of her""}","We frown when events take a bad turn.","frown,events,take,bad,turn","THE GLOW DEEPENED IN THE EYES OF HER","0","0","0","0","0","0","0","","","","","","","","","","","","","","","","","","","","","","","","","",""
"html-keyboard-response","174","365784","0.0-5.0-1.0-2.1","1","1","wa4yhfgsk768xe4","","null","","","","null","","","","","","","","","","","","","","","","","","","","","","","","","","","","","","","","","","","","","","","","","",""
"audio-keyboard-response","175","368005","0.0-5.0-1.0-3.1","1","1","wa4yhfgsk768xe4","","null","","sounds/sentences/right/14_09_cfSWS.wav","","null","","","","","","","","","","","","","","","","","","","","","","","","","","","","","","","","","","","","","","","","","",""
"html-keyboard-response","176","369005","0.0-5.0-1.0-4.1","1","1","wa4yhfgsk768xe4","","null","","","","null","","","","","","","","","","","","","","","","","","","","","","","","","","","","","","","","","","","","","","","","","",""
"html-button-response","177","371221","0.0-5.0-1.0-5.1","1","1","wa4yhfgsk768xe4","","1715.3999999761581","","<p>Press the button below when you are ready to continue.</p>","0","","","","","","","","","","","","","","","","","","","","","","","","","","","","","","","","","","","","","","","","","","",""
"audio-keyboard-response","178","374337","0.0-5.0-1.0-0.2","1","1","wa4yhfgsk768xe4","","null","","sounds/sentences/left/14_01_cfSWS.wav","","null","","","","","","","","","","","","","","","","","","","","","","","","","","","","","","","","","","","","","","","","","",""
"sentence-resp","179","385599","0.0-5.0-1.0-1.2","1","1","wa4yhfgsk768xe4","","11261","","","","","","","SWS-SENT-RESPONSE","","","{""Q0"":""we frown when the eyes of the sweet girl\n""}","A cramp is no small danger on a swim.","cramp,no,small,danger,swim","WE FROWN WHEN THE EYES OF THE SWEET GIRL ","0","0","0","0","0","0","0","","","","","","","","","","","","","","","","","","","","","","","","","",""
"html-keyboard-response","180","386854","0.0-5.0-1.0-2.2","1","1","wa4yhfgsk768xe4","","null","","","","null","","","","","","","","","","","","","","","","","","","","","","","","","","","","","","","","","","","","","","","","","",""
"audio-keyboard-response","181","389472","0.0-5.0-1.0-3.2","1","1","wa4yhfgsk768xe4","","null","","sounds/sentences/left/14_01_cfSWS.wav","","null","","","","","","","","","","","","","","","","","","","","","","","","","","","","","","","","","","","","","","","","","",""
"html-keyboard-response","182","390473","0.0-5.0-1.0-4.2","1","1","wa4yhfgsk768xe4","","null","","","","null","","","","","","","","","","","","","","","","","","","","","","","","","","","","","","","","","","","","","","","","","",""
"html-button-response","183","391788","0.0-5.0-1.0-5.2","1","1","wa4yhfgsk768xe4","","813.9000000357628","","<p>Press the button below when you are ready to continue.</p>","0","","","","","","","","","","","","","","","","","","","","","","","","","","","","","","","","","","","","","","","","","","",""
"audio-keyboard-response","184","394612","0.0-5.0-1.0-0.3","1","1","wa4yhfgsk768xe4","","null","","sounds/sentences/left/14_02_cfSWS.wav","","null","","","","","","","","","","","","","","","","","","","","","","","","","","","","","","","","","","","","","","","","","",""
"sentence-resp","185","408472","0.0-5.0-1.0-1.3","1","1","wa4yhfgsk768xe4","","13859","","","","","","","SWS-SENT-RESPONSE","","","{""Q0"":""he said the same thing thirty times\n""}","He said the same phrase thirty times.","said,same,phrase,thirty,times","HE SAID THE SAME THING THIRTY TIMES ","1","1","0","1","1","4","0.8","","","","","","","","","","","","","","","","","","","","","","","","","",""
"html-keyboard-response","186","409730","0.0-5.0-1.0-2.3","1","1","wa4yhfgsk768xe4","","null","","","","null","","","","","","","","","","","","","","","","","","","","","","","","","","","","","","","","","","","","","","","","","",""
"audio-keyboard-response","187","412049","0.0-5.0-1.0-3.3","1","1","wa4yhfgsk768xe4","","null","","sounds/sentences/left/14_02_cfSWS.wav","","null","","","","","","","","","","","","","","","","","","","","","","","","","","","","","","","","","","","","","","","","","",""
"html-keyboard-response","188","413051","0.0-5.0-1.0-4.3","1","1","wa4yhfgsk768xe4","","null","","","","null","","","","","","","","","","","","","","","","","","","","","","","","","","","","","","","","","","","","","","","","","",""
"html-button-response","189","418087","0.0-5.0-1.0-5.3","1","1","wa4yhfgsk768xe4","","4530.899999976158","","<p>Press the button below when you are ready to continue.</p>","0","","","","","","","","","","","","","","","","","","","","","","","","","","","","","","","","","","","","","","","","","","",""
"audio-keyboard-response","190","421104","0.0-5.0-1.0-0.4","1","1","wa4yhfgsk768xe4","","null","","sounds/sentences/right/14_10_cfSWS.wav","","null","","","","","","","","","","","","","","","","","","","","","","","","","","","","","","","","","","","","","","","","","",""
"sentence-resp","191","441231","0.0-5.0-1.0-1.4","1","1","wa4yhfgsk768xe4","","20124","","","","","","","SWS-SENT-RESPONSE","","","{""Q0"":""he had a strong mind with a smokey taste\n""}","Port is a strong wine with a smoky taste.","port,strong,wine,smoky,taste","HE HAD A STRONG MIND WITH A SMOKEY TASTE ","0","1","0","0","1","2","0.4","","","","","","","","","","","","","","","","","","","","","","","","","",""
"html-keyboard-response","192","442490","0.0-5.0-1.0-2.4","1","1","wa4yhfgsk768xe4","","null","","","","null","","","","","","","","","","","","","","","","","","","","","","","","","","","","","","","","","","","","","","","","","",""
"audio-keyboard-response","193","445009","0.0-5.0-1.0-3.4","1","1","wa4yhfgsk768xe4","","null","","sounds/sentences/right/14_10_cfSWS.wav","","null","","","","","","","","","","","","","","","","","","","","","","","","","","","","","","","","","","","","","","","","","",""
"html-keyboard-response","194","446011","0.0-5.0-1.0-4.4","1","1","wa4yhfgsk768xe4","","null","","","","null","","","","","","","","","","","","","","","","","","","","","","","","","","","","","","","","","","","","","","","","","",""
"html-button-response","195","447930","0.0-5.0-1.0-5.4","1","1","wa4yhfgsk768xe4","","1412.7000000476837","","<p>Press the button below when you are ready to continue.</p>","0","","","","","","","","","","","","","","","","","","","","","","","","","","","","","","","","","","","","","","","","","","",""
"audio-keyboard-response","196","450480","0.0-5.0-1.0-0.5","1","1","wa4yhfgsk768xe4","","null","","sounds/sentences/left/14_04_cfSWS.wav","","null","","","","","","","","","","","","","","","","","","","","","","","","","","","","","","","","","","","","","","","","","",""
"sentence-resp","197","459269","0.0-5.0-1.0-1.5","1","1","wa4yhfgsk768xe4","","8787","","","","","","","SWS-SENT-RESPONSE","","","{""Q0"":""he is 70 not less than 10\n""}","Two plus seven is less than ten.","two,plus,seven,less,ten","HE IS 70 NOT LESS THAN 10 ","0","0","0","1","0","1","0.2","","","","","","","","","","","","","","","","","","","","","","","","","",""
"html-keyboard-response","198","460523","0.0-5.0-1.0-2.5","1","1","wa4yhfgsk768xe4","","null","","","","null","","","","","","","","","","","","","","","","","","","","","","","","","","","","","","","","","","","","","","","","","",""
"audio-keyboard-response","199","462577","0.0-5.0-1.0-3.5","1","1","wa4yhfgsk768xe4","","null","","sounds/sentences/left/14_04_cfSWS.wav","","null","","","","","","","","","","","","","","","","","","","","","","","","","","","","","","","","","","","","","","","","","",""
"html-keyboard-response","200","463579","0.0-5.0-1.0-4.5","1","1","wa4yhfgsk768xe4","","null","","","","null","","","","","","","","","","","","","","","","","","","","","","","","","","","","","","","","","","","","","","","","","",""
"html-button-response","201","465230","0.0-5.0-1.0-5.5","1","1","wa4yhfgsk768xe4","","1148.699999988079","","<p>Press the button below when you are ready to continue.</p>","0","","","","","","","","","","","","","","","","","","","","","","","","","","","","","","","","","","","","","","","","","","",""
"audio-keyboard-response","202","467980","0.0-5.0-1.0-0.6","1","1","wa4yhfgsk768xe4","","null","","sounds/sentences/right/14_06_cfSWS.wav","","null","","","","","","","","","","","","","","","","","","","","","","","","","","","","","","","","","","","","","","","","","",""
"sentence-resp","203","487739","0.0-5.0-1.0-1.6","1","1","wa4yhfgsk768xe4","","19758","","","","","","","SWS-SENT-RESPONSE","","","{""Q0"":""save me your problems for the wise chief\n""}","Bring your problems to the wise chief.","bring,your,problems,wise,chief","SAVE ME YOUR PROBLEMS FOR THE WISE CHIEF ","0","1","1","1","1","4","0.8","","","","","","","","","","","","","","","","","","","","","","","","","",""
"html-keyboard-response","204","488998","0.0-5.0-1.0-2.6","1","1","wa4yhfgsk768xe4","","null","","","","null","","","","","","","","","","","","","","","","","","","","","","","","","","","","","","","","","","","","","","","","","",""
"audio-keyboard-response","205","491245","0.0-5.0-1.0-3.6","1","1","wa4yhfgsk768xe4","","null","","sounds/sentences/right/14_06_cfSWS.wav","","null","","","","","","","","","","","","","","","","","","","","","","","","","","","","","","","","","","","","","","","","","",""
"html-keyboard-response","206","492248","0.0-5.0-1.0-4.6","1","1","wa4yhfgsk768xe4","","null","","","","null","","","","","","","","","","","","","","","","","","","","","","","","","","","","","","","","","","","","","","","","","",""
"html-button-response","207","493854","0.0-5.0-1.0-5.6","1","1","wa4yhfgsk768xe4","","1100.699999988079","","<p>Press the button below when you are ready to continue.</p>","0","","","","","","","","","","","","","","","","","","","","","","","","","","","","","","","","","","","","","","","","","","",""
"audio-keyboard-response","208","496610","0.0-5.0-1.0-0.7","1","1","wa4yhfgsk768xe4","","null","","sounds/sentences/right/14_08_cfSWS.wav","","null","","","","","","","","","","","","","","","","","","","","","","","","","","","","","","","","","","","","","","","","","",""
"sentence-resp","209","513236","0.0-5.0-1.0-1.7","1","1","wa4yhfgsk768xe4","","16625","","","","","","","SWS-SENT-RESPONSE","","","{""Q0"":""he said a mockingbird on a new whim\n""}","Clothes and lodging are free to new men.","clothes,lodging,free,new,men","HE SAID A MOCKINGBIRD ON A NEW WHIM ","0","0","0","1","0","1","0.2","","","","","","","","","","","","","","","","","","","","","","","","","",""
"html-keyboard-response","210","514497","0.0-5.0-1.0-2.7","1","1","wa4yhfgsk768xe4","","null","","","","null","","","","","","","","","","","","","","","","","","","","","","","","","","","","","","","","","","","","","","","","","",""
"audio-keyboard-response","211","516754","0.0-5.0-1.0-3.7","1","1","wa4yhfgsk768xe4","","null","","sounds/sentences/right/14_08_cfSWS.wav","","null","","","","","","","","","","","","","","","","","","","","","","","","","","","","","","","","","","","","","","","","","",""
"html-keyboard-response","212","517760","0.0-5.0-1.0-4.7","1","1","wa4yhfgsk768xe4","","null","","","","null","","","","","","","","","","","","","","","","","","","","","","","","","","","","","","","","","","","","","","","","","",""
"html-button-response","213","519427","0.0-5.0-1.0-5.7","1","1","wa4yhfgsk768xe4","","1163.800000011921","","<p>Press the button below when you are ready to continue.</p>","0","","","","","","","","","","","","","","","","","","","","","","","","","","","","","","","","","","","","","","","","","","",""
"audio-keyboard-response","214","522013","0.0-5.0-1.0-0.8","1","1","wa4yhfgsk768xe4","","null","","sounds/sentences/left/14_03_cfSWS.wav","","null","","","","","","","","","","","","","","","","","","","","","","","","","","","","","","","","","","","","","","","","","",""
"sentence-resp","215","535182","0.0-5.0-1.0-1.8","1","1","wa4yhfgsk768xe4","","13167","","","","","","","SWS-SENT-RESPONSE","","","{""Q0"":""bring some fries home without weed""}","Pluck the bright rose without leaves.","pluck,bright,rose,without,leaves","BRING SOME FRIES HOME WITHOUT WEED","0","0","0","1","0","1","0.2","","","","","","","","","","","","","","","","","","","","","","","","","",""
"html-keyboard-response","216","536439","0.0-5.0-1.0-2.8","1","1","wa4yhfgsk768xe4","","null","","","","null","","","","","","","","","","","","","","","","","","","","","","","","","","","","","","","","","","","","","","","","","",""
"audio-keyboard-response","217","538526","0.0-5.0-1.0-3.8","1","1","wa4yhfgsk768xe4","","null","","sounds/sentences/left/14_03_cfSWS.wav","","null","","","","","","","","","","","","","","","","","","","","","","","","","","","","","","","","","","","","","","","","","",""
"html-keyboard-response","218","539527","0.0-5.0-1.0-4.8","1","1","wa4yhfgsk768xe4","","null","","","","null","","","","","","","","","","","","","","","","","","","","","","","","","","","","","","","","","","","","","","","","","",""
"html-button-response","219","541396","0.0-5.0-1.0-5.8","1","1","wa4yhfgsk768xe4","","1364.699999988079","","<p>Press the button below when you are ready to continue.</p>","0","","","","","","","","","","","","","","","","","","","","","","","","","","","","","","","","","","","","","","","","","","",""
"audio-keyboard-response","220","544286","0.0-5.0-1.0-0.9","1","1","wa4yhfgsk768xe4","","null","","sounds/sentences/right/14_07_cfSWS.wav","","null","","","","","","","","","","","","","","","","","","","","","","","","","","","","","","","","","","","","","","","","","",""
"sentence-resp","221","559069","0.0-5.0-1.0-1.9","1","1","wa4yhfgsk768xe4","","14782","","","","","","","SWS-SENT-RESPONSE","","","{""Q0"":""try this on it looks good sure is\n""}","Write a fond note to the friend you cherish.","write,fond,note,friend,cherish","TRY THIS ON IT LOOKS GOOD SURE IS ","0","0","0","0","0","0","0","","","","","","","","","","","","","","","","","","","","","","","","","",""
"html-keyboard-response","222","560323","0.0-5.0-1.0-2.9","1","1","wa4yhfgsk768xe4","","null","","","","null","","","","","","","","","","","","","","","","","","","","","","","","","","","","","","","","","","","","","","","","","",""
"audio-keyboard-response","223","562721","0.0-5.0-1.0-3.9","1","1","wa4yhfgsk768xe4","","null","","sounds/sentences/right/14_07_cfSWS.wav","","null","","","","","","","","","","","","","","","","","","","","","","","","","","","","","","","","","","","","","","","","","",""
"html-keyboard-response","224","563726","0.0-5.0-1.0-4.9","1","1","wa4yhfgsk768xe4","","null","","","","null","","","","","","","","","","","","","","","","","","","","","","","","","","","","","","","","","","","","","","","","","",""
"html-button-response","225","565161","0.0-5.0-1.0-5.9","1","1","wa4yhfgsk768xe4","","933","","<p>Press the button below when you are ready to continue.</p>","0","","","","","","","","","","","","","","","","","","","","","","","","","","","","","","","","","","","","","","","","","","",""
"html-keyboard-response","226","582719","0.0-6.0-0.0","1","1","wa4yhfgsk768xe4","","17055.5","","<p>In this part of the study, you will hear sounds similar to those you just heard.</p><p>Please focus on these sounds, as you may be asked questions about them later.</p><p>Occasionally, the sounds will pause for up to two seconds. When this happens, please press SPACEBAR as quickly as you can.</br>This helps ensure that you are paying attention to the sounds.</p><p>This part of the study will take about 12 minutes to complete, and you will be given the opportunity to take a couple of short breaks every few minutes.</p><p><strong>Press SPACEBAR to begin</strong></p>","","32","","","","","","","","","","","","","","","","","","","","","","","","","","","","","","","","","","","","","","","","","",""
"html-keyboard-response","227","583722","0.0-6.0-1.0-0.0","1","1","wa4yhfgsk768xe4","","null","","<p style=""font-size: 40px;"">+</p>","","null","","","","","","","","","","","","","","","","","","","","","","","","","","","","","","","","","","","","","","","","","",""
"html-keyboard-response","228","768736","0.0-6.0-1.0-1.0","1","1","wa4yhfgsk768xe4","","null","","","","null","","","SL-TRAIN","","","","","","","","","","","","","","2","null","null","sounds/A/TRAIN/SEQ__10.mp3","0","","","","","","","","","","","","","","","","","","","","",""
"html-button-response","229","772038","0.0-6.0-1.0-2.0","1","1","wa4yhfgsk768xe4","","3300","","<p>You may take a short break if you wish.</p>","0","","","","","","","","","","","","","","","","","","","","","","","","","","","","","","","","","","","","","","","","","","",""
"html-keyboard-response","230","773044","0.0-6.0-1.0-3.0","1","1","wa4yhfgsk768xe4","","null","","<p style=""font-size: 40px;"">+</p>","","null","","","","","","","","","","","","","","","","","","","","","","","","","","","","","","","","","","","","","","","","","",""
"html-keyboard-response","231","958058","0.0-6.0-1.0-4.0","1","1","wa4yhfgsk768xe4","","null","","","","null","","","SL-TRAIN","","","","","","","","","","","","","","2","null","null","sounds/A/TRAIN/SEQ__03.mp3","2","","","","","","","","","","","","","","","","","","","","",""
"html-button-response","232","961009","0.0-6.0-1.0-5.0","1","1","wa4yhfgsk768xe4","","2949.599999964237","","<p>You may take a short break if you wish.</p>","0","","","","","","","","","","","","","","","","","","","","","","","","","","","","","","","","","","","","","","","","","","",""
"html-keyboard-response","233","962015","0.0-6.0-1.0-6.0","1","1","wa4yhfgsk768xe4","","null","","<p style=""font-size: 40px;"">+</p>","","null","","","","","","","","","","","","","","","","","","","","","","","","","","","","","","","","","","","","","","","","","",""
"html-keyboard-response","234","1147029","0.0-6.0-1.0-7.0","1","1","wa4yhfgsk768xe4","","null","","","","null","","","SL-TRAIN","","","","","","","","","","","","","","2","null","null","sounds/A/TRAIN/SEQ__04.mp3","0","","","","","","","","","","","","","","","","","","","","",""
"html-button-response","235","1151286","0.0-6.0-1.0-8.0","1","1","wa4yhfgsk768xe4","","4255.599999964237","","<p>You may take a short break if you wish.</p>","0","","","","","","","","","","","","","","","","","","","","","","","","","","","","","","","","","","","","","","","","","","",""
"html-keyboard-response","236","1152290","0.0-6.0-1.0-9.0","1","1","wa4yhfgsk768xe4","","null","","<p style=""font-size: 40px;"">+</p>","","null","","","","","","","","","","","","","","","","","","","","","","","","","","","","","","","","","","","","","","","","","",""
"html-keyboard-response","237","1337303","0.0-6.0-1.0-10.0","1","1","wa4yhfgsk768xe4","","null","","","","null","","","SL-TRAIN","","","","","","","","","","","","","","2","null","null","sounds/A/TRAIN/SEQ__07.mp3","0","","","","","","","","","","","","","","","","","","","","",""
"html-button-response","238","1343145","0.0-6.0-1.0-11.0","1","1","wa4yhfgsk768xe4","","5840.5","","<p>You may take a short break if you wish.</p>","0","","","","","","","","","","","","","","","","","","","","","","","","","","","","","","","","","","","","","","","","","","",""
"html-button-response","239","1408447","0.0-7.0-0.0","1","1","wa4yhfgsk768xe4","","65307.5","","<p>Welcome to the second part of the study. This is a <u>familiarity task</u>.</p><p>You will now hear short sounds and will be asked to rate how familiar they sound to you <b>based on what you heard in the previous part of the study</b>.</p><p>You will rate 12 sounds in total.</p>","0","","","","","","","","","","","","","","","","","","","","","","","","","","","","","","","","","","","","","","","","","","",""
"html-keyboard-response","240","1409449","0.0-7.0-1.0-0.0","1","1","wa4yhfgsk768xe4","","null","","","","null","","","","","","","","","","","","","","","","","","","","","","","","","","","","","","","","","","","","","","","","","",""
"audio-keyboard-response","241","1410710","0.0-7.0-1.0-1.0","1","1","wa4yhfgsk768xe4","","null","","sounds/A/FAM/P003.mp3","","null","","","","","","","","","","","","","","","","","","","","","","","","","","","","","","","","","","","","","","","","","",""
"html-keyboard-response","242","1414484","0.0-7.0-1.0-2.0","1","1","wa4yhfgsk768xe4","","3271.900000035763","","<p>How familiar did this sound to you?</p><p>1&nbsp;&nbsp;&nbsp;&nbsp;&nbsp;&nbsp;&nbsp;&nbsp;&nbsp;&nbsp;&nbsp;&nbsp;&nbsp;&nbsp;&nbsp;&nbsp;&nbsp;&nbsp;&nbsp;2&nbsp;&nbsp;&nbsp;&nbsp;&nbsp;&nbsp;&nbsp;&nbsp;&nbsp;&nbsp;&nbsp;&nbsp;&nbsp;&nbsp;&nbsp;&nbsp;&nbsp;&nbsp;&nbsp;3&nbsp;&nbsp;&nbsp;&nbsp;&nbsp;&nbsp;&nbsp;&nbsp;&nbsp;&nbsp;&nbsp;&nbsp;&nbsp;&nbsp;&nbsp;&nbsp;&nbsp;&nbsp;&nbsp;4</p><p style=""font-size:14px"">Not at all familiar&nbsp;&nbsp;&nbsp;&nbsp;A little familiar&nbsp;&nbsp;&nbsp;Moderately familiar&nbsp;&nbsp;&nbsp;Extremely familiar</p><p>(press the corresponding number on your keyboard)</p>","","52","","","FAM-RESPONSE","","","","","","","","","","","","","","","","","","","sounds/A/FAM/P003.mp3","partword","","","","","","","","","","","","","","","","","","",""
"html-keyboard-response","243","1416490","0.0-7.0-1.0-0.1","1","1","wa4yhfgsk768xe4","","null","","","","null","","","","","","","","","","","","","","","","","","","","","","","","","","","","","","","","","","","","","","","","","",""
"audio-keyboard-response","244","1417432","0.0-7.0-1.0-1.1","1","1","wa4yhfgsk768xe4","","null","","sounds/A/FAM/N001.mp3","","null","","","","","","","","","","","","","","","","","","","","","","","","","","","","","","","","","","","","","","","","","",""
"html-keyboard-response","245","1419236","0.0-7.0-1.0-2.1","1","1","wa4yhfgsk768xe4","","1302","","<p>How familiar did this sound to you?</p><p>1&nbsp;&nbsp;&nbsp;&nbsp;&nbsp;&nbsp;&nbsp;&nbsp;&nbsp;&nbsp;&nbsp;&nbsp;&nbsp;&nbsp;&nbsp;&nbsp;&nbsp;&nbsp;&nbsp;2&nbsp;&nbsp;&nbsp;&nbsp;&nbsp;&nbsp;&nbsp;&nbsp;&nbsp;&nbsp;&nbsp;&nbsp;&nbsp;&nbsp;&nbsp;&nbsp;&nbsp;&nbsp;&nbsp;3&nbsp;&nbsp;&nbsp;&nbsp;&nbsp;&nbsp;&nbsp;&nbsp;&nbsp;&nbsp;&nbsp;&nbsp;&nbsp;&nbsp;&nbsp;&nbsp;&nbsp;&nbsp;&nbsp;4</p><p style=""font-size:14px"">Not at all familiar&nbsp;&nbsp;&nbsp;&nbsp;A little familiar&nbsp;&nbsp;&nbsp;Moderately familiar&nbsp;&nbsp;&nbsp;Extremely familiar</p><p>(press the corresponding number on your keyboard)</p>","","52","","","FAM-RESPONSE","","","","","","","","","","","","","","","","","","","sounds/A/FAM/N001.mp3","nonword","","","","","","","","","","","","","","","","","","",""
"html-keyboard-response","246","1421242","0.0-7.0-1.0-0.2","1","1","wa4yhfgsk768xe4","","null","","","","null","","","","","","","","","","","","","","","","","","","","","","","","","","","","","","","","","","","","","","","","","",""
"audio-keyboard-response","247","1422182","0.0-7.0-1.0-1.2","1","1","wa4yhfgsk768xe4","","null","","sounds/A/FAM/N003.mp3","","null","","","","","","","","","","","","","","","","","","","","","","","","","","","","","","","","","","","","","","","","","",""
"html-keyboard-response","248","1423450","0.0-7.0-1.0-2.2","1","1","wa4yhfgsk768xe4","","766.3999999761581","","<p>How familiar did this sound to you?</p><p>1&nbsp;&nbsp;&nbsp;&nbsp;&nbsp;&nbsp;&nbsp;&nbsp;&nbsp;&nbsp;&nbsp;&nbsp;&nbsp;&nbsp;&nbsp;&nbsp;&nbsp;&nbsp;&nbsp;2&nbsp;&nbsp;&nbsp;&nbsp;&nbsp;&nbsp;&nbsp;&nbsp;&nbsp;&nbsp;&nbsp;&nbsp;&nbsp;&nbsp;&nbsp;&nbsp;&nbsp;&nbsp;&nbsp;3&nbsp;&nbsp;&nbsp;&nbsp;&nbsp;&nbsp;&nbsp;&nbsp;&nbsp;&nbsp;&nbsp;&nbsp;&nbsp;&nbsp;&nbsp;&nbsp;&nbsp;&nbsp;&nbsp;4</p><p style=""font-size:14px"">Not at all familiar&nbsp;&nbsp;&nbsp;&nbsp;A little familiar&nbsp;&nbsp;&nbsp;Moderately familiar&nbsp;&nbsp;&nbsp;Extremely familiar</p><p>(press the corresponding number on your keyboard)</p>","","52","","","FAM-RESPONSE","","","","","","","","","","","","","","","","","","","sounds/A/FAM/N003.mp3","nonword","","","","","","","","","","","","","","","","","","",""
"html-keyboard-response","249","1425457","0.0-7.0-1.0-0.3","1","1","wa4yhfgsk768xe4","","null","","","","null","","","","","","","","","","","","","","","","","","","","","","","","","","","","","","","","","","","","","","","","","",""
"audio-keyboard-response","250","1426399","0.0-7.0-1.0-1.3","1","1","wa4yhfgsk768xe4","","null","","sounds/A/FAM/N002.mp3","","null","","","","","","","","","","","","","","","","","","","","","","","","","","","","","","","","","","","","","","","","","",""
"html-keyboard-response","251","1428606","0.0-7.0-1.0-2.3","1","1","wa4yhfgsk768xe4","","1703.699999988079","","<p>How familiar did this sound to you?</p><p>1&nbsp;&nbsp;&nbsp;&nbsp;&nbsp;&nbsp;&nbsp;&nbsp;&nbsp;&nbsp;&nbsp;&nbsp;&nbsp;&nbsp;&nbsp;&nbsp;&nbsp;&nbsp;&nbsp;2&nbsp;&nbsp;&nbsp;&nbsp;&nbsp;&nbsp;&nbsp;&nbsp;&nbsp;&nbsp;&nbsp;&nbsp;&nbsp;&nbsp;&nbsp;&nbsp;&nbsp;&nbsp;&nbsp;3&nbsp;&nbsp;&nbsp;&nbsp;&nbsp;&nbsp;&nbsp;&nbsp;&nbsp;&nbsp;&nbsp;&nbsp;&nbsp;&nbsp;&nbsp;&nbsp;&nbsp;&nbsp;&nbsp;4</p><p style=""font-size:14px"">Not at all familiar&nbsp;&nbsp;&nbsp;&nbsp;A little familiar&nbsp;&nbsp;&nbsp;Moderately familiar&nbsp;&nbsp;&nbsp;Extremely familiar</p><p>(press the corresponding number on your keyboard)</p>","","52","","","FAM-RESPONSE","","","","","","","","","","","","","","","","","","","sounds/A/FAM/N002.mp3","nonword","","","","","","","","","","","","","","","","","","",""
"html-keyboard-response","252","1430613","0.0-7.0-1.0-0.4","1","1","wa4yhfgsk768xe4","","null","","","","null","","","","","","","","","","","","","","","","","","","","","","","","","","","","","","","","","","","","","","","","","",""
"audio-keyboard-response","253","1431555","0.0-7.0-1.0-1.4","1","1","wa4yhfgsk768xe4","","null","","sounds/A/FAM/W003.mp3","","null","","","","","","","","","","","","","","","","","","","","","","","","","","","","","","","","","","","","","","","","","",""
"html-keyboard-response","254","1434136","0.0-7.0-1.0-2.4","1","1","wa4yhfgsk768xe4","","2077.5","","<p>How familiar did this sound to you?</p><p>1&nbsp;&nbsp;&nbsp;&nbsp;&nbsp;&nbsp;&nbsp;&nbsp;&nbsp;&nbsp;&nbsp;&nbsp;&nbsp;&nbsp;&nbsp;&nbsp;&nbsp;&nbsp;&nbsp;2&nbsp;&nbsp;&nbsp;&nbsp;&nbsp;&nbsp;&nbsp;&nbsp;&nbsp;&nbsp;&nbsp;&nbsp;&nbsp;&nbsp;&nbsp;&nbsp;&nbsp;&nbsp;&nbsp;3&nbsp;&nbsp;&nbsp;&nbsp;&nbsp;&nbsp;&nbsp;&nbsp;&nbsp;&nbsp;&nbsp;&nbsp;&nbsp;&nbsp;&nbsp;&nbsp;&nbsp;&nbsp;&nbsp;4</p><p style=""font-size:14px"">Not at all familiar&nbsp;&nbsp;&nbsp;&nbsp;A little familiar&nbsp;&nbsp;&nbsp;Moderately familiar&nbsp;&nbsp;&nbsp;Extremely familiar</p><p>(press the corresponding number on your keyboard)</p>","","51","","","FAM-RESPONSE","","","","","","","","","","","","","","","","","","","sounds/A/FAM/W003.mp3","word","","","","","","","","","","","","","","","","","","",""
"html-keyboard-response","255","1436142","0.0-7.0-1.0-0.5","1","1","wa4yhfgsk768xe4","","null","","","","null","","","","","","","","","","","","","","","","","","","","","","","","","","","","","","","","","","","","","","","","","",""
"audio-keyboard-response","256","1437085","0.0-7.0-1.0-1.5","1","1","wa4yhfgsk768xe4","","null","","sounds/A/FAM/W001.mp3","","null","","","","","","","","","","","","","","","","","","","","","","","","","","","","","","","","","","","","","","","","","",""
"html-keyboard-response","257","1438320","0.0-7.0-1.0-2.5","1","1","wa4yhfgsk768xe4","","731.5999999642372","","<p>How familiar did this sound to you?</p><p>1&nbsp;&nbsp;&nbsp;&nbsp;&nbsp;&nbsp;&nbsp;&nbsp;&nbsp;&nbsp;&nbsp;&nbsp;&nbsp;&nbsp;&nbsp;&nbsp;&nbsp;&nbsp;&nbsp;2&nbsp;&nbsp;&nbsp;&nbsp;&nbsp;&nbsp;&nbsp;&nbsp;&nbsp;&nbsp;&nbsp;&nbsp;&nbsp;&nbsp;&nbsp;&nbsp;&nbsp;&nbsp;&nbsp;3&nbsp;&nbsp;&nbsp;&nbsp;&nbsp;&nbsp;&nbsp;&nbsp;&nbsp;&nbsp;&nbsp;&nbsp;&nbsp;&nbsp;&nbsp;&nbsp;&nbsp;&nbsp;&nbsp;4</p><p style=""font-size:14px"">Not at all familiar&nbsp;&nbsp;&nbsp;&nbsp;A little familiar&nbsp;&nbsp;&nbsp;Moderately familiar&nbsp;&nbsp;&nbsp;Extremely familiar</p><p>(press the corresponding number on your keyboard)</p>","","51","","","FAM-RESPONSE","","","","","","","","","","","","","","","","","","","sounds/A/FAM/W001.mp3","word","","","","","","","","","","","","","","","","","","",""
"html-keyboard-response","258","1440325","0.0-7.0-1.0-0.6","1","1","wa4yhfgsk768xe4","","null","","","","null","","","","","","","","","","","","","","","","","","","","","","","","","","","","","","","","","","","","","","","","","",""
"audio-keyboard-response","259","1441266","0.0-7.0-1.0-1.6","1","1","wa4yhfgsk768xe4","","null","","sounds/A/FAM/P001.mp3","","null","","","","","","","","","","","","","","","","","","","","","","","","","","","","","","","","","","","","","","","","","",""
"html-keyboard-response","260","1442390","0.0-7.0-1.0-2.6","1","1","wa4yhfgsk768xe4","","619.6999999880791","","<p>How familiar did this sound to you?</p><p>1&nbsp;&nbsp;&nbsp;&nbsp;&nbsp;&nbsp;&nbsp;&nbsp;&nbsp;&nbsp;&nbsp;&nbsp;&nbsp;&nbsp;&nbsp;&nbsp;&nbsp;&nbsp;&nbsp;2&nbsp;&nbsp;&nbsp;&nbsp;&nbsp;&nbsp;&nbsp;&nbsp;&nbsp;&nbsp;&nbsp;&nbsp;&nbsp;&nbsp;&nbsp;&nbsp;&nbsp;&nbsp;&nbsp;3&nbsp;&nbsp;&nbsp;&nbsp;&nbsp;&nbsp;&nbsp;&nbsp;&nbsp;&nbsp;&nbsp;&nbsp;&nbsp;&nbsp;&nbsp;&nbsp;&nbsp;&nbsp;&nbsp;4</p><p style=""font-size:14px"">Not at all familiar&nbsp;&nbsp;&nbsp;&nbsp;A little familiar&nbsp;&nbsp;&nbsp;Moderately familiar&nbsp;&nbsp;&nbsp;Extremely familiar</p><p>(press the corresponding number on your keyboard)</p>","","51","","","FAM-RESPONSE","","","","","","","","","","","","","","","","","","","sounds/A/FAM/P001.mp3","partword","","","","","","","","","","","","","","","","","","",""
"html-keyboard-response","261","1444398","0.0-7.0-1.0-0.7","1","1","wa4yhfgsk768xe4","","null","","","","null","","","","","","","","","","","","","","","","","","","","","","","","","","","","","","","","","","","","","","","","","",""
"audio-keyboard-response","262","1445341","0.0-7.0-1.0-1.7","1","1","wa4yhfgsk768xe4","","null","","sounds/A/FAM/W002.mp3","","null","","","","","","","","","","","","","","","","","","","","","","","","","","","","","","","","","","","","","","","","","",""
"html-keyboard-response","263","1446332","0.0-7.0-1.0-2.7","1","1","wa4yhfgsk768xe4","","486.5","","<p>How familiar did this sound to you?</p><p>1&nbsp;&nbsp;&nbsp;&nbsp;&nbsp;&nbsp;&nbsp;&nbsp;&nbsp;&nbsp;&nbsp;&nbsp;&nbsp;&nbsp;&nbsp;&nbsp;&nbsp;&nbsp;&nbsp;2&nbsp;&nbsp;&nbsp;&nbsp;&nbsp;&nbsp;&nbsp;&nbsp;&nbsp;&nbsp;&nbsp;&nbsp;&nbsp;&nbsp;&nbsp;&nbsp;&nbsp;&nbsp;&nbsp;3&nbsp;&nbsp;&nbsp;&nbsp;&nbsp;&nbsp;&nbsp;&nbsp;&nbsp;&nbsp;&nbsp;&nbsp;&nbsp;&nbsp;&nbsp;&nbsp;&nbsp;&nbsp;&nbsp;4</p><p style=""font-size:14px"">Not at all familiar&nbsp;&nbsp;&nbsp;&nbsp;A little familiar&nbsp;&nbsp;&nbsp;Moderately familiar&nbsp;&nbsp;&nbsp;Extremely familiar</p><p>(press the corresponding number on your keyboard)</p>","","52","","","FAM-RESPONSE","","","","","","","","","","","","","","","","","","","sounds/A/FAM/W002.mp3","word","","","","","","","","","","","","","","","","","","",""
"html-keyboard-response","264","1448339","0.0-7.0-1.0-0.8","1","1","wa4yhfgsk768xe4","","null","","","","null","","","","","","","","","","","","","","","","","","","","","","","","","","","","","","","","","","","","","","","","","",""
"audio-keyboard-response","265","1449282","0.0-7.0-1.0-1.8","1","1","wa4yhfgsk768xe4","","null","","sounds/A/FAM/W004.mp3","","null","","","","","","","","","","","","","","","","","","","","","","","","","","","","","","","","","","","","","","","","","",""
"html-keyboard-response","266","1450244","0.0-7.0-1.0-2.8","1","1","wa4yhfgsk768xe4","","457.9000000357628","","<p>How familiar did this sound to you?</p><p>1&nbsp;&nbsp;&nbsp;&nbsp;&nbsp;&nbsp;&nbsp;&nbsp;&nbsp;&nbsp;&nbsp;&nbsp;&nbsp;&nbsp;&nbsp;&nbsp;&nbsp;&nbsp;&nbsp;2&nbsp;&nbsp;&nbsp;&nbsp;&nbsp;&nbsp;&nbsp;&nbsp;&nbsp;&nbsp;&nbsp;&nbsp;&nbsp;&nbsp;&nbsp;&nbsp;&nbsp;&nbsp;&nbsp;3&nbsp;&nbsp;&nbsp;&nbsp;&nbsp;&nbsp;&nbsp;&nbsp;&nbsp;&nbsp;&nbsp;&nbsp;&nbsp;&nbsp;&nbsp;&nbsp;&nbsp;&nbsp;&nbsp;4</p><p style=""font-size:14px"">Not at all familiar&nbsp;&nbsp;&nbsp;&nbsp;A little familiar&nbsp;&nbsp;&nbsp;Moderately familiar&nbsp;&nbsp;&nbsp;Extremely familiar</p><p>(press the corresponding number on your keyboard)</p>","","51","","","FAM-RESPONSE","","","","","","","","","","","","","","","","","","","sounds/A/FAM/W004.mp3","word","","","","","","","","","","","","","","","","","","",""
"html-keyboard-response","267","1452254","0.0-7.0-1.0-0.9","1","1","wa4yhfgsk768xe4","","null","","","","null","","","","","","","","","","","","","","","","","","","","","","","","","","","","","","","","","","","","","","","","","",""
"audio-keyboard-response","268","1453196","0.0-7.0-1.0-1.9","1","1","wa4yhfgsk768xe4","","null","","sounds/A/FAM/P002.mp3","","null","","","","","","","","","","","","","","","","","","","","","","","","","","","","","","","","","","","","","","","","","",""
"html-keyboard-response","269","1456686","0.0-7.0-1.0-2.9","1","1","wa4yhfgsk768xe4","","2987.699999988079","","<p>How familiar did this sound to you?</p><p>1&nbsp;&nbsp;&nbsp;&nbsp;&nbsp;&nbsp;&nbsp;&nbsp;&nbsp;&nbsp;&nbsp;&nbsp;&nbsp;&nbsp;&nbsp;&nbsp;&nbsp;&nbsp;&nbsp;2&nbsp;&nbsp;&nbsp;&nbsp;&nbsp;&nbsp;&nbsp;&nbsp;&nbsp;&nbsp;&nbsp;&nbsp;&nbsp;&nbsp;&nbsp;&nbsp;&nbsp;&nbsp;&nbsp;3&nbsp;&nbsp;&nbsp;&nbsp;&nbsp;&nbsp;&nbsp;&nbsp;&nbsp;&nbsp;&nbsp;&nbsp;&nbsp;&nbsp;&nbsp;&nbsp;&nbsp;&nbsp;&nbsp;4</p><p style=""font-size:14px"">Not at all familiar&nbsp;&nbsp;&nbsp;&nbsp;A little familiar&nbsp;&nbsp;&nbsp;Moderately familiar&nbsp;&nbsp;&nbsp;Extremely familiar</p><p>(press the corresponding number on your keyboard)</p>","","52","","","FAM-RESPONSE","","","","","","","","","","","","","","","","","","","sounds/A/FAM/P002.mp3","partword","","","","","","","","","","","","","","","","","","",""
"html-keyboard-response","270","1458691","0.0-7.0-1.0-0.10","1","1","wa4yhfgsk768xe4","","null","","","","null","","","","","","","","","","","","","","","","","","","","","","","","","","","","","","","","","","","","","","","","","",""
"audio-keyboard-response","271","1459634","0.0-7.0-1.0-1.10","1","1","wa4yhfgsk768xe4","","null","","sounds/A/FAM/N004.mp3","","null","","","","","","","","","","","","","","","","","","","","","","","","","","","","","","","","","","","","","","","","","",""
"html-keyboard-response","272","1461472","0.0-7.0-1.0-2.10","1","1","wa4yhfgsk768xe4","","1334.699999988079","","<p>How familiar did this sound to you?</p><p>1&nbsp;&nbsp;&nbsp;&nbsp;&nbsp;&nbsp;&nbsp;&nbsp;&nbsp;&nbsp;&nbsp;&nbsp;&nbsp;&nbsp;&nbsp;&nbsp;&nbsp;&nbsp;&nbsp;2&nbsp;&nbsp;&nbsp;&nbsp;&nbsp;&nbsp;&nbsp;&nbsp;&nbsp;&nbsp;&nbsp;&nbsp;&nbsp;&nbsp;&nbsp;&nbsp;&nbsp;&nbsp;&nbsp;3&nbsp;&nbsp;&nbsp;&nbsp;&nbsp;&nbsp;&nbsp;&nbsp;&nbsp;&nbsp;&nbsp;&nbsp;&nbsp;&nbsp;&nbsp;&nbsp;&nbsp;&nbsp;&nbsp;4</p><p style=""font-size:14px"">Not at all familiar&nbsp;&nbsp;&nbsp;&nbsp;A little familiar&nbsp;&nbsp;&nbsp;Moderately familiar&nbsp;&nbsp;&nbsp;Extremely familiar</p><p>(press the corresponding number on your keyboard)</p>","","52","","","FAM-RESPONSE","","","","","","","","","","","","","","","","","","","sounds/A/FAM/N004.mp3","nonword","","","","","","","","","","","","","","","","","","",""
"html-keyboard-response","273","1463478","0.0-7.0-1.0-0.11","1","1","wa4yhfgsk768xe4","","null","","","","null","","","","","","","","","","","","","","","","","","","","","","","","","","","","","","","","","","","","","","","","","",""
"audio-keyboard-response","274","1464423","0.0-7.0-1.0-1.11","1","1","wa4yhfgsk768xe4","","null","","sounds/A/FAM/P004.mp3","","null","","","","","","","","","","","","","","","","","","","","","","","","","","","","","","","","","","","","","","","","","",""
"html-keyboard-response","275","1465450","0.0-7.0-1.0-2.11","1","1","wa4yhfgsk768xe4","","524","","<p>How familiar did this sound to you?</p><p>1&nbsp;&nbsp;&nbsp;&nbsp;&nbsp;&nbsp;&nbsp;&nbsp;&nbsp;&nbsp;&nbsp;&nbsp;&nbsp;&nbsp;&nbsp;&nbsp;&nbsp;&nbsp;&nbsp;2&nbsp;&nbsp;&nbsp;&nbsp;&nbsp;&nbsp;&nbsp;&nbsp;&nbsp;&nbsp;&nbsp;&nbsp;&nbsp;&nbsp;&nbsp;&nbsp;&nbsp;&nbsp;&nbsp;3&nbsp;&nbsp;&nbsp;&nbsp;&nbsp;&nbsp;&nbsp;&nbsp;&nbsp;&nbsp;&nbsp;&nbsp;&nbsp;&nbsp;&nbsp;&nbsp;&nbsp;&nbsp;&nbsp;4</p><p style=""font-size:14px"">Not at all familiar&nbsp;&nbsp;&nbsp;&nbsp;A little familiar&nbsp;&nbsp;&nbsp;Moderately familiar&nbsp;&nbsp;&nbsp;Extremely familiar</p><p>(press the corresponding number on your keyboard)</p>","","51","","","FAM-RESPONSE","","","","","","","","","","","","","","","","","","","sounds/A/FAM/P004.mp3","partword","","","","","","","","","","","","","","","","","","",""
"html-button-response","276","1476087","0.0-8.0-0.0","1","1","wa4yhfgsk768xe4","","9635.400000035763","","<p>You will now listen to longer sound sequences.</p><p>Each sound sequence will last about 16 seconds.</p><p>On each trial, you will be given a <u>TARGET SOUND</u>. Your task is to listen very carefully for this sound.</p><p>Every time you hear the <u>TARGET SOUND</u>, you will press the <b>SPACEBAR</b> as quickly and accurately as you can.</p>","0","","","","","","","","","","","","","","","","","","","","","","","","","","","","","","","","","","","","","","","","","","",""
"html-button-response","277","1485104","0.0-8.0-1.0","1","1","wa4yhfgsk768xe4","","8759.300000011921","","<p>It is very important that you make your responses as quickly and accurately as possible.</p><p>To help you make your responses, you will be able to listen to the <u>TARGET SOUND</u> at the beginning of each trial.</p><p>There will be 36 total trials.</p><p><b>Note: This is meant to be a difficult task. We simply want you to try your best.</p>","0","","","","","","","","","","","","","","","","","","","","","","","","","","","","","","","","","","","","","","","","","","",""
"html-button-response","278","1487593","0.0-8.0-2.0-0.0","1","1","wa4yhfgsk768xe4","","2234.5","","<p>Trial 1 of 36</p>","0","","","","","","","","","","","","","","","","","","","","","","","","","PU","sounds/syllables/pu_SWS.wav","1200,7500,10200,12900","2","","","","","","","","","","","","","","",""
"html-keyboard-response","279","1490870","0.0-8.0-2.0-1.0","1","1","wa4yhfgsk768xe4","","3275.699999988079","","","","80","","","","","","","","","","","","","","","","","","","","","","","","PU","","1200,7500,10200,12900","2","","","","","","","","","","","","","","",""
"audio-keyboard-response","280","1491170","0.0-8.0-2.0-2.0-0.0","1","1","wa4yhfgsk768xe4","","null","","sounds/syllables/pu_SWS.wav","","null","","","","","","","","","","","","","","","","","","","","","","","","","","","","","","","","","","","","","","","","","",""
"html-keyboard-response","281","1492864","0.0-8.0-2.0-2.0-1.0","1","1","wa4yhfgsk768xe4","","1693.6000000238419","","<p>To replay the <u>TARGET SOUND</u>, press P.</p> When you are ready to begin, press SPACEBAR.","","80","","","","","","","","","","","","","","","","","","","","","","","","","","","","","","","","","","","","","","","","","",""
"audio-keyboard-response","282","1493671","0.0-8.0-2.0-2.1-0.1","1","1","wa4yhfgsk768xe4","","null","","sounds/syllables/pu_SWS.wav","","null","","","","","","","","","","","","","","","","","","","","","","","","","","","","","","","","","","","","","","","","","",""
"html-keyboard-response","283","1495485","0.0-8.0-2.0-2.1-1.1","1","1","wa4yhfgsk768xe4","","1812.8999999761581","","<p>To replay the <u>TARGET SOUND</u>, press P.</p> When you are ready to begin, press SPACEBAR.","","32","","","","","","","","","","","","","","","","","","","","","","","","","","","","","","","","","","","","","","","","","",""
"audio-keyboard-response","284","1510435","0.0-8.0-2.0-3.0","1","1","wa4yhfgsk768xe4","","523","","sounds/A/TD/PU_06_TD.mp3","","32","","","TD_SUMMARY","","","","","","","","","","","","","","","","","","","","","PU","","1200,7500,10200,12900","2","1200","7500","10200","12900","436.69999998807907","866.5999999642372","736.1999999880791","null","523.8000000119209_1636.699999988079_2409.800000011921_3988.300000011921_5370.699999988079_7997.899999976158_8366.599999964237_9927.899999976158_10936.199999988079_12723.300000011921","2","","","","",""
"html-button-response","285","1511977","0.0-8.0-2.0-0.1","1","1","wa4yhfgsk768xe4","","1540.800000011921","","<p>Trial 2 of 36</p>","0","","","","","","","","","","","","","","","","","","","","","","","","","TI","sounds/syllables/ti_SWS.wav","2100,5700,9300,11100","2","","","","","","","","","","","","","","",""
"html-keyboard-response","286","1513584","0.0-8.0-2.0-1.1","1","1","wa4yhfgsk768xe4","","1606.3999999761581","","","","80","","","","","","","","","","","","","","","","","","","","","","","","TI","","2100,5700,9300,11100","2","","","","","","","","","","","","","","",""
"audio-keyboard-response","287","1513885","0.0-8.0-2.0-2.2-0.2","1","1","wa4yhfgsk768xe4","","null","","sounds/syllables/ti_SWS.wav","","null","","","","","","","","","","","","","","","","","","","","","","","","","","","","","","","","","","","","","","","","","",""
"html-keyboard-response","288","1515921","0.0-8.0-2.0-2.2-1.2","1","1","wa4yhfgsk768xe4","","2035.2999999523163","","<p>To replay the <u>TARGET SOUND</u>, press P.</p> When you are ready to begin, press SPACEBAR.","","32","","","","","","","","","","","","","","","","","","","","","","","","","","","","","","","","","","","","","","","","","",""
"audio-keyboard-response","289","1530872","0.0-8.0-2.0-3.1","1","1","wa4yhfgsk768xe4","","485","","sounds/A/TD/TI_04_TD.mp3","","32","","","TD_SUMMARY","","","","","","","","","","","","","","","","","","","","","TI","","2100,5700,9300,11100","2","2100","5700","9300","11100","408.10000002384186","759.8000000119209","856.1000000238419","576.4000000357628","__________487.60000002384186_2508.100000023842_4829.800000011921_6459.800000011921_8196.600000023842_9646.5_10156.100000023842_11676.400000035763","1","","","","",""
"html-button-response","290","1532317","0.0-8.0-2.0-0.2","1","1","wa4yhfgsk768xe4","","1442.800000011921","","<p>Trial 3 of 36</p>","0","","","","","","","","","","","","","","","","","","","","","","","","","NI","sounds/syllables/ni_SWS.wav","3300,6900,9600,13200","3","","","","","","","","","","","","","","",""
"html-keyboard-response","291","1533834","0.0-8.0-2.0-1.2","1","1","wa4yhfgsk768xe4","","1516.5999999642372","","","","80","","","","","","","","","","","","","","","","","","","","","","","","NI","","3300,6900,9600,13200","3","","","","","","","","","","","","","","",""
"audio-keyboard-response","292","1534136","0.0-8.0-2.0-2.3-0.3","1","1","wa4yhfgsk768xe4","","null","","sounds/syllables/ni_SWS.wav","","null","","","","","","","","","","","","","","","","","","","","","","","","","","","","","","","","","","","","","","","","","",""
"html-keyboard-response","293","1535992","0.0-8.0-2.0-2.3-1.3","1","1","wa4yhfgsk768xe4","","1855.4000000357628","","<p>To replay the <u>TARGET SOUND</u>, press P.</p> When you are ready to begin, press SPACEBAR.","","80","","","","","","","","","","","","","","","","","","","","","","","","","","","","","","","","","","","","","","","","","",""
"audio-keyboard-response","294","1536798","0.0-8.0-2.0-2.4-0.4","1","1","wa4yhfgsk768xe4","","null","","sounds/syllables/ni_SWS.wav","","null","","","","","","","","","","","","","","","","","","","","","","","","","","","","","","","","","","","","","","","","","",""
"html-keyboard-response","295","1537570","0.0-8.0-2.0-2.4-1.4","1","1","wa4yhfgsk768xe4","","771.8999999761581","","<p>To replay the <u>TARGET SOUND</u>, press P.</p> When you are ready to begin, press SPACEBAR.","","32","","","","","","","","","","","","","","","","","","","","","","","","","","","","","","","","","","","","","","","","","",""
"audio-keyboard-response","296","1552521","0.0-8.0-2.0-3.2","1","1","wa4yhfgsk768xe4","","491","","sounds/A/TD/NI_08_TD.mp3","","32","","","TD_SUMMARY","","","","","","","","","","","","","","","","","","","","","NI","","3300,6900,9600,13200","3","3300","6900","9600","13200","696","662.2000000476837","1103.9000000357628","null","__________________489.2000000476837_2338.2000000476837_3996_7562.200000047684_9152.100000023842_10703.900000035763_13033.900000035763","2","","","","",""
"html-button-response","297","1553665","0.0-8.0-2.0-0.3","1","1","wa4yhfgsk768xe4","","1142.800000011921","","<p>Trial 4 of 36</p>","0","","","","","","","","","","","","","","","","","","","","","","","","","KO","sounds/syllables/ko_SWS.wav","3300,5100,9600,11400","3","","","","","","","","","","","","","","",""
"html-keyboard-response","298","1554947","0.0-8.0-2.0-1.3","1","1","wa4yhfgsk768xe4","","1280.6000000238419","","","","80","","","","","","","","","","","","","","","","","","","","","","","","KO","","3300,5100,9600,11400","3","","","","","","","","","","","","","","",""
"audio-keyboard-response","299","1555246","0.0-8.0-2.0-2.5-0.5","1","1","wa4yhfgsk768xe4","","null","","sounds/syllables/ko_SWS.wav","","null","","","","","","","","","","","","","","","","","","","","","","","","","","","","","","","","","","","","","","","","","",""
"html-keyboard-response","300","1582493","0.0-8.0-2.0-2.5-1.5","1","1","wa4yhfgsk768xe4","","27246.100000023842","","<p>To replay the <u>TARGET SOUND</u>, press P.</p> When you are ready to begin, press SPACEBAR.","","80","","","","","","","","","","","","","","","","","","","","","","","","","","","","","","","","","","","","","","","","","",""
"audio-keyboard-response","301","1583300","0.0-8.0-2.0-2.6-0.6","1","1","wa4yhfgsk768xe4","","null","","sounds/syllables/ko_SWS.wav","","null","","","","","","","","","","","","","","","","","","","","","","","","","","","","","","","","","","","","","","","","","",""
"html-keyboard-response","302","1584179","0.0-8.0-2.0-2.6-1.6","1","1","wa4yhfgsk768xe4","","878.1999999880791","","<p>To replay the <u>TARGET SOUND</u>, press P.</p> When you are ready to begin, press SPACEBAR.","","32","","","","","","","","","","","","","","","","","","","","","","","","","","","","","","","","","","","","","","","","","",""
"audio-keyboard-response","303","1599131","0.0-8.0-2.0-3.3","1","1","wa4yhfgsk768xe4","","1285","","sounds/A/TD/KO_01_TD.mp3","","32","","","TD_SUMMARY","","","","","","","","","","","","","","","","","","","","","KO","","3300,5100,9600,11400","3","3300","5100","9600","11400","392.4000000357628","null","800.1000000238419","null","_________________________1283.800000011921_3692.400000035763_10400.100000023842","2","","","","",""
"html-button-response","304","1600206","0.0-8.0-2.0-0.4","1","1","wa4yhfgsk768xe4","","1073.4000000357628","","<p>Trial 5 of 36</p>","0","","","","","","","","","","","","","","","","","","","","","","","","","GE","sounds/syllables/ge_SWS.wav","3000,5700,8400,12900","2","","","","","","","","","","","","","","",""
"html-keyboard-response","305","1601416","0.0-8.0-2.0-1.4","1","1","wa4yhfgsk768xe4","","1209.6000000238419","","","","80","","","","","","","","","","","","","","","","","","","","","","","","GE","","3000,5700,8400,12900","2","","","","","","","","","","","","","","",""
"audio-keyboard-response","306","1601717","0.0-8.0-2.0-2.7-0.7","1","1","wa4yhfgsk768xe4","","null","","sounds/syllables/ge_SWS.wav","","null","","","","","","","","","","","","","","","","","","","","","","","","","","","","","","","","","","","","","","","","","",""
"html-keyboard-response","307","1603010","0.0-8.0-2.0-2.7-1.7","1","1","wa4yhfgsk768xe4","","1293.199999988079","","<p>To replay the <u>TARGET SOUND</u>, press P.</p> When you are ready to begin, press SPACEBAR.","","32","","","","","","","","","","","","","","","","","","","","","","","","","","","","","","","","","","","","","","","","","",""
"audio-keyboard-response","308","1617957","0.0-8.0-2.0-3.4","1","1","wa4yhfgsk768xe4","","1563","","sounds/A/TD/GE_09_TD.mp3","","32","","","TD_SUMMARY","","","","","","","","","","","","","","","","","","","","","GE","","3000,5700,8400,12900","2","3000","5700","8400","12900","325.10000002384186","965.5","1119.199999988079","217.30000001192093","____________________________1560.300000011921_3325.100000023842_4246.699999988079_4457_6665.5_7221.900000035763_7426_8127.199999988079_8827.5_9306_9519.199999988079_10236.5_10802.800000011921_13117.300000011921_14197.699999988079","1","","","","",""
"html-button-response","309","1618806","0.0-8.0-2.0-0.5","1","1","wa4yhfgsk768xe4","","847.1999999880791","","<p>Trial 6 of 36</p>","0","","","","","","","","","","","","","","","","","","","","","","","","","RU","sounds/syllables/ru_SWS.wav","2700,6300,9000,11700","1","","","","","","","","","","","","","","",""
"html-keyboard-response","310","1619846","0.0-8.0-2.0-1.5","1","1","wa4yhfgsk768xe4","","1038.6000000238419","","","","80","","","","","","","","","","","","","","","","","","","","","","","","RU","","2700,6300,9000,11700","1","","","","","","","","","","","","","","",""
"audio-keyboard-response","311","1620150","0.0-8.0-2.0-2.8-0.8","1","1","wa4yhfgsk768xe4","","null","","sounds/syllables/ru_SWS.wav","","null","","","","","","","","","","","","","","","","","","","","","","","","","","","","","","","","","","","","","","","","","",""
"html-keyboard-response","312","1621044","0.0-8.0-2.0-2.8-1.8","1","1","wa4yhfgsk768xe4","","893.8999999761581","","<p>To replay the <u>TARGET SOUND</u>, press P.</p> When you are ready to begin, press SPACEBAR.","","32","","","","","","","","","","","","","","","","","","","","","","","","","","","","","","","","","","","","","","","","","",""
