"trial_type","trial_index","time_elapsed","internal_node_id","counterbalance","lang_instruct","ParticipantID","view_history","rt","url","stimulus","button_pressed","key_press","correctRESP","correct","designation","location","correctanswer","responses","sentence","keywords","typed_resp","keyword1_acc","keyword2_acc","keyword3_acc","keyword4_acc","keyword5_acc","total_acc","prop_acc","timeouts","pause_rt01","pause_rt02","train_file","numKeyPress","sound","fam_type","SYLLABLE","EXEMPLAR","TD_LOCS","TD_TYPE","TDLOC_01","TDLOC_02","TDLOC_03","TDLOC_04","TD_RT_01","TD_RT_02","TD_RT_03","TD_RT_04","TD_SUBJ_RTs","number_of_plays","slider_start","response","question_order","syllable","syllable_type"
"pavlovia","0","5","0.0-0.0","2","1","c6f2j8gzehnh9sa","","","","","","","","","","","","","","","","","","","","","","","","","","","","","","","","","","","","","","","","","","","","","","","",""
"instructions","1","29675","0.0-1.0","2","1","c6f2j8gzehnh9sa","[{""page_index"":0,""viewing_time"":4951.20000000298},{""page_index"":1,""viewing_time"":24714.89999999851}]","29669.39999999851","","","","","","","","","","","","","","","","","","","","","","","","","","","","","","","","","","","","","","","","","","","","","",""
"external-html","2","34760","0.0-2.0","2","1","c6f2j8gzehnh9sa","","4969","consent/consent.html","","","","","","","","","","","","","","","","","","","","","","","","","","","","","","","","","","","","","","","","","","","","",""
"html-button-response","3","44664","0.0-3.0-0.0-0.0","2","1","c6f2j8gzehnh9sa","","9902.10000000149","","<p>Welcome to the study. You will first complete a short volume calibration and headphone check.</p><p>Please make sure you are in a quiet listening environment, that you are wearing headphones, and that your computer's volume is turned on.<p></p>","0","","","","","","","","","","","","","","","","","","","","","","","","","","","","","","","","","","","","","","","","","","",""
"html-button-response","4","50669","0.0-3.0-0.0-1.0","2","1","c6f2j8gzehnh9sa","","5743.79999999702","","<p>The volume calibration will be first.</p><p>You will hear a thirty-second noise. Please adjust your computer's volume so that this noise is being presented at a comfortable level.<p></p>","0","","","","","","","","","","","","","","","","","","","","","","","","","","","","","","","","","","","","","","","","","","",""
"audio-button-response","5","56277","0.0-3.0-0.0-2.0","2","1","c6f2j8gzehnh9sa","","5291","","audCalib/volumetest.mp3","0","","","","","","","","","","","","","","","","","","","","","","","","","","","","","","","","","","","","","","","","","","",""
"html-button-response","6","70369","0.0-3.0-1.0-0.0","2","1","c6f2j8gzehnh9sa","","14091","","<p>You will now complete a short headphone check.</p><p>On each trial, you will hear three tones. One of these tones will be quieter than the others. Your task is to identify whether the quiet tone occured first, second, or third.</p><p>There are six trials in total.<p></p>","0","","","","","","","","","","","","","","","","","","","","","","","","","","","","","","","","","","","","","","","","","","",""
"html-keyboard-response","7","71144","0.0-3.0-1.0-1.0-0.0","2","1","c6f2j8gzehnh9sa","","null","","<div style=""font-size:60px;"">+</div>","","null","","","","","","","","","","","","","","","","","","","","","","","","","","","","","","","","","","","","","","","","","",""
"audio-button-response","8","79212","0.0-3.0-1.0-1.0-1.0","2","1","c6f2j8gzehnh9sa","","8061","","audCalib/t2_2.mp3","1","","1","1","headphone-test","","","","","","","","","","","","","","","","","","","","","","","","","","","","","","","","","","","","","","",""
"html-keyboard-response","9","79965","0.0-3.0-1.0-1.0-0.1","2","1","c6f2j8gzehnh9sa","","null","","<div style=""font-size:60px;"">+</div>","","null","","","","","","","","","","","","","","","","","","","","","","","","","","","","","","","","","","","","","","","","","",""
"audio-button-response","10","84463","0.0-3.0-1.0-1.0-1.1","2","1","c6f2j8gzehnh9sa","","4499","","audCalib/t3_1.mp3","2","","2","1","headphone-test","","","","","","","","","","","","","","","","","","","","","","","","","","","","","","","","","","","","","","",""
"html-keyboard-response","11","85215","0.0-3.0-1.0-1.0-0.2","2","1","c6f2j8gzehnh9sa","","null","","<div style=""font-size:60px;"">+</div>","","null","","","","","","","","","","","","","","","","","","","","","","","","","","","","","","","","","","","","","","","","","",""
"audio-button-response","12","91096","0.0-3.0-1.0-1.0-1.2","2","1","c6f2j8gzehnh9sa","","5880","","audCalib/t2_1.mp3","1","","1","1","headphone-test","","","","","","","","","","","","","","","","","","","","","","","","","","","","","","","","","","","","","","",""
"html-keyboard-response","13","91848","0.0-3.0-1.0-1.0-0.3","2","1","c6f2j8gzehnh9sa","","null","","<div style=""font-size:60px;"">+</div>","","null","","","","","","","","","","","","","","","","","","","","","","","","","","","","","","","","","","","","","","","","","",""
"audio-button-response","14","96632","0.0-3.0-1.0-1.0-1.3","2","1","c6f2j8gzehnh9sa","","4779","","audCalib/t1_1.mp3","0","","0","1","headphone-test","","","","","","","","","","","","","","","","","","","","","","","","","","","","","","","","","","","","","","",""
"html-keyboard-response","15","97390","0.0-3.0-1.0-1.0-0.4","2","1","c6f2j8gzehnh9sa","","null","","<div style=""font-size:60px;"">+</div>","","null","","","","","","","","","","","","","","","","","","","","","","","","","","","","","","","","","","","","","","","","","",""
"audio-button-response","16","101950","0.0-3.0-1.0-1.0-1.4","2","1","c6f2j8gzehnh9sa","","4560","","audCalib/t1_2.mp3","0","","0","1","headphone-test","","","","","","","","","","","","","","","","","","","","","","","","","","","","","","","","","","","","","","",""
"html-keyboard-response","17","102713","0.0-3.0-1.0-1.0-0.5","2","1","c6f2j8gzehnh9sa","","null","","<div style=""font-size:60px;"">+</div>","","null","","","","","","","","","","","","","","","","","","","","","","","","","","","","","","","","","","","","","","","","","",""
"audio-button-response","18","107601","0.0-3.0-1.0-1.0-1.5","2","1","c6f2j8gzehnh9sa","","4880","","audCalib/t3_2.mp3","2","","2","1","headphone-test","","","","","","","","","","","","","","","","","","","","","","","","","","","","","","","","","","","","","","",""
"html-button-response","19","109672","0.0-3.0-2.0","2","1","c6f2j8gzehnh9sa","","1819.2999999970198","","<p>The volume calibration and headphone check are now complete.</p>","0","","","","","","","","","","","","","","","","","","","","","","","","","","","","","","","","","","","","","","","","","","",""
"instructions","20","125113","0.0-4.0-0.0","2","1","c6f2j8gzehnh9sa","[{""page_index"":0,""viewing_time"":1610.5},{""page_index"":1,""viewing_time"":11078},{""page_index"":2,""viewing_time"":2752}]","15440.69999999553","","","","","","","","","","","","","","","","","","","","","","","","","","","","","","","","","","","","","","","","","","","","","",""
"audio-keyboard-response","21","125422","0.0-4.0-1.0-0.0","2","1","c6f2j8gzehnh9sa","","null","","sounds/induction/left/ko_SWS.wav","","null","","","","","","","","","","","","","","","","","","","","","","","","","","","","","","","","","","","","","","","","","",""
"html-button-response","22","134039","0.0-4.0-1.0-1.0","2","1","c6f2j8gzehnh9sa","","8616.30000000447","","What sound did you hear?","0","","","0","INDUCTION-JUDGMENT","left","1","","","","","","","","","","","","","","","","","","","","","","","","","","","","","","","","","","","","",""
"html-keyboard-response","23","135044","0.0-4.0-1.0-2.0","2","1","c6f2j8gzehnh9sa","","null","","<p style=""color:red;""><b>Incorrect!</b></p>","","null","","","","","","","","","","","","","","","","","","","","","","","","","","","","","","","","","","","","","","","","","",""
"audio-keyboard-response","24","135842","0.0-4.0-1.0-0.1","2","1","c6f2j8gzehnh9sa","","null","","sounds/induction/right/fu_SWS.wav","","null","","","","","","","","","","","","","","","","","","","","","","","","","","","","","","","","","","","","","","","","","",""
"html-button-response","25","139799","0.0-4.0-1.0-1.1","2","1","c6f2j8gzehnh9sa","","3956.7999999970198","","What sound did you hear?","1","","","0","INDUCTION-JUDGMENT","right","0","","","","","","","","","","","","","","","","","","","","","","","","","","","","","","","","","","","","",""
"html-keyboard-response","26","140800","0.0-4.0-1.0-2.1","2","1","c6f2j8gzehnh9sa","","null","","<p style=""color:red;""><b>Incorrect!</b></p>","","null","","","","","","","","","","","","","","","","","","","","","","","","","","","","","","","","","","","","","","","","","",""
"audio-keyboard-response","27","141602","0.0-4.0-1.0-0.2","2","1","c6f2j8gzehnh9sa","","null","","sounds/induction/right/ni_SWS.wav","","null","","","","","","","","","","","","","","","","","","","","","","","","","","","","","","","","","","","","","","","","","",""
"html-button-response","28","143179","0.0-4.0-1.0-1.2","2","1","c6f2j8gzehnh9sa","","1576.5","","What sound did you hear?","1","","","0","INDUCTION-JUDGMENT","right","0","","","","","","","","","","","","","","","","","","","","","","","","","","","","","","","","","","","","",""
"html-keyboard-response","29","144180","0.0-4.0-1.0-2.2","2","1","c6f2j8gzehnh9sa","","null","","<p style=""color:red;""><b>Incorrect!</b></p>","","null","","","","","","","","","","","","","","","","","","","","","","","","","","","","","","","","","","","","","","","","","",""
"audio-keyboard-response","30","144982","0.0-4.0-1.0-0.3","2","1","c6f2j8gzehnh9sa","","null","","sounds/induction/right/ru_SWS.wav","","null","","","","","","","","","","","","","","","","","","","","","","","","","","","","","","","","","","","","","","","","","",""
"html-button-response","31","146528","0.0-4.0-1.0-1.3","2","1","c6f2j8gzehnh9sa","","1545.6000000014901","","What sound did you hear?","1","","","1","INDUCTION-JUDGMENT","right","1","","","","","","","","","","","","","","","","","","","","","","","","","","","","","","","","","","","","",""
"html-keyboard-response","32","147530","0.0-4.0-1.0-2.3","2","1","c6f2j8gzehnh9sa","","null","","<p style=""color:green;""><b>Correct!</b></p>","","null","","","","","","","","","","","","","","","","","","","","","","","","","","","","","","","","","","","","","","","","","",""
"audio-keyboard-response","33","148322","0.0-4.0-1.0-0.4","2","1","c6f2j8gzehnh9sa","","null","","sounds/induction/right/me_SWS.wav","","null","","","","","","","","","","","","","","","","","","","","","","","","","","","","","","","","","","","","","","","","","",""
"html-button-response","34","151881","0.0-4.0-1.0-1.4","2","1","c6f2j8gzehnh9sa","","3558.9000000059605","","What sound did you hear?","0","","","1","INDUCTION-JUDGMENT","right","0","","","","","","","","","","","","","","","","","","","","","","","","","","","","","","","","","","","","",""
"html-keyboard-response","35","152892","0.0-4.0-1.0-2.4","2","1","c6f2j8gzehnh9sa","","null","","<p style=""color:green;""><b>Correct!</b></p>","","null","","","","","","","","","","","","","","","","","","","","","","","","","","","","","","","","","","","","","","","","","",""
"audio-keyboard-response","36","153702","0.0-4.0-1.0-0.5","2","1","c6f2j8gzehnh9sa","","null","","sounds/induction/left/fe_SWS.wav","","null","","","","","","","","","","","","","","","","","","","","","","","","","","","","","","","","","","","","","","","","","",""
"html-button-response","37","155256","0.0-4.0-1.0-1.5","2","1","c6f2j8gzehnh9sa","","1554.1000000014901","","What sound did you hear?","0","","","0","INDUCTION-JUDGMENT","left","1","","","","","","","","","","","","","","","","","","","","","","","","","","","","","","","","","","","","",""
"html-keyboard-response","38","156257","0.0-4.0-1.0-2.5","2","1","c6f2j8gzehnh9sa","","null","","<p style=""color:red;""><b>Incorrect!</b></p>","","null","","","","","","","","","","","","","","","","","","","","","","","","","","","","","","","","","","","","","","","","","",""
"audio-keyboard-response","39","157062","0.0-4.0-1.0-0.6","2","1","c6f2j8gzehnh9sa","","null","","sounds/induction/right/me_SWS.wav","","null","","","","","","","","","","","","","","","","","","","","","","","","","","","","","","","","","","","","","","","","","",""
"html-button-response","40","158879","0.0-4.0-1.0-1.6","2","1","c6f2j8gzehnh9sa","","1816.3999999985099","","What sound did you hear?","0","","","1","INDUCTION-JUDGMENT","right","0","","","","","","","","","","","","","","","","","","","","","","","","","","","","","","","","","","","","",""
"html-keyboard-response","41","159881","0.0-4.0-1.0-2.6","2","1","c6f2j8gzehnh9sa","","null","","<p style=""color:green;""><b>Correct!</b></p>","","null","","","","","","","","","","","","","","","","","","","","","","","","","","","","","","","","","","","","","","","","","",""
"audio-keyboard-response","42","160682","0.0-4.0-1.0-0.7","2","1","c6f2j8gzehnh9sa","","null","","sounds/induction/right/pu_SWS.wav","","null","","","","","","","","","","","","","","","","","","","","","","","","","","","","","","","","","","","","","","","","","",""
"html-button-response","43","162470","0.0-4.0-1.0-1.7","2","1","c6f2j8gzehnh9sa","","1786.9000000059605","","What sound did you hear?","1","","","1","INDUCTION-JUDGMENT","right","1","","","","","","","","","","","","","","","","","","","","","","","","","","","","","","","","","","","","",""
"html-keyboard-response","44","163479","0.0-4.0-1.0-2.7","2","1","c6f2j8gzehnh9sa","","null","","<p style=""color:green;""><b>Correct!</b></p>","","null","","","","","","","","","","","","","","","","","","","","","","","","","","","","","","","","","","","","","","","","","",""
"audio-keyboard-response","45","164302","0.0-4.0-1.0-0.8","2","1","c6f2j8gzehnh9sa","","null","","sounds/induction/left/ti_SWS.wav","","null","","","","","","","","","","","","","","","","","","","","","","","","","","","","","","","","","","","","","","","","","",""
"html-button-response","46","167399","0.0-4.0-1.0-1.8","2","1","c6f2j8gzehnh9sa","","3095.5","","What sound did you hear?","0","","","1","INDUCTION-JUDGMENT","left","0","","","","","","","","","","","","","","","","","","","","","","","","","","","","","","","","","","","","",""
"html-keyboard-response","47","168400","0.0-4.0-1.0-2.8","2","1","c6f2j8gzehnh9sa","","null","","<p style=""color:green;""><b>Correct!</b></p>","","null","","","","","","","","","","","","","","","","","","","","","","","","","","","","","","","","","","","","","","","","","",""
"audio-keyboard-response","48","169193","0.0-4.0-1.0-0.9","2","1","c6f2j8gzehnh9sa","","null","","sounds/induction/right/su_SWS.wav","","null","","","","","","","","","","","","","","","","","","","","","","","","","","","","","","","","","","","","","","","","","",""
"html-button-response","49","171309","0.0-4.0-1.0-1.9","2","1","c6f2j8gzehnh9sa","","2115.39999999851","","What sound did you hear?","0","","","0","INDUCTION-JUDGMENT","right","1","","","","","","","","","","","","","","","","","","","","","","","","","","","","","","","","","","","","",""
"html-keyboard-response","50","172310","0.0-4.0-1.0-2.9","2","1","c6f2j8gzehnh9sa","","null","","<p style=""color:red;""><b>Incorrect!</b></p>","","null","","","","","","","","","","","","","","","","","","","","","","","","","","","","","","","","","","","","","","","","","",""
"audio-keyboard-response","51","173112","0.0-4.0-1.0-0.10","2","1","c6f2j8gzehnh9sa","","null","","sounds/induction/right/re_SWS.wav","","null","","","","","","","","","","","","","","","","","","","","","","","","","","","","","","","","","","","","","","","","","",""
"html-button-response","52","174704","0.0-4.0-1.0-1.10","2","1","c6f2j8gzehnh9sa","","1591","","What sound did you hear?","1","","","1","INDUCTION-JUDGMENT","right","1","","","","","","","","","","","","","","","","","","","","","","","","","","","","","","","","","","","","",""
"html-keyboard-response","53","175706","0.0-4.0-1.0-2.10","2","1","c6f2j8gzehnh9sa","","null","","<p style=""color:green;""><b>Correct!</b></p>","","null","","","","","","","","","","","","","","","","","","","","","","","","","","","","","","","","","","","","","","","","","",""
"audio-keyboard-response","54","176512","0.0-4.0-1.0-0.11","2","1","c6f2j8gzehnh9sa","","null","","sounds/induction/left/pu_SWS.wav","","null","","","","","","","","","","","","","","","","","","","","","","","","","","","","","","","","","","","","","","","","","",""
"html-button-response","55","177657","0.0-4.0-1.0-1.11","2","1","c6f2j8gzehnh9sa","","1144.3000000044703","","What sound did you hear?","0","","","1","INDUCTION-JUDGMENT","left","0","","","","","","","","","","","","","","","","","","","","","","","","","","","","","","","","","","","","",""
"html-keyboard-response","56","178658","0.0-4.0-1.0-2.11","2","1","c6f2j8gzehnh9sa","","null","","<p style=""color:green;""><b>Correct!</b></p>","","null","","","","","","","","","","","","","","","","","","","","","","","","","","","","","","","","","","","","","","","","","",""
"audio-keyboard-response","57","179472","0.0-4.0-1.0-0.12","2","1","c6f2j8gzehnh9sa","","null","","sounds/induction/left/ko_SWS.wav","","null","","","","","","","","","","","","","","","","","","","","","","","","","","","","","","","","","","","","","","","","","",""
"html-button-response","58","180840","0.0-4.0-1.0-1.12","2","1","c6f2j8gzehnh9sa","","1367.1000000014901","","What sound did you hear?","1","","","1","INDUCTION-JUDGMENT","left","1","","","","","","","","","","","","","","","","","","","","","","","","","","","","","","","","","","","","",""
"html-keyboard-response","59","181841","0.0-4.0-1.0-2.12","2","1","c6f2j8gzehnh9sa","","null","","<p style=""color:green;""><b>Correct!</b></p>","","null","","","","","","","","","","","","","","","","","","","","","","","","","","","","","","","","","","","","","","","","","",""
"audio-keyboard-response","60","182632","0.0-4.0-1.0-0.13","2","1","c6f2j8gzehnh9sa","","null","","sounds/induction/right/ru_SWS.wav","","null","","","","","","","","","","","","","","","","","","","","","","","","","","","","","","","","","","","","","","","","","",""
"html-button-response","61","183969","0.0-4.0-1.0-1.13","2","1","c6f2j8gzehnh9sa","","1335.7000000029802","","What sound did you hear?","1","","","1","INDUCTION-JUDGMENT","right","1","","","","","","","","","","","","","","","","","","","","","","","","","","","","","","","","","","","","",""
"html-keyboard-response","62","184973","0.0-4.0-1.0-2.13","2","1","c6f2j8gzehnh9sa","","null","","<p style=""color:green;""><b>Correct!</b></p>","","null","","","","","","","","","","","","","","","","","","","","","","","","","","","","","","","","","","","","","","","","","",""
"audio-keyboard-response","63","185792","0.0-4.0-1.0-0.14","2","1","c6f2j8gzehnh9sa","","null","","sounds/induction/right/pu_SWS.wav","","null","","","","","","","","","","","","","","","","","","","","","","","","","","","","","","","","","","","","","","","","","",""
"html-button-response","64","186799","0.0-4.0-1.0-1.14","2","1","c6f2j8gzehnh9sa","","1005.3999999985099","","What sound did you hear?","1","","","1","INDUCTION-JUDGMENT","right","1","","","","","","","","","","","","","","","","","","","","","","","","","","","","","","","","","","","","",""
"html-keyboard-response","65","187815","0.0-4.0-1.0-2.14","2","1","c6f2j8gzehnh9sa","","null","","<p style=""color:green;""><b>Correct!</b></p>","","null","","","","","","","","","","","","","","","","","","","","","","","","","","","","","","","","","","","","","","","","","",""
"audio-keyboard-response","66","188623","0.0-4.0-1.0-0.15","2","1","c6f2j8gzehnh9sa","","null","","sounds/induction/left/su_SWS.wav","","null","","","","","","","","","","","","","","","","","","","","","","","","","","","","","","","","","","","","","","","","","",""
"html-button-response","67","189551","0.0-4.0-1.0-1.15","2","1","c6f2j8gzehnh9sa","","927.3000000044703","","What sound did you hear?","0","","","1","INDUCTION-JUDGMENT","left","0","","","","","","","","","","","","","","","","","","","","","","","","","","","","","","","","","","","","",""
"html-keyboard-response","68","190552","0.0-4.0-1.0-2.15","2","1","c6f2j8gzehnh9sa","","null","","<p style=""color:green;""><b>Correct!</b></p>","","null","","","","","","","","","","","","","","","","","","","","","","","","","","","","","","","","","","","","","","","","","",""
"audio-keyboard-response","69","191352","0.0-4.0-1.0-0.16","2","1","c6f2j8gzehnh9sa","","null","","sounds/induction/left/me_SWS.wav","","null","","","","","","","","","","","","","","","","","","","","","","","","","","","","","","","","","","","","","","","","","",""
"html-button-response","70","192773","0.0-4.0-1.0-1.16","2","1","c6f2j8gzehnh9sa","","1419.1999999955297","","What sound did you hear?","1","","","1","INDUCTION-JUDGMENT","left","1","","","","","","","","","","","","","","","","","","","","","","","","","","","","","","","","","","","","",""
"html-keyboard-response","71","193775","0.0-4.0-1.0-2.16","2","1","c6f2j8gzehnh9sa","","null","","<p style=""color:green;""><b>Correct!</b></p>","","null","","","","","","","","","","","","","","","","","","","","","","","","","","","","","","","","","","","","","","","","","",""
"audio-keyboard-response","72","194582","0.0-4.0-1.0-0.17","2","1","c6f2j8gzehnh9sa","","null","","sounds/induction/left/ti_SWS.wav","","null","","","","","","","","","","","","","","","","","","","","","","","","","","","","","","","","","","","","","","","","","",""
"html-button-response","73","195512","0.0-4.0-1.0-1.17","2","1","c6f2j8gzehnh9sa","","929","","What sound did you hear?","0","","","1","INDUCTION-JUDGMENT","left","0","","","","","","","","","","","","","","","","","","","","","","","","","","","","","","","","","","","","",""
"html-keyboard-response","74","196525","0.0-4.0-1.0-2.17","2","1","c6f2j8gzehnh9sa","","null","","<p style=""color:green;""><b>Correct!</b></p>","","null","","","","","","","","","","","","","","","","","","","","","","","","","","","","","","","","","","","","","","","","","",""
"audio-keyboard-response","75","197323","0.0-4.0-1.0-0.18","2","1","c6f2j8gzehnh9sa","","null","","sounds/induction/right/su_SWS.wav","","null","","","","","","","","","","","","","","","","","","","","","","","","","","","","","","","","","","","","","","","","","",""
"html-button-response","76","198489","0.0-4.0-1.0-1.18","2","1","c6f2j8gzehnh9sa","","1165.3999999985099","","What sound did you hear?","0","","","0","INDUCTION-JUDGMENT","right","1","","","","","","","","","","","","","","","","","","","","","","","","","","","","","","","","","","","","",""
"html-keyboard-response","77","199490","0.0-4.0-1.0-2.18","2","1","c6f2j8gzehnh9sa","","null","","<p style=""color:red;""><b>Incorrect!</b></p>","","null","","","","","","","","","","","","","","","","","","","","","","","","","","","","","","","","","","","","","","","","","",""
"audio-keyboard-response","78","200312","0.0-4.0-1.0-0.19","2","1","c6f2j8gzehnh9sa","","null","","sounds/induction/left/me_SWS.wav","","null","","","","","","","","","","","","","","","","","","","","","","","","","","","","","","","","","","","","","","","","","",""
"html-button-response","79","201455","0.0-4.0-1.0-1.19","2","1","c6f2j8gzehnh9sa","","1141.8000000044703","","What sound did you hear?","1","","","1","INDUCTION-JUDGMENT","left","1","","","","","","","","","","","","","","","","","","","","","","","","","","","","","","","","","","","","",""
"html-keyboard-response","80","202456","0.0-4.0-1.0-2.19","2","1","c6f2j8gzehnh9sa","","null","","<p style=""color:green;""><b>Correct!</b></p>","","null","","","","","","","","","","","","","","","","","","","","","","","","","","","","","","","","","","","","","","","","","",""
"audio-keyboard-response","81","203272","0.0-4.0-1.0-0.20","2","1","c6f2j8gzehnh9sa","","null","","sounds/induction/right/re_SWS.wav","","null","","","","","","","","","","","","","","","","","","","","","","","","","","","","","","","","","","","","","","","","","",""
"html-button-response","82","204254","0.0-4.0-1.0-1.20","2","1","c6f2j8gzehnh9sa","","980.7000000029802","","What sound did you hear?","1","","","1","INDUCTION-JUDGMENT","right","1","","","","","","","","","","","","","","","","","","","","","","","","","","","","","","","","","","","","",""
"html-keyboard-response","83","205256","0.0-4.0-1.0-2.20","2","1","c6f2j8gzehnh9sa","","null","","<p style=""color:green;""><b>Correct!</b></p>","","null","","","","","","","","","","","","","","","","","","","","","","","","","","","","","","","","","","","","","","","","","",""
"audio-keyboard-response","84","206063","0.0-4.0-1.0-0.21","2","1","c6f2j8gzehnh9sa","","null","","sounds/induction/right/ti_SWS.wav","","null","","","","","","","","","","","","","","","","","","","","","","","","","","","","","","","","","","","","","","","","","",""
"html-button-response","85","207230","0.0-4.0-1.0-1.21","2","1","c6f2j8gzehnh9sa","","1166.2999999970198","","What sound did you hear?","1","","","1","INDUCTION-JUDGMENT","right","1","","","","","","","","","","","","","","","","","","","","","","","","","","","","","","","","","","","","",""
"html-keyboard-response","86","208230","0.0-4.0-1.0-2.21","2","1","c6f2j8gzehnh9sa","","null","","<p style=""color:green;""><b>Correct!</b></p>","","null","","","","","","","","","","","","","","","","","","","","","","","","","","","","","","","","","","","","","","","","","",""
"audio-keyboard-response","87","209032","0.0-4.0-1.0-0.22","2","1","c6f2j8gzehnh9sa","","null","","sounds/induction/left/ge_SWS.wav","","null","","","","","","","","","","","","","","","","","","","","","","","","","","","","","","","","","","","","","","","","","",""
"html-button-response","88","209982","0.0-4.0-1.0-1.22","2","1","c6f2j8gzehnh9sa","","948.7000000029802","","What sound did you hear?","1","","","1","INDUCTION-JUDGMENT","left","1","","","","","","","","","","","","","","","","","","","","","","","","","","","","","","","","","","","","",""
"html-keyboard-response","89","210983","0.0-4.0-1.0-2.22","2","1","c6f2j8gzehnh9sa","","null","","<p style=""color:green;""><b>Correct!</b></p>","","null","","","","","","","","","","","","","","","","","","","","","","","","","","","","","","","","","","","","","","","","","",""
"audio-keyboard-response","90","211792","0.0-4.0-1.0-0.23","2","1","c6f2j8gzehnh9sa","","null","","sounds/induction/left/fu_SWS.wav","","null","","","","","","","","","","","","","","","","","","","","","","","","","","","","","","","","","","","","","","","","","",""
"html-button-response","91","212650","0.0-4.0-1.0-1.23","2","1","c6f2j8gzehnh9sa","","856.3999999985099","","What sound did you hear?","1","","","1","INDUCTION-JUDGMENT","left","1","","","","","","","","","","","","","","","","","","","","","","","","","","","","","","","","","","","","",""
"html-keyboard-response","92","213651","0.0-4.0-1.0-2.23","2","1","c6f2j8gzehnh9sa","","null","","<p style=""color:green;""><b>Correct!</b></p>","","null","","","","","","","","","","","","","","","","","","","","","","","","","","","","","","","","","","","","","","","","","",""
"audio-keyboard-response","93","214473","0.0-4.0-1.0-0.24","2","1","c6f2j8gzehnh9sa","","null","","sounds/induction/right/fu_SWS.wav","","null","","","","","","","","","","","","","","","","","","","","","","","","","","","","","","","","","","","","","","","","","",""
"html-button-response","94","215250","0.0-4.0-1.0-1.24","2","1","c6f2j8gzehnh9sa","","776.3999999985099","","What sound did you hear?","1","","","0","INDUCTION-JUDGMENT","right","0","","","","","","","","","","","","","","","","","","","","","","","","","","","","","","","","","","","","",""
"html-keyboard-response","95","216251","0.0-4.0-1.0-2.24","2","1","c6f2j8gzehnh9sa","","null","","<p style=""color:red;""><b>Incorrect!</b></p>","","null","","","","","","","","","","","","","","","","","","","","","","","","","","","","","","","","","","","","","","","","","",""
"audio-keyboard-response","96","217062","0.0-4.0-1.0-0.25","2","1","c6f2j8gzehnh9sa","","null","","sounds/induction/left/ru_SWS.wav","","null","","","","","","","","","","","","","","","","","","","","","","","","","","","","","","","","","","","","","","","","","",""
"html-button-response","97","218074","0.0-4.0-1.0-1.25","2","1","c6f2j8gzehnh9sa","","1011.2000000029802","","What sound did you hear?","0","","","1","INDUCTION-JUDGMENT","left","0","","","","","","","","","","","","","","","","","","","","","","","","","","","","","","","","","","","","",""
"html-keyboard-response","98","219084","0.0-4.0-1.0-2.25","2","1","c6f2j8gzehnh9sa","","null","","<p style=""color:green;""><b>Correct!</b></p>","","null","","","","","","","","","","","","","","","","","","","","","","","","","","","","","","","","","","","","","","","","","",""
"audio-keyboard-response","99","219902","0.0-4.0-1.0-0.26","2","1","c6f2j8gzehnh9sa","","null","","sounds/induction/right/ta_SWS.wav","","null","","","","","","","","","","","","","","","","","","","","","","","","","","","","","","","","","","","","","","","","","",""
"html-button-response","100","221639","0.0-4.0-1.0-1.26","2","1","c6f2j8gzehnh9sa","","1736.2000000029802","","What sound did you hear?","0","","","0","INDUCTION-JUDGMENT","right","1","","","","","","","","","","","","","","","","","","","","","","","","","","","","","","","","","","","","",""
"html-keyboard-response","101","222649","0.0-4.0-1.0-2.26","2","1","c6f2j8gzehnh9sa","","null","","<p style=""color:red;""><b>Incorrect!</b></p>","","null","","","","","","","","","","","","","","","","","","","","","","","","","","","","","","","","","","","","","","","","","",""
"audio-keyboard-response","102","223462","0.0-4.0-1.0-0.27","2","1","c6f2j8gzehnh9sa","","null","","sounds/induction/right/fe_SWS.wav","","null","","","","","","","","","","","","","","","","","","","","","","","","","","","","","","","","","","","","","","","","","",""
"html-button-response","103","224436","0.0-4.0-1.0-1.27","2","1","c6f2j8gzehnh9sa","","973.5","","What sound did you hear?","1","","","0","INDUCTION-JUDGMENT","right","0","","","","","","","","","","","","","","","","","","","","","","","","","","","","","","","","","","","","",""
"html-keyboard-response","104","225437","0.0-4.0-1.0-2.27","2","1","c6f2j8gzehnh9sa","","null","","<p style=""color:red;""><b>Incorrect!</b></p>","","null","","","","","","","","","","","","","","","","","","","","","","","","","","","","","","","","","","","","","","","","","",""
"audio-keyboard-response","105","226232","0.0-4.0-1.0-0.28","2","1","c6f2j8gzehnh9sa","","null","","sounds/induction/right/ta_SWS.wav","","null","","","","","","","","","","","","","","","","","","","","","","","","","","","","","","","","","","","","","","","","","",""
"html-button-response","106","227391","0.0-4.0-1.0-1.28","2","1","c6f2j8gzehnh9sa","","1158.5","","What sound did you hear?","1","","","1","INDUCTION-JUDGMENT","right","1","","","","","","","","","","","","","","","","","","","","","","","","","","","","","","","","","","","","",""
"html-keyboard-response","107","228392","0.0-4.0-1.0-2.28","2","1","c6f2j8gzehnh9sa","","null","","<p style=""color:green;""><b>Correct!</b></p>","","null","","","","","","","","","","","","","","","","","","","","","","","","","","","","","","","","","","","","","","","","","",""
"audio-keyboard-response","108","229192","0.0-4.0-1.0-0.29","2","1","c6f2j8gzehnh9sa","","null","","sounds/induction/right/ti_SWS.wav","","null","","","","","","","","","","","","","","","","","","","","","","","","","","","","","","","","","","","","","","","","","",""
"html-button-response","109","230201","0.0-4.0-1.0-1.29","2","1","c6f2j8gzehnh9sa","","1008.7000000029802","","What sound did you hear?","1","","","1","INDUCTION-JUDGMENT","right","1","","","","","","","","","","","","","","","","","","","","","","","","","","","","","","","","","","","","",""
"html-keyboard-response","110","231202","0.0-4.0-1.0-2.29","2","1","c6f2j8gzehnh9sa","","null","","<p style=""color:green;""><b>Correct!</b></p>","","null","","","","","","","","","","","","","","","","","","","","","","","","","","","","","","","","","","","","","","","","","",""
"audio-keyboard-response","111","232002","0.0-4.0-1.0-0.30","2","1","c6f2j8gzehnh9sa","","null","","sounds/induction/left/ru_SWS.wav","","null","","","","","","","","","","","","","","","","","","","","","","","","","","","","","","","","","","","","","","","","","",""
"html-button-response","112","232617","0.0-4.0-1.0-1.30","2","1","c6f2j8gzehnh9sa","","614.5","","What sound did you hear?","0","","","1","INDUCTION-JUDGMENT","left","0","","","","","","","","","","","","","","","","","","","","","","","","","","","","","","","","","","","","",""
"html-keyboard-response","113","233618","0.0-4.0-1.0-2.30","2","1","c6f2j8gzehnh9sa","","null","","<p style=""color:green;""><b>Correct!</b></p>","","null","","","","","","","","","","","","","","","","","","","","","","","","","","","","","","","","","","","","","","","","","",""
"audio-keyboard-response","114","234432","0.0-4.0-1.0-0.31","2","1","c6f2j8gzehnh9sa","","null","","sounds/induction/left/fu_SWS.wav","","null","","","","","","","","","","","","","","","","","","","","","","","","","","","","","","","","","","","","","","","","","",""
"html-button-response","115","235154","0.0-4.0-1.0-1.31","2","1","c6f2j8gzehnh9sa","","721.6000000014901","","What sound did you hear?","1","","","1","INDUCTION-JUDGMENT","left","1","","","","","","","","","","","","","","","","","","","","","","","","","","","","","","","","","","","","",""
"html-keyboard-response","116","236156","0.0-4.0-1.0-2.31","2","1","c6f2j8gzehnh9sa","","null","","<p style=""color:green;""><b>Correct!</b></p>","","null","","","","","","","","","","","","","","","","","","","","","","","","","","","","","","","","","","","","","","","","","",""
"audio-keyboard-response","117","236951","0.0-4.0-1.0-0.32","2","1","c6f2j8gzehnh9sa","","null","","sounds/induction/left/fe_SWS.wav","","null","","","","","","","","","","","","","","","","","","","","","","","","","","","","","","","","","","","","","","","","","",""
"html-button-response","118","237799","0.0-4.0-1.0-1.32","2","1","c6f2j8gzehnh9sa","","847.3000000044703","","What sound did you hear?","0","","","0","INDUCTION-JUDGMENT","left","1","","","","","","","","","","","","","","","","","","","","","","","","","","","","","","","","","","","","",""
"html-keyboard-response","119","238800","0.0-4.0-1.0-2.32","2","1","c6f2j8gzehnh9sa","","null","","<p style=""color:red;""><b>Incorrect!</b></p>","","null","","","","","","","","","","","","","","","","","","","","","","","","","","","","","","","","","","","","","","","","","",""
"audio-keyboard-response","120","239622","0.0-4.0-1.0-0.33","2","1","c6f2j8gzehnh9sa","","null","","sounds/induction/left/ni_SWS.wav","","null","","","","","","","","","","","","","","","","","","","","","","","","","","","","","","","","","","","","","","","","","",""
"html-button-response","121","241121","0.0-4.0-1.0-1.33","2","1","c6f2j8gzehnh9sa","","1498.3999999985099","","What sound did you hear?","1","","","1","INDUCTION-JUDGMENT","left","1","","","","","","","","","","","","","","","","","","","","","","","","","","","","","","","","","","","","",""
"html-keyboard-response","122","242122","0.0-4.0-1.0-2.33","2","1","c6f2j8gzehnh9sa","","null","","<p style=""color:green;""><b>Correct!</b></p>","","null","","","","","","","","","","","","","","","","","","","","","","","","","","","","","","","","","","","","","","","","","",""
"audio-keyboard-response","123","242922","0.0-4.0-1.0-0.34","2","1","c6f2j8gzehnh9sa","","null","","sounds/induction/right/ge_SWS.wav","","null","","","","","","","","","","","","","","","","","","","","","","","","","","","","","","","","","","","","","","","","","",""
"html-button-response","124","244173","0.0-4.0-1.0-1.34","2","1","c6f2j8gzehnh9sa","","1250.3999999985099","","What sound did you hear?","0","","","1","INDUCTION-JUDGMENT","right","0","","","","","","","","","","","","","","","","","","","","","","","","","","","","","","","","","","","","",""
"html-keyboard-response","125","245175","0.0-4.0-1.0-2.34","2","1","c6f2j8gzehnh9sa","","null","","<p style=""color:green;""><b>Correct!</b></p>","","null","","","","","","","","","","","","","","","","","","","","","","","","","","","","","","","","","","","","","","","","","",""
"audio-keyboard-response","126","245992","0.0-4.0-1.0-0.35","2","1","c6f2j8gzehnh9sa","","null","","sounds/induction/right/ge_SWS.wav","","null","","","","","","","","","","","","","","","","","","","","","","","","","","","","","","","","","","","","","","","","","",""
"html-button-response","127","246700","0.0-4.0-1.0-1.35","2","1","c6f2j8gzehnh9sa","","707.3999999985099","","What sound did you hear?","0","","","1","INDUCTION-JUDGMENT","right","0","","","","","","","","","","","","","","","","","","","","","","","","","","","","","","","","","","","","",""
"html-keyboard-response","128","247702","0.0-4.0-1.0-2.35","2","1","c6f2j8gzehnh9sa","","null","","<p style=""color:green;""><b>Correct!</b></p>","","null","","","","","","","","","","","","","","","","","","","","","","","","","","","","","","","","","","","","","","","","","",""
"audio-keyboard-response","129","248511","0.0-4.0-1.0-0.36","2","1","c6f2j8gzehnh9sa","","null","","sounds/induction/left/re_SWS.wav","","null","","","","","","","","","","","","","","","","","","","","","","","","","","","","","","","","","","","","","","","","","",""
"html-button-response","130","249798","0.0-4.0-1.0-1.36","2","1","c6f2j8gzehnh9sa","","1286","","What sound did you hear?","0","","","1","INDUCTION-JUDGMENT","left","0","","","","","","","","","","","","","","","","","","","","","","","","","","","","","","","","","","","","",""
"html-keyboard-response","131","250814","0.0-4.0-1.0-2.36","2","1","c6f2j8gzehnh9sa","","null","","<p style=""color:green;""><b>Correct!</b></p>","","null","","","","","","","","","","","","","","","","","","","","","","","","","","","","","","","","","","","","","","","","","",""
"audio-keyboard-response","132","251631","0.0-4.0-1.0-0.37","2","1","c6f2j8gzehnh9sa","","null","","sounds/induction/right/fe_SWS.wav","","null","","","","","","","","","","","","","","","","","","","","","","","","","","","","","","","","","","","","","","","","","",""
"html-button-response","133","252890","0.0-4.0-1.0-1.37","2","1","c6f2j8gzehnh9sa","","1258.3000000044703","","What sound did you hear?","1","","","0","INDUCTION-JUDGMENT","right","0","","","","","","","","","","","","","","","","","","","","","","","","","","","","","","","","","","","","",""
"html-keyboard-response","134","253891","0.0-4.0-1.0-2.37","2","1","c6f2j8gzehnh9sa","","null","","<p style=""color:red;""><b>Incorrect!</b></p>","","null","","","","","","","","","","","","","","","","","","","","","","","","","","","","","","","","","","","","","","","","","",""
"audio-keyboard-response","135","254702","0.0-4.0-1.0-0.38","2","1","c6f2j8gzehnh9sa","","null","","sounds/induction/left/re_SWS.wav","","null","","","","","","","","","","","","","","","","","","","","","","","","","","","","","","","","","","","","","","","","","",""
"html-button-response","136","255413","0.0-4.0-1.0-1.38","2","1","c6f2j8gzehnh9sa","","710.7000000029802","","What sound did you hear?","0","","","1","INDUCTION-JUDGMENT","left","0","","","","","","","","","","","","","","","","","","","","","","","","","","","","","","","","","","","","",""
"html-keyboard-response","137","256422","0.0-4.0-1.0-2.38","2","1","c6f2j8gzehnh9sa","","null","","<p style=""color:green;""><b>Correct!</b></p>","","null","","","","","","","","","","","","","","","","","","","","","","","","","","","","","","","","","","","","","","","","","",""
"audio-keyboard-response","138","257232","0.0-4.0-1.0-0.39","2","1","c6f2j8gzehnh9sa","","null","","sounds/induction/left/ta_SWS.wav","","null","","","","","","","","","","","","","","","","","","","","","","","","","","","","","","","","","","","","","","","","","",""
"html-button-response","139","258149","0.0-4.0-1.0-1.39","2","1","c6f2j8gzehnh9sa","","916.6000000014901","","What sound did you hear?","0","","","1","INDUCTION-JUDGMENT","left","0","","","","","","","","","","","","","","","","","","","","","","","","","","","","","","","","","","","","",""
"html-keyboard-response","140","259156","0.0-4.0-1.0-2.39","2","1","c6f2j8gzehnh9sa","","null","","<p style=""color:green;""><b>Correct!</b></p>","","null","","","","","","","","","","","","","","","","","","","","","","","","","","","","","","","","","","","","","","","","","",""
"audio-keyboard-response","141","259961","0.0-4.0-1.0-0.40","2","1","c6f2j8gzehnh9sa","","null","","sounds/induction/right/ko_SWS.wav","","null","","","","","","","","","","","","","","","","","","","","","","","","","","","","","","","","","","","","","","","","","",""
"html-button-response","142","261436","0.0-4.0-1.0-1.40","2","1","c6f2j8gzehnh9sa","","1474","","What sound did you hear?","0","","","1","INDUCTION-JUDGMENT","right","0","","","","","","","","","","","","","","","","","","","","","","","","","","","","","","","","","","","","",""
"html-keyboard-response","143","262444","0.0-4.0-1.0-2.40","2","1","c6f2j8gzehnh9sa","","null","","<p style=""color:green;""><b>Correct!</b></p>","","null","","","","","","","","","","","","","","","","","","","","","","","","","","","","","","","","","","","","","","","","","",""
"audio-keyboard-response","144","263261","0.0-4.0-1.0-0.41","2","1","c6f2j8gzehnh9sa","","null","","sounds/induction/left/pu_SWS.wav","","null","","","","","","","","","","","","","","","","","","","","","","","","","","","","","","","","","","","","","","","","","",""
"html-button-response","145","264231","0.0-4.0-1.0-1.41","2","1","c6f2j8gzehnh9sa","","969.2000000029802","","What sound did you hear?","0","","","1","INDUCTION-JUDGMENT","left","0","","","","","","","","","","","","","","","","","","","","","","","","","","","","","","","","","","","","",""
"html-keyboard-response","146","265238","0.0-4.0-1.0-2.41","2","1","c6f2j8gzehnh9sa","","null","","<p style=""color:green;""><b>Correct!</b></p>","","null","","","","","","","","","","","","","","","","","","","","","","","","","","","","","","","","","","","","","","","","","",""
"audio-keyboard-response","147","266032","0.0-4.0-1.0-0.42","2","1","c6f2j8gzehnh9sa","","null","","sounds/induction/right/ko_SWS.wav","","null","","","","","","","","","","","","","","","","","","","","","","","","","","","","","","","","","","","","","","","","","",""
"html-button-response","148","266732","0.0-4.0-1.0-1.42","2","1","c6f2j8gzehnh9sa","","699.2999999970198","","What sound did you hear?","0","","","1","INDUCTION-JUDGMENT","right","0","","","","","","","","","","","","","","","","","","","","","","","","","","","","","","","","","","","","",""
"html-keyboard-response","149","267733","0.0-4.0-1.0-2.42","2","1","c6f2j8gzehnh9sa","","null","","<p style=""color:green;""><b>Correct!</b></p>","","null","","","","","","","","","","","","","","","","","","","","","","","","","","","","","","","","","","","","","","","","","",""
"audio-keyboard-response","150","268542","0.0-4.0-1.0-0.43","2","1","c6f2j8gzehnh9sa","","null","","sounds/induction/left/su_SWS.wav","","null","","","","","","","","","","","","","","","","","","","","","","","","","","","","","","","","","","","","","","","","","",""
"html-button-response","151","269795","0.0-4.0-1.0-1.43","2","1","c6f2j8gzehnh9sa","","1252.8000000044703","","What sound did you hear?","0","","","1","INDUCTION-JUDGMENT","left","0","","","","","","","","","","","","","","","","","","","","","","","","","","","","","","","","","","","","",""
"html-keyboard-response","152","270804","0.0-4.0-1.0-2.43","2","1","c6f2j8gzehnh9sa","","null","","<p style=""color:green;""><b>Correct!</b></p>","","null","","","","","","","","","","","","","","","","","","","","","","","","","","","","","","","","","","","","","","","","","",""
"audio-keyboard-response","153","271622","0.0-4.0-1.0-0.44","2","1","c6f2j8gzehnh9sa","","null","","sounds/induction/left/ge_SWS.wav","","null","","","","","","","","","","","","","","","","","","","","","","","","","","","","","","","","","","","","","","","","","",""
"html-button-response","154","272599","0.0-4.0-1.0-1.44","2","1","c6f2j8gzehnh9sa","","976.9000000059605","","What sound did you hear?","1","","","1","INDUCTION-JUDGMENT","left","1","","","","","","","","","","","","","","","","","","","","","","","","","","","","","","","","","","","","",""
"html-keyboard-response","155","273606","0.0-4.0-1.0-2.44","2","1","c6f2j8gzehnh9sa","","null","","<p style=""color:green;""><b>Correct!</b></p>","","null","","","","","","","","","","","","","","","","","","","","","","","","","","","","","","","","","","","","","","","","","",""
"audio-keyboard-response","156","274422","0.0-4.0-1.0-0.45","2","1","c6f2j8gzehnh9sa","","null","","sounds/induction/left/ta_SWS.wav","","null","","","","","","","","","","","","","","","","","","","","","","","","","","","","","","","","","","","","","","","","","",""
"html-button-response","157","276032","0.0-4.0-1.0-1.45","2","1","c6f2j8gzehnh9sa","","1609.7999999970198","","What sound did you hear?","0","","","1","INDUCTION-JUDGMENT","left","0","","","","","","","","","","","","","","","","","","","","","","","","","","","","","","","","","","","","",""
"html-keyboard-response","158","277043","0.0-4.0-1.0-2.45","2","1","c6f2j8gzehnh9sa","","null","","<p style=""color:green;""><b>Correct!</b></p>","","null","","","","","","","","","","","","","","","","","","","","","","","","","","","","","","","","","","","","","","","","","",""
"audio-keyboard-response","159","277842","0.0-4.0-1.0-0.46","2","1","c6f2j8gzehnh9sa","","null","","sounds/induction/right/ni_SWS.wav","","null","","","","","","","","","","","","","","","","","","","","","","","","","","","","","","","","","","","","","","","","","",""
"html-button-response","160","279193","0.0-4.0-1.0-1.46","2","1","c6f2j8gzehnh9sa","","1350.5","","What sound did you hear?","0","","","1","INDUCTION-JUDGMENT","right","0","","","","","","","","","","","","","","","","","","","","","","","","","","","","","","","","","","","","",""
"html-keyboard-response","161","280194","0.0-4.0-1.0-2.46","2","1","c6f2j8gzehnh9sa","","null","","<p style=""color:green;""><b>Correct!</b></p>","","null","","","","","","","","","","","","","","","","","","","","","","","","","","","","","","","","","","","","","","","","","",""
"audio-keyboard-response","162","280992","0.0-4.0-1.0-0.47","2","1","c6f2j8gzehnh9sa","","null","","sounds/induction/left/ni_SWS.wav","","null","","","","","","","","","","","","","","","","","","","","","","","","","","","","","","","","","","","","","","","","","",""
"html-button-response","163","281733","0.0-4.0-1.0-1.47","2","1","c6f2j8gzehnh9sa","","740.5","","What sound did you hear?","1","","","1","INDUCTION-JUDGMENT","left","1","","","","","","","","","","","","","","","","","","","","","","","","","","","","","","","","","","","","",""
"html-keyboard-response","164","282735","0.0-4.0-1.0-2.47","2","1","c6f2j8gzehnh9sa","","null","","<p style=""color:green;""><b>Correct!</b></p>","","null","","","","","","","","","","","","","","","","","","","","","","","","","","","","","","","","","","","","","","","","","",""
"html-button-response","165","300685","0.0-5.0-0.0","2","1","c6f2j8gzehnh9sa","","17448.20000000298","","<p>Thank you for your answers.</p><p>You will now listen to similar sounds. The main difference is that the sounds will be longer and will make up complete sentences.</p><p>Please listen carefully to each sentence. After each sentence, you will be asked to type back what you heard to the best of your ability. After you provide your response, you will be given feedback about the correct answer.</p><p>There are 10 sentences in total.","0","","","","","","","","","","","","","","","","","","","","","","","","","","","","","","","","","","","","","","","","","","",""
"audio-keyboard-response","166","303282","0.0-5.0-1.0-0.0","2","1","c6f2j8gzehnh9sa","","null","","sounds/sentences/left/14_03_cfSWS.wav","","null","","","","","","","","","","","","","","","","","","","","","","","","","","","","","","","","","","","","","","","","","",""
"sentence-resp","167","339942","0.0-5.0-1.0-1.0","2","1","c6f2j8gzehnh9sa","","36658","","","","","","","SWS-SENT-RESPONSE","","","{""Q0"":""Please put the kettle on the stove""}","Pluck the bright rose without leaves.","pluck,bright,rose,without,leaves","PLEASE PUT THE KETTLE ON THE STOVE","0","0","0","0","0","0","0","","","","","","","","","","","","","","","","","","","","","","","","","",""
"html-keyboard-response","168","341196","0.0-5.0-1.0-2.0","2","1","c6f2j8gzehnh9sa","","null","","","","null","","","","","","","","","","","","","","","","","","","","","","","","","","","","","","","","","","","","","","","","","",""
"audio-keyboard-response","169","343312","0.0-5.0-1.0-3.0","2","1","c6f2j8gzehnh9sa","","null","","sounds/sentences/left/14_03_cfSWS.wav","","null","","","","","","","","","","","","","","","","","","","","","","","","","","","","","","","","","","","","","","","","","",""
"html-keyboard-response","170","344315","0.0-5.0-1.0-4.0","2","1","c6f2j8gzehnh9sa","","null","","","","null","","","","","","","","","","","","","","","","","","","","","","","","","","","","","","","","","","","","","","","","","",""
"html-button-response","171","347667","0.0-5.0-1.0-5.0","2","1","c6f2j8gzehnh9sa","","2837.39999999851","","<p>Press the button below when you are ready to continue.</p>","0","","","","","","","","","","","","","","","","","","","","","","","","","","","","","","","","","","","","","","","","","","",""
"audio-keyboard-response","172","350232","0.0-5.0-1.0-0.1","2","1","c6f2j8gzehnh9sa","","null","","sounds/sentences/left/14_04_cfSWS.wav","","null","","","","","","","","","","","","","","","","","","","","","","","","","","","","","","","","","","","","","","","","","",""
"sentence-resp","173","359578","0.0-5.0-1.0-1.1","2","1","c6f2j8gzehnh9sa","","9346","","","","","","","SWS-SENT-RESPONSE","","","{""Q0"":""What are you doing on friday night\n""}","Two plus seven is less than ten.","two,plus,seven,less,ten","WHAT ARE YOU DOING ON FRIDAY NIGHT ","0","0","0","0","0","0","0","","","","","","","","","","","","","","","","","","","","","","","","","",""
"html-keyboard-response","174","360857","0.0-5.0-1.0-2.1","2","1","c6f2j8gzehnh9sa","","null","","","","null","","","","","","","","","","","","","","","","","","","","","","","","","","","","","","","","","","","","","","","","","",""
"audio-keyboard-response","175","362912","0.0-5.0-1.0-3.1","2","1","c6f2j8gzehnh9sa","","null","","sounds/sentences/left/14_04_cfSWS.wav","","null","","","","","","","","","","","","","","","","","","","","","","","","","","","","","","","","","","","","","","","","","",""
"html-keyboard-response","176","363913","0.0-5.0-1.0-4.1","2","1","c6f2j8gzehnh9sa","","null","","","","null","","","","","","","","","","","","","","","","","","","","","","","","","","","","","","","","","","","","","","","","","",""
"html-button-response","177","365780","0.0-5.0-1.0-5.1","2","1","c6f2j8gzehnh9sa","","1355.1000000014901","","<p>Press the button below when you are ready to continue.</p>","0","","","","","","","","","","","","","","","","","","","","","","","","","","","","","","","","","","","","","","","","","","",""
"audio-keyboard-response","178","368912","0.0-5.0-1.0-0.2","2","1","c6f2j8gzehnh9sa","","null","","sounds/sentences/left/14_01_cfSWS.wav","","null","","","","","","","","","","","","","","","","","","","","","","","","","","","","","","","","","","","","","","","","","",""
"sentence-resp","179","383194","0.0-5.0-1.0-1.2","2","1","c6f2j8gzehnh9sa","","14281","","","","","","","SWS-SENT-RESPONSE","","","{""Q0"":""Please give me a box of chocolates I'm hungry\n""}","A cramp is no small danger on a swim.","cramp,no,small,danger,swim","PLEASE GIVE ME A BOX OF CHOCOLATES I'M HUNGRY ","0","0","0","0","0","0","0","","","","","","","","","","","","","","","","","","","","","","","","","",""
"html-keyboard-response","180","384455","0.0-5.0-1.0-2.2","2","1","c6f2j8gzehnh9sa","","null","","","","null","","","","","","","","","","","","","","","","","","","","","","","","","","","","","","","","","","","","","","","","","",""
"audio-keyboard-response","181","387072","0.0-5.0-1.0-3.2","2","1","c6f2j8gzehnh9sa","","null","","sounds/sentences/left/14_01_cfSWS.wav","","null","","","","","","","","","","","","","","","","","","","","","","","","","","","","","","","","","","","","","","","","","",""
"html-keyboard-response","182","388073","0.0-5.0-1.0-4.2","2","1","c6f2j8gzehnh9sa","","null","","","","null","","","","","","","","","","","","","","","","","","","","","","","","","","","","","","","","","","","","","","","","","",""
"html-button-response","183","389743","0.0-5.0-1.0-5.2","2","1","c6f2j8gzehnh9sa","","1162.6000000014901","","<p>Press the button below when you are ready to continue.</p>","0","","","","","","","","","","","","","","","","","","","","","","","","","","","","","","","","","","","","","","","","","","",""
"audio-keyboard-response","184","392572","0.0-5.0-1.0-0.3","2","1","c6f2j8gzehnh9sa","","null","","sounds/sentences/left/14_02_cfSWS.wav","","null","","","","","","","","","","","","","","","","","","","","","","","","","","","","","","","","","","","","","","","","","",""
"sentence-resp","185","408253","0.0-5.0-1.0-1.3","2","1","c6f2j8gzehnh9sa","","15680","","","","","","","SWS-SENT-RESPONSE","","","{""Q0"":""Sorry, I don't know where the washroom is.""}","He said the same phrase thirty times.","said,same,phrase,thirty,times","SORRY I DON'T KNOW WHERE THE WASHROOM IS","0","0","0","0","0","0","0","","","","","","","","","","","","","","","","","","","","","","","","","",""
"html-keyboard-response","186","409507","0.0-5.0-1.0-2.3","2","1","c6f2j8gzehnh9sa","","null","","","","null","","","","","","","","","","","","","","","","","","","","","","","","","","","","","","","","","","","","","","","","","",""
"audio-keyboard-response","187","411822","0.0-5.0-1.0-3.3","2","1","c6f2j8gzehnh9sa","","null","","sounds/sentences/left/14_02_cfSWS.wav","","null","","","","","","","","","","","","","","","","","","","","","","","","","","","","","","","","","","","","","","","","","",""
"html-keyboard-response","188","412822","0.0-5.0-1.0-4.3","2","1","c6f2j8gzehnh9sa","","null","","","","null","","","","","","","","","","","","","","","","","","","","","","","","","","","","","","","","","","","","","","","","","",""
"html-button-response","189","415047","0.0-5.0-1.0-5.3","2","1","c6f2j8gzehnh9sa","","1713.1999999955297","","<p>Press the button below when you are ready to continue.</p>","0","","","","","","","","","","","","","","","","","","","","","","","","","","","","","","","","","","","","","","","","","","",""
"audio-keyboard-response","190","418031","0.0-5.0-1.0-0.4","2","1","c6f2j8gzehnh9sa","","null","","sounds/sentences/left/14_05_cfSWS.wav","","null","","","","","","","","","","","","","","","","","","","","","","","","","","","","","","","","","","","","","","","","","",""
"sentence-resp","191","435878","0.0-5.0-1.0-1.4","2","1","c6f2j8gzehnh9sa","","17845","","","","","","","SWS-SENT-RESPONSE","","","{""Q0"":""Slowly take your hands off of the steering wheel""}","The glow deepened in the eyes of the sweet girl.","glow,deepened,eyes,sweet,girl","SLOWLY TAKE YOUR HANDS OFF OF THE STEERING WHEEL","0","0","0","0","0","0","0","","","","","","","","","","","","","","","","","","","","","","","","","",""
"html-keyboard-response","192","437150","0.0-5.0-1.0-2.4","2","1","c6f2j8gzehnh9sa","","null","","","","null","","","","","","","","","","","","","","","","","","","","","","","","","","","","","","","","","","","","","","","","","",""
"audio-keyboard-response","193","439632","0.0-5.0-1.0-3.4","2","1","c6f2j8gzehnh9sa","","null","","sounds/sentences/left/14_05_cfSWS.wav","","null","","","","","","","","","","","","","","","","","","","","","","","","","","","","","","","","","","","","","","","","","",""
"html-keyboard-response","194","440633","0.0-5.0-1.0-4.4","2","1","c6f2j8gzehnh9sa","","null","","","","null","","","","","","","","","","","","","","","","","","","","","","","","","","","","","","","","","","","","","","","","","",""
"html-button-response","195","444334","0.0-5.0-1.0-5.4","2","1","c6f2j8gzehnh9sa","","3199.5","","<p>Press the button below when you are ready to continue.</p>","0","","","","","","","","","","","","","","","","","","","","","","","","","","","","","","","","","","","","","","","","","","",""
"audio-keyboard-response","196","447222","0.0-5.0-1.0-0.5","2","1","c6f2j8gzehnh9sa","","null","","sounds/sentences/right/14_07_cfSWS.wav","","null","","","","","","","","","","","","","","","","","","","","","","","","","","","","","","","","","","","","","","","","","",""
"sentence-resp","197","470327","0.0-5.0-1.0-1.5","2","1","c6f2j8gzehnh9sa","","23104","","","","","","","SWS-SENT-RESPONSE","","","{""Q0"":""That's a beautiful dress and a twirl""}","Write a fond note to the friend you cherish.","write,fond,note,friend,cherish","THAT'S A BEAUTIFUL DRESS AND A TWIRL","0","0","0","0","0","0","0","","","","","","","","","","","","","","","","","","","","","","","","","",""
"html-keyboard-response","198","471598","0.0-5.0-1.0-2.5","2","1","c6f2j8gzehnh9sa","","null","","","","null","","","","","","","","","","","","","","","","","","","","","","","","","","","","","","","","","","","","","","","","","",""
"audio-keyboard-response","199","473982","0.0-5.0-1.0-3.5","2","1","c6f2j8gzehnh9sa","","null","","sounds/sentences/right/14_07_cfSWS.wav","","null","","","","","","","","","","","","","","","","","","","","","","","","","","","","","","","","","","","","","","","","","",""
"html-keyboard-response","200","474990","0.0-5.0-1.0-4.5","2","1","c6f2j8gzehnh9sa","","null","","","","null","","","","","","","","","","","","","","","","","","","","","","","","","","","","","","","","","","","","","","","","","",""
"html-button-response","201","476330","0.0-5.0-1.0-5.5","2","1","c6f2j8gzehnh9sa","","838.6000000014901","","<p>Press the button below when you are ready to continue.</p>","0","","","","","","","","","","","","","","","","","","","","","","","","","","","","","","","","","","","","","","","","","","",""
"audio-keyboard-response","202","479352","0.0-5.0-1.0-0.6","2","1","c6f2j8gzehnh9sa","","null","","sounds/sentences/right/14_10_cfSWS.wav","","null","","","","","","","","","","","","","","","","","","","","","","","","","","","","","","","","","","","","","","","","","",""
"sentence-resp","203","516599","0.0-5.0-1.0-1.6","2","1","c6f2j8gzehnh9sa","","37245","","","","","","","SWS-SENT-RESPONSE","","","{""Q0"":""Slow down, you're going so fast.""}","Port is a strong wine with a smoky taste.","port,strong,wine,smoky,taste","SLOW DOWN YOU'RE GOING SO FAST","0","0","0","0","0","0","0","","","","","","","","","","","","","","","","","","","","","","","","","",""
"html-keyboard-response","204","517851","0.0-5.0-1.0-2.6","2","1","c6f2j8gzehnh9sa","","null","","","","null","","","","","","","","","","","","","","","","","","","","","","","","","","","","","","","","","","","","","","","","","",""
"audio-keyboard-response","205","520392","0.0-5.0-1.0-3.6","2","1","c6f2j8gzehnh9sa","","null","","sounds/sentences/right/14_10_cfSWS.wav","","null","","","","","","","","","","","","","","","","","","","","","","","","","","","","","","","","","","","","","","","","","",""
"html-keyboard-response","206","521393","0.0-5.0-1.0-4.6","2","1","c6f2j8gzehnh9sa","","null","","","","null","","","","","","","","","","","","","","","","","","","","","","","","","","","","","","","","","","","","","","","","","",""
"html-button-response","207","523196","0.0-5.0-1.0-5.6","2","1","c6f2j8gzehnh9sa","","1300.1000000014901","","<p>Press the button below when you are ready to continue.</p>","0","","","","","","","","","","","","","","","","","","","","","","","","","","","","","","","","","","","","","","","","","","",""
"audio-keyboard-response","208","525932","0.0-5.0-1.0-0.7","2","1","c6f2j8gzehnh9sa","","null","","sounds/sentences/right/14_09_cfSWS.wav","","null","","","","","","","","","","","","","","","","","","","","","","","","","","","","","","","","","","","","","","","","","",""
"sentence-resp","209","540241","0.0-5.0-1.0-1.7","2","1","c6f2j8gzehnh9sa","","14308","","","","","","","SWS-SENT-RESPONSE","","","{""Q0"":""Slowly put the cup in the sink\n""}","We frown when events take a bad turn.","frown,events,take,bad,turn","SLOWLY PUT THE CUP IN THE SINK ","0","0","0","0","0","0","0","","","","","","","","","","","","","","","","","","","","","","","","","",""
"html-keyboard-response","210","541497","0.0-5.0-1.0-2.7","2","1","c6f2j8gzehnh9sa","","null","","","","null","","","","","","","","","","","","","","","","","","","","","","","","","","","","","","","","","","","","","","","","","",""
"audio-keyboard-response","211","543722","0.0-5.0-1.0-3.7","2","1","c6f2j8gzehnh9sa","","null","","sounds/sentences/right/14_09_cfSWS.wav","","null","","","","","","","","","","","","","","","","","","","","","","","","","","","","","","","","","","","","","","","","","",""
"html-keyboard-response","212","544723","0.0-5.0-1.0-4.7","2","1","c6f2j8gzehnh9sa","","null","","","","null","","","","","","","","","","","","","","","","","","","","","","","","","","","","","","","","","","","","","","","","","",""
"html-button-response","213","546317","0.0-5.0-1.0-5.7","2","1","c6f2j8gzehnh9sa","","1090.2999999970198","","<p>Press the button below when you are ready to continue.</p>","0","","","","","","","","","","","","","","","","","","","","","","","","","","","","","","","","","","","","","","","","","","",""
"audio-keyboard-response","214","549072","0.0-5.0-1.0-0.8","2","1","c6f2j8gzehnh9sa","","null","","sounds/sentences/right/14_06_cfSWS.wav","","null","","","","","","","","","","","","","","","","","","","","","","","","","","","","","","","","","","","","","","","","","",""
"sentence-resp","215","564950","0.0-5.0-1.0-1.8","2","1","c6f2j8gzehnh9sa","","15877","","","","","","","SWS-SENT-RESPONSE","","","{""Q0"":""I think snakes look like worms\n""}","Bring your problems to the wise chief.","bring,your,problems,wise,chief","I THINK SNAKES LOOK LIKE WORMS ","0","0","0","0","0","0","0","","","","","","","","","","","","","","","","","","","","","","","","","",""
"html-keyboard-response","216","566215","0.0-5.0-1.0-2.8","2","1","c6f2j8gzehnh9sa","","null","","","","null","","","","","","","","","","","","","","","","","","","","","","","","","","","","","","","","","","","","","","","","","",""
"audio-keyboard-response","217","568462","0.0-5.0-1.0-3.8","2","1","c6f2j8gzehnh9sa","","null","","sounds/sentences/right/14_06_cfSWS.wav","","null","","","","","","","","","","","","","","","","","","","","","","","","","","","","","","","","","","","","","","","","","",""
"html-keyboard-response","218","569463","0.0-5.0-1.0-4.8","2","1","c6f2j8gzehnh9sa","","null","","","","null","","","","","","","","","","","","","","","","","","","","","","","","","","","","","","","","","","","","","","","","","",""
"html-button-response","219","571060","0.0-5.0-1.0-5.8","2","1","c6f2j8gzehnh9sa","","1094.6999999955297","","<p>Press the button below when you are ready to continue.</p>","0","","","","","","","","","","","","","","","","","","","","","","","","","","","","","","","","","","","","","","","","","","",""
"audio-keyboard-response","220","573812","0.0-5.0-1.0-0.9","2","1","c6f2j8gzehnh9sa","","null","","sounds/sentences/right/14_08_cfSWS.wav","","null","","","","","","","","","","","","","","","","","","","","","","","","","","","","","","","","","","","","","","","","","",""
"sentence-resp","221","595066","0.0-5.0-1.0-1.9","2","1","c6f2j8gzehnh9sa","","21253","","","","","","","SWS-SENT-RESPONSE","","","{""Q0"":""I cant really understand your rationale.""}","Clothes and lodging are free to new men.","clothes,lodging,free,new,men","I CANT REALLY UNDERSTAND YOUR RATIONALE","0","0","0","0","0","0","0","","","","","","","","","","","","","","","","","","","","","","","","","",""
"html-keyboard-response","222","596328","0.0-5.0-1.0-2.9","2","1","c6f2j8gzehnh9sa","","null","","","","null","","","","","","","","","","","","","","","","","","","","","","","","","","","","","","","","","","","","","","","","","",""
"audio-keyboard-response","223","598583","0.0-5.0-1.0-3.9","2","1","c6f2j8gzehnh9sa","","null","","sounds/sentences/right/14_08_cfSWS.wav","","null","","","","","","","","","","","","","","","","","","","","","","","","","","","","","","","","","","","","","","","","","",""
"html-keyboard-response","224","599593","0.0-5.0-1.0-4.9","2","1","c6f2j8gzehnh9sa","","null","","","","null","","","","","","","","","","","","","","","","","","","","","","","","","","","","","","","","","","","","","","","","","",""
"html-button-response","225","602068","0.0-5.0-1.0-5.9","2","1","c6f2j8gzehnh9sa","","1963","","<p>Press the button below when you are ready to continue.</p>","0","","","","","","","","","","","","","","","","","","","","","","","","","","","","","","","","","","","","","","","","","","",""
"html-keyboard-response","226","633141","0.0-6.0-0.0","2","1","c6f2j8gzehnh9sa","","30560.60000000149","","<p>In this part of the study, you will hear sounds similar to those you just heard.</p><p>Please focus on these sounds, as you may be asked questions about them later.</p><p>Occasionally, the sounds will pause for up to two seconds. When this happens, please press SPACEBAR as quickly as you can.</br>This helps ensure that you are paying attention to the sounds.</p><p>This part of the study will take about 12 minutes to complete, and you will be given the opportunity to take a couple of short breaks every few minutes.</p><p><strong>Press SPACEBAR to begin</strong></p>","","32","","","","","","","","","","","","","","","","","","","","","","","","","","","","","","","","","","","","","","","","","",""
"html-keyboard-response","227","634142","0.0-6.0-1.0-0.0","2","1","c6f2j8gzehnh9sa","","null","","<p style=""font-size: 40px;"">+</p>","","null","","","","","","","","","","","","","","","","","","","","","","","","","","","","","","","","","","","","","","","","","",""
"html-keyboard-response","228","819153","0.0-6.0-1.0-1.0","2","1","c6f2j8gzehnh9sa","","null","","","","null","","","SL-TRAIN","","","","","","","","","","","","","","2","null","null","sounds/B/TRAIN/SEQ__09.mp3","1","","","","","","","","","","","","","","","","","","","","",""
"html-button-response","229","823561","0.0-6.0-1.0-2.0","2","1","c6f2j8gzehnh9sa","","4407.0999999940395","","<p>You may take a short break if you wish.</p>","0","","","","","","","","","","","","","","","","","","","","","","","","","","","","","","","","","","","","","","","","","","",""
"html-keyboard-response","230","824562","0.0-6.0-1.0-3.0","2","1","c6f2j8gzehnh9sa","","null","","<p style=""font-size: 40px;"">+</p>","","null","","","","","","","","","","","","","","","","","","","","","","","","","","","","","","","","","","","","","","","","","",""
"html-keyboard-response","231","1009565","0.0-6.0-1.0-4.0","2","1","c6f2j8gzehnh9sa","","null","","","","null","","","SL-TRAIN","","","","","","","","","","","","","","2","null","null","sounds/B/TRAIN/SEQ__08.mp3","0","","","","","","","","","","","","","","","","","","","","",""
"html-button-response","232","1020213","0.0-6.0-1.0-5.0","2","1","c6f2j8gzehnh9sa","","10647.10000000149","","<p>You may take a short break if you wish.</p>","0","","","","","","","","","","","","","","","","","","","","","","","","","","","","","","","","","","","","","","","","","","",""
"html-keyboard-response","233","1021215","0.0-6.0-1.0-6.0","2","1","c6f2j8gzehnh9sa","","null","","<p style=""font-size: 40px;"">+</p>","","null","","","","","","","","","","","","","","","","","","","","","","","","","","","","","","","","","","","","","","","","","",""
"html-keyboard-response","234","1206217","0.0-6.0-1.0-7.0","2","1","c6f2j8gzehnh9sa","","null","","","","null","","","SL-TRAIN","","","","","","","","","","","","","","2","null","null","sounds/B/TRAIN/SEQ__11.mp3","0","","","","","","","","","","","","","","","","","","","","",""
"html-button-response","235","1211518","0.0-6.0-1.0-8.0","2","1","c6f2j8gzehnh9sa","","5299.5","","<p>You may take a short break if you wish.</p>","0","","","","","","","","","","","","","","","","","","","","","","","","","","","","","","","","","","","","","","","","","","",""
"html-keyboard-response","236","1212519","0.0-6.0-1.0-9.0","2","1","c6f2j8gzehnh9sa","","null","","<p style=""font-size: 40px;"">+</p>","","null","","","","","","","","","","","","","","","","","","","","","","","","","","","","","","","","","","","","","","","","","",""
"html-keyboard-response","237","1397520","0.0-6.0-1.0-10.0","2","1","c6f2j8gzehnh9sa","","null","","","","null","","","SL-TRAIN","","","","","","","","","","","","","","2","null","null","sounds/B/TRAIN/SEQ__05.mp3","0","","","","","","","","","","","","","","","","","","","","",""
"html-button-response","238","1439788","0.0-6.0-1.0-11.0","2","1","c6f2j8gzehnh9sa","","42266.69999999553","","<p>You may take a short break if you wish.</p>","0","","","","","","","","","","","","","","","","","","","","","","","","","","","","","","","","","","","","","","","","","","",""
"html-button-response","239","1451413","0.0-7.0-0.0","2","1","c6f2j8gzehnh9sa","","11624","","<p>Welcome to the second part of the study. This is a <u>familiarity task</u>.</p><p>You will now hear short sounds and will be asked to rate how familiar they sound to you <b>based on what you heard in the previous part of the study</b>.</p><p>You will rate 12 sounds in total.</p>","0","","","","","","","","","","","","","","","","","","","","","","","","","","","","","","","","","","","","","","","","","","",""
"html-keyboard-response","240","1452415","0.0-7.0-1.0-0.0","2","1","c6f2j8gzehnh9sa","","null","","","","null","","","","","","","","","","","","","","","","","","","","","","","","","","","","","","","","","","","","","","","","","",""
"audio-keyboard-response","241","1453383","0.0-7.0-1.0-1.0","2","1","c6f2j8gzehnh9sa","","null","","sounds/B/FAM/W002.mp3","","null","","","","","","","","","","","","","","","","","","","","","","","","","","","","","","","","","","","","","","","","","",""
"html-keyboard-response","242","1460802","0.0-7.0-1.0-2.0","2","1","c6f2j8gzehnh9sa","","6918.30000000447","","<p>How familiar did this sound to you?</p><p>1&nbsp;&nbsp;&nbsp;&nbsp;&nbsp;&nbsp;&nbsp;&nbsp;&nbsp;&nbsp;&nbsp;&nbsp;&nbsp;&nbsp;&nbsp;&nbsp;&nbsp;&nbsp;&nbsp;2&nbsp;&nbsp;&nbsp;&nbsp;&nbsp;&nbsp;&nbsp;&nbsp;&nbsp;&nbsp;&nbsp;&nbsp;&nbsp;&nbsp;&nbsp;&nbsp;&nbsp;&nbsp;&nbsp;3&nbsp;&nbsp;&nbsp;&nbsp;&nbsp;&nbsp;&nbsp;&nbsp;&nbsp;&nbsp;&nbsp;&nbsp;&nbsp;&nbsp;&nbsp;&nbsp;&nbsp;&nbsp;&nbsp;4</p><p style=""font-size:14px"">Not at all familiar&nbsp;&nbsp;&nbsp;&nbsp;A little familiar&nbsp;&nbsp;&nbsp;Moderately familiar&nbsp;&nbsp;&nbsp;Extremely familiar</p><p>(press the corresponding number on your keyboard)</p>","","52","","","FAM-RESPONSE","","","","","","","","","","","","","","","","","","","sounds/B/FAM/W002.mp3","word","","","","","","","","","","","","","","","","","","",""
"html-keyboard-response","243","1462810","0.0-7.0-1.0-0.1","2","1","c6f2j8gzehnh9sa","","null","","","","null","","","","","","","","","","","","","","","","","","","","","","","","","","","","","","","","","","","","","","","","","",""
"audio-keyboard-response","244","1463743","0.0-7.0-1.0-1.1","2","1","c6f2j8gzehnh9sa","","null","","sounds/B/FAM/N003.mp3","","null","","","","","","","","","","","","","","","","","","","","","","","","","","","","","","","","","","","","","","","","","",""
"html-keyboard-response","245","1467196","0.0-7.0-1.0-2.1","2","1","c6f2j8gzehnh9sa","","2951.9000000059605","","<p>How familiar did this sound to you?</p><p>1&nbsp;&nbsp;&nbsp;&nbsp;&nbsp;&nbsp;&nbsp;&nbsp;&nbsp;&nbsp;&nbsp;&nbsp;&nbsp;&nbsp;&nbsp;&nbsp;&nbsp;&nbsp;&nbsp;2&nbsp;&nbsp;&nbsp;&nbsp;&nbsp;&nbsp;&nbsp;&nbsp;&nbsp;&nbsp;&nbsp;&nbsp;&nbsp;&nbsp;&nbsp;&nbsp;&nbsp;&nbsp;&nbsp;3&nbsp;&nbsp;&nbsp;&nbsp;&nbsp;&nbsp;&nbsp;&nbsp;&nbsp;&nbsp;&nbsp;&nbsp;&nbsp;&nbsp;&nbsp;&nbsp;&nbsp;&nbsp;&nbsp;4</p><p style=""font-size:14px"">Not at all familiar&nbsp;&nbsp;&nbsp;&nbsp;A little familiar&nbsp;&nbsp;&nbsp;Moderately familiar&nbsp;&nbsp;&nbsp;Extremely familiar</p><p>(press the corresponding number on your keyboard)</p>","","51","","","FAM-RESPONSE","","","","","","","","","","","","","","","","","","","sounds/B/FAM/N003.mp3","nonword","","","","","","","","","","","","","","","","","","",""
"html-keyboard-response","246","1469218","0.0-7.0-1.0-0.2","2","1","c6f2j8gzehnh9sa","","null","","","","null","","","","","","","","","","","","","","","","","","","","","","","","","","","","","","","","","","","","","","","","","",""
"audio-keyboard-response","247","1470153","0.0-7.0-1.0-1.2","2","1","c6f2j8gzehnh9sa","","null","","sounds/B/FAM/N001.mp3","","null","","","","","","","","","","","","","","","","","","","","","","","","","","","","","","","","","","","","","","","","","",""
"html-keyboard-response","248","1472186","0.0-7.0-1.0-2.2","2","1","c6f2j8gzehnh9sa","","1522.1000000014901","","<p>How familiar did this sound to you?</p><p>1&nbsp;&nbsp;&nbsp;&nbsp;&nbsp;&nbsp;&nbsp;&nbsp;&nbsp;&nbsp;&nbsp;&nbsp;&nbsp;&nbsp;&nbsp;&nbsp;&nbsp;&nbsp;&nbsp;2&nbsp;&nbsp;&nbsp;&nbsp;&nbsp;&nbsp;&nbsp;&nbsp;&nbsp;&nbsp;&nbsp;&nbsp;&nbsp;&nbsp;&nbsp;&nbsp;&nbsp;&nbsp;&nbsp;3&nbsp;&nbsp;&nbsp;&nbsp;&nbsp;&nbsp;&nbsp;&nbsp;&nbsp;&nbsp;&nbsp;&nbsp;&nbsp;&nbsp;&nbsp;&nbsp;&nbsp;&nbsp;&nbsp;4</p><p style=""font-size:14px"">Not at all familiar&nbsp;&nbsp;&nbsp;&nbsp;A little familiar&nbsp;&nbsp;&nbsp;Moderately familiar&nbsp;&nbsp;&nbsp;Extremely familiar</p><p>(press the corresponding number on your keyboard)</p>","","52","","","FAM-RESPONSE","","","","","","","","","","","","","","","","","","","sounds/B/FAM/N001.mp3","nonword","","","","","","","","","","","","","","","","","","",""
"html-keyboard-response","249","1474190","0.0-7.0-1.0-0.3","2","1","c6f2j8gzehnh9sa","","null","","","","null","","","","","","","","","","","","","","","","","","","","","","","","","","","","","","","","","","","","","","","","","",""
"audio-keyboard-response","250","1475133","0.0-7.0-1.0-1.3","2","1","c6f2j8gzehnh9sa","","null","","sounds/B/FAM/P002.mp3","","null","","","","","","","","","","","","","","","","","","","","","","","","","","","","","","","","","","","","","","","","","",""
"html-keyboard-response","251","1476299","0.0-7.0-1.0-2.3","2","1","c6f2j8gzehnh9sa","","662.5","","<p>How familiar did this sound to you?</p><p>1&nbsp;&nbsp;&nbsp;&nbsp;&nbsp;&nbsp;&nbsp;&nbsp;&nbsp;&nbsp;&nbsp;&nbsp;&nbsp;&nbsp;&nbsp;&nbsp;&nbsp;&nbsp;&nbsp;2&nbsp;&nbsp;&nbsp;&nbsp;&nbsp;&nbsp;&nbsp;&nbsp;&nbsp;&nbsp;&nbsp;&nbsp;&nbsp;&nbsp;&nbsp;&nbsp;&nbsp;&nbsp;&nbsp;3&nbsp;&nbsp;&nbsp;&nbsp;&nbsp;&nbsp;&nbsp;&nbsp;&nbsp;&nbsp;&nbsp;&nbsp;&nbsp;&nbsp;&nbsp;&nbsp;&nbsp;&nbsp;&nbsp;4</p><p style=""font-size:14px"">Not at all familiar&nbsp;&nbsp;&nbsp;&nbsp;A little familiar&nbsp;&nbsp;&nbsp;Moderately familiar&nbsp;&nbsp;&nbsp;Extremely familiar</p><p>(press the corresponding number on your keyboard)</p>","","52","","","FAM-RESPONSE","","","","","","","","","","","","","","","","","","","sounds/B/FAM/P002.mp3","partword","","","","","","","","","","","","","","","","","","",""
"html-keyboard-response","252","1478330","0.0-7.0-1.0-0.4","2","1","c6f2j8gzehnh9sa","","null","","","","null","","","","","","","","","","","","","","","","","","","","","","","","","","","","","","","","","","","","","","","","","",""
"audio-keyboard-response","253","1479263","0.0-7.0-1.0-1.4","2","1","c6f2j8gzehnh9sa","","null","","sounds/B/FAM/W001.mp3","","null","","","","","","","","","","","","","","","","","","","","","","","","","","","","","","","","","","","","","","","","","",""
"html-keyboard-response","254","1480411","0.0-7.0-1.0-2.4","2","1","c6f2j8gzehnh9sa","","637","","<p>How familiar did this sound to you?</p><p>1&nbsp;&nbsp;&nbsp;&nbsp;&nbsp;&nbsp;&nbsp;&nbsp;&nbsp;&nbsp;&nbsp;&nbsp;&nbsp;&nbsp;&nbsp;&nbsp;&nbsp;&nbsp;&nbsp;2&nbsp;&nbsp;&nbsp;&nbsp;&nbsp;&nbsp;&nbsp;&nbsp;&nbsp;&nbsp;&nbsp;&nbsp;&nbsp;&nbsp;&nbsp;&nbsp;&nbsp;&nbsp;&nbsp;3&nbsp;&nbsp;&nbsp;&nbsp;&nbsp;&nbsp;&nbsp;&nbsp;&nbsp;&nbsp;&nbsp;&nbsp;&nbsp;&nbsp;&nbsp;&nbsp;&nbsp;&nbsp;&nbsp;4</p><p style=""font-size:14px"">Not at all familiar&nbsp;&nbsp;&nbsp;&nbsp;A little familiar&nbsp;&nbsp;&nbsp;Moderately familiar&nbsp;&nbsp;&nbsp;Extremely familiar</p><p>(press the corresponding number on your keyboard)</p>","","51","","","FAM-RESPONSE","","","","","","","","","","","","","","","","","","","sounds/B/FAM/W001.mp3","word","","","","","","","","","","","","","","","","","","",""
"html-keyboard-response","255","1482417","0.0-7.0-1.0-0.5","2","1","c6f2j8gzehnh9sa","","null","","","","null","","","","","","","","","","","","","","","","","","","","","","","","","","","","","","","","","","","","","","","","","",""
"audio-keyboard-response","256","1483353","0.0-7.0-1.0-1.5","2","1","c6f2j8gzehnh9sa","","null","","sounds/B/FAM/P001.mp3","","null","","","","","","","","","","","","","","","","","","","","","","","","","","","","","","","","","","","","","","","","","",""
"html-keyboard-response","257","1484443","0.0-7.0-1.0-2.5","2","1","c6f2j8gzehnh9sa","","588.5999999940395","","<p>How familiar did this sound to you?</p><p>1&nbsp;&nbsp;&nbsp;&nbsp;&nbsp;&nbsp;&nbsp;&nbsp;&nbsp;&nbsp;&nbsp;&nbsp;&nbsp;&nbsp;&nbsp;&nbsp;&nbsp;&nbsp;&nbsp;2&nbsp;&nbsp;&nbsp;&nbsp;&nbsp;&nbsp;&nbsp;&nbsp;&nbsp;&nbsp;&nbsp;&nbsp;&nbsp;&nbsp;&nbsp;&nbsp;&nbsp;&nbsp;&nbsp;3&nbsp;&nbsp;&nbsp;&nbsp;&nbsp;&nbsp;&nbsp;&nbsp;&nbsp;&nbsp;&nbsp;&nbsp;&nbsp;&nbsp;&nbsp;&nbsp;&nbsp;&nbsp;&nbsp;4</p><p style=""font-size:14px"">Not at all familiar&nbsp;&nbsp;&nbsp;&nbsp;A little familiar&nbsp;&nbsp;&nbsp;Moderately familiar&nbsp;&nbsp;&nbsp;Extremely familiar</p><p>(press the corresponding number on your keyboard)</p>","","51","","","FAM-RESPONSE","","","","","","","","","","","","","","","","","","","sounds/B/FAM/P001.mp3","partword","","","","","","","","","","","","","","","","","","",""
"html-keyboard-response","258","1486447","0.0-7.0-1.0-0.6","2","1","c6f2j8gzehnh9sa","","null","","","","null","","","","","","","","","","","","","","","","","","","","","","","","","","","","","","","","","","","","","","","","","",""
"audio-keyboard-response","259","1487383","0.0-7.0-1.0-1.6","2","1","c6f2j8gzehnh9sa","","null","","sounds/B/FAM/P003.mp3","","null","","","","","","","","","","","","","","","","","","","","","","","","","","","","","","","","","","","","","","","","","",""
"html-keyboard-response","260","1488763","0.0-7.0-1.0-2.6","2","1","c6f2j8gzehnh9sa","","869.2999999970198","","<p>How familiar did this sound to you?</p><p>1&nbsp;&nbsp;&nbsp;&nbsp;&nbsp;&nbsp;&nbsp;&nbsp;&nbsp;&nbsp;&nbsp;&nbsp;&nbsp;&nbsp;&nbsp;&nbsp;&nbsp;&nbsp;&nbsp;2&nbsp;&nbsp;&nbsp;&nbsp;&nbsp;&nbsp;&nbsp;&nbsp;&nbsp;&nbsp;&nbsp;&nbsp;&nbsp;&nbsp;&nbsp;&nbsp;&nbsp;&nbsp;&nbsp;3&nbsp;&nbsp;&nbsp;&nbsp;&nbsp;&nbsp;&nbsp;&nbsp;&nbsp;&nbsp;&nbsp;&nbsp;&nbsp;&nbsp;&nbsp;&nbsp;&nbsp;&nbsp;&nbsp;4</p><p style=""font-size:14px"">Not at all familiar&nbsp;&nbsp;&nbsp;&nbsp;A little familiar&nbsp;&nbsp;&nbsp;Moderately familiar&nbsp;&nbsp;&nbsp;Extremely familiar</p><p>(press the corresponding number on your keyboard)</p>","","51","","","FAM-RESPONSE","","","","","","","","","","","","","","","","","","","sounds/B/FAM/P003.mp3","partword","","","","","","","","","","","","","","","","","","",""
"html-keyboard-response","261","1490785","0.0-7.0-1.0-0.7","2","1","c6f2j8gzehnh9sa","","null","","","","null","","","","","","","","","","","","","","","","","","","","","","","","","","","","","","","","","","","","","","","","","",""
"audio-keyboard-response","262","1491733","0.0-7.0-1.0-1.7","2","1","c6f2j8gzehnh9sa","","null","","sounds/B/FAM/N002.mp3","","null","","","","","","","","","","","","","","","","","","","","","","","","","","","","","","","","","","","","","","","","","",""
"html-keyboard-response","263","1493210","0.0-7.0-1.0-2.7","2","1","c6f2j8gzehnh9sa","","966.6999999955297","","<p>How familiar did this sound to you?</p><p>1&nbsp;&nbsp;&nbsp;&nbsp;&nbsp;&nbsp;&nbsp;&nbsp;&nbsp;&nbsp;&nbsp;&nbsp;&nbsp;&nbsp;&nbsp;&nbsp;&nbsp;&nbsp;&nbsp;2&nbsp;&nbsp;&nbsp;&nbsp;&nbsp;&nbsp;&nbsp;&nbsp;&nbsp;&nbsp;&nbsp;&nbsp;&nbsp;&nbsp;&nbsp;&nbsp;&nbsp;&nbsp;&nbsp;3&nbsp;&nbsp;&nbsp;&nbsp;&nbsp;&nbsp;&nbsp;&nbsp;&nbsp;&nbsp;&nbsp;&nbsp;&nbsp;&nbsp;&nbsp;&nbsp;&nbsp;&nbsp;&nbsp;4</p><p style=""font-size:14px"">Not at all familiar&nbsp;&nbsp;&nbsp;&nbsp;A little familiar&nbsp;&nbsp;&nbsp;Moderately familiar&nbsp;&nbsp;&nbsp;Extremely familiar</p><p>(press the corresponding number on your keyboard)</p>","","50","","","FAM-RESPONSE","","","","","","","","","","","","","","","","","","","sounds/B/FAM/N002.mp3","nonword","","","","","","","","","","","","","","","","","","",""
"html-keyboard-response","264","1495224","0.0-7.0-1.0-0.8","2","1","c6f2j8gzehnh9sa","","null","","","","null","","","","","","","","","","","","","","","","","","","","","","","","","","","","","","","","","","","","","","","","","",""
"audio-keyboard-response","265","1496173","0.0-7.0-1.0-1.8","2","1","c6f2j8gzehnh9sa","","null","","sounds/B/FAM/N004.mp3","","null","","","","","","","","","","","","","","","","","","","","","","","","","","","","","","","","","","","","","","","","","",""
"html-keyboard-response","266","1498064","0.0-7.0-1.0-2.8","2","1","c6f2j8gzehnh9sa","","1381.3999999985099","","<p>How familiar did this sound to you?</p><p>1&nbsp;&nbsp;&nbsp;&nbsp;&nbsp;&nbsp;&nbsp;&nbsp;&nbsp;&nbsp;&nbsp;&nbsp;&nbsp;&nbsp;&nbsp;&nbsp;&nbsp;&nbsp;&nbsp;2&nbsp;&nbsp;&nbsp;&nbsp;&nbsp;&nbsp;&nbsp;&nbsp;&nbsp;&nbsp;&nbsp;&nbsp;&nbsp;&nbsp;&nbsp;&nbsp;&nbsp;&nbsp;&nbsp;3&nbsp;&nbsp;&nbsp;&nbsp;&nbsp;&nbsp;&nbsp;&nbsp;&nbsp;&nbsp;&nbsp;&nbsp;&nbsp;&nbsp;&nbsp;&nbsp;&nbsp;&nbsp;&nbsp;4</p><p style=""font-size:14px"">Not at all familiar&nbsp;&nbsp;&nbsp;&nbsp;A little familiar&nbsp;&nbsp;&nbsp;Moderately familiar&nbsp;&nbsp;&nbsp;Extremely familiar</p><p>(press the corresponding number on your keyboard)</p>","","51","","","FAM-RESPONSE","","","","","","","","","","","","","","","","","","","sounds/B/FAM/N004.mp3","nonword","","","","","","","","","","","","","","","","","","",""
"html-keyboard-response","267","1500084","0.0-7.0-1.0-0.9","2","1","c6f2j8gzehnh9sa","","null","","","","null","","","","","","","","","","","","","","","","","","","","","","","","","","","","","","","","","","","","","","","","","",""
"audio-keyboard-response","268","1501023","0.0-7.0-1.0-1.9","2","1","c6f2j8gzehnh9sa","","null","","sounds/B/FAM/P004.mp3","","null","","","","","","","","","","","","","","","","","","","","","","","","","","","","","","","","","","","","","","","","","",""
"html-keyboard-response","269","1502576","0.0-7.0-1.0-2.9","2","1","c6f2j8gzehnh9sa","","1052.1000000014901","","<p>How familiar did this sound to you?</p><p>1&nbsp;&nbsp;&nbsp;&nbsp;&nbsp;&nbsp;&nbsp;&nbsp;&nbsp;&nbsp;&nbsp;&nbsp;&nbsp;&nbsp;&nbsp;&nbsp;&nbsp;&nbsp;&nbsp;2&nbsp;&nbsp;&nbsp;&nbsp;&nbsp;&nbsp;&nbsp;&nbsp;&nbsp;&nbsp;&nbsp;&nbsp;&nbsp;&nbsp;&nbsp;&nbsp;&nbsp;&nbsp;&nbsp;3&nbsp;&nbsp;&nbsp;&nbsp;&nbsp;&nbsp;&nbsp;&nbsp;&nbsp;&nbsp;&nbsp;&nbsp;&nbsp;&nbsp;&nbsp;&nbsp;&nbsp;&nbsp;&nbsp;4</p><p style=""font-size:14px"">Not at all familiar&nbsp;&nbsp;&nbsp;&nbsp;A little familiar&nbsp;&nbsp;&nbsp;Moderately familiar&nbsp;&nbsp;&nbsp;Extremely familiar</p><p>(press the corresponding number on your keyboard)</p>","","52","","","FAM-RESPONSE","","","","","","","","","","","","","","","","","","","sounds/B/FAM/P004.mp3","partword","","","","","","","","","","","","","","","","","","",""
"html-keyboard-response","270","1504603","0.0-7.0-1.0-0.10","2","1","c6f2j8gzehnh9sa","","null","","","","null","","","","","","","","","","","","","","","","","","","","","","","","","","","","","","","","","","","","","","","","","",""
"audio-keyboard-response","271","1505543","0.0-7.0-1.0-1.10","2","1","c6f2j8gzehnh9sa","","null","","sounds/B/FAM/W003.mp3","","null","","","","","","","","","","","","","","","","","","","","","","","","","","","","","","","","","","","","","","","","","",""
"html-keyboard-response","272","1507492","0.0-7.0-1.0-2.10","2","1","c6f2j8gzehnh9sa","","1435","","<p>How familiar did this sound to you?</p><p>1&nbsp;&nbsp;&nbsp;&nbsp;&nbsp;&nbsp;&nbsp;&nbsp;&nbsp;&nbsp;&nbsp;&nbsp;&nbsp;&nbsp;&nbsp;&nbsp;&nbsp;&nbsp;&nbsp;2&nbsp;&nbsp;&nbsp;&nbsp;&nbsp;&nbsp;&nbsp;&nbsp;&nbsp;&nbsp;&nbsp;&nbsp;&nbsp;&nbsp;&nbsp;&nbsp;&nbsp;&nbsp;&nbsp;3&nbsp;&nbsp;&nbsp;&nbsp;&nbsp;&nbsp;&nbsp;&nbsp;&nbsp;&nbsp;&nbsp;&nbsp;&nbsp;&nbsp;&nbsp;&nbsp;&nbsp;&nbsp;&nbsp;4</p><p style=""font-size:14px"">Not at all familiar&nbsp;&nbsp;&nbsp;&nbsp;A little familiar&nbsp;&nbsp;&nbsp;Moderately familiar&nbsp;&nbsp;&nbsp;Extremely familiar</p><p>(press the corresponding number on your keyboard)</p>","","52","","","FAM-RESPONSE","","","","","","","","","","","","","","","","","","","sounds/B/FAM/W003.mp3","word","","","","","","","","","","","","","","","","","","",""
"html-keyboard-response","273","1509494","0.0-7.0-1.0-0.11","2","1","c6f2j8gzehnh9sa","","null","","","","null","","","","","","","","","","","","","","","","","","","","","","","","","","","","","","","","","","","","","","","","","",""
"audio-keyboard-response","274","1510433","0.0-7.0-1.0-1.11","2","1","c6f2j8gzehnh9sa","","null","","sounds/B/FAM/W004.mp3","","null","","","","","","","","","","","","","","","","","","","","","","","","","","","","","","","","","","","","","","","","","",""
"html-keyboard-response","275","1511366","0.0-7.0-1.0-2.11","2","1","c6f2j8gzehnh9sa","","423","","<p>How familiar did this sound to you?</p><p>1&nbsp;&nbsp;&nbsp;&nbsp;&nbsp;&nbsp;&nbsp;&nbsp;&nbsp;&nbsp;&nbsp;&nbsp;&nbsp;&nbsp;&nbsp;&nbsp;&nbsp;&nbsp;&nbsp;2&nbsp;&nbsp;&nbsp;&nbsp;&nbsp;&nbsp;&nbsp;&nbsp;&nbsp;&nbsp;&nbsp;&nbsp;&nbsp;&nbsp;&nbsp;&nbsp;&nbsp;&nbsp;&nbsp;3&nbsp;&nbsp;&nbsp;&nbsp;&nbsp;&nbsp;&nbsp;&nbsp;&nbsp;&nbsp;&nbsp;&nbsp;&nbsp;&nbsp;&nbsp;&nbsp;&nbsp;&nbsp;&nbsp;4</p><p style=""font-size:14px"">Not at all familiar&nbsp;&nbsp;&nbsp;&nbsp;A little familiar&nbsp;&nbsp;&nbsp;Moderately familiar&nbsp;&nbsp;&nbsp;Extremely familiar</p><p>(press the corresponding number on your keyboard)</p>","","52","","","FAM-RESPONSE","","","","","","","","","","","","","","","","","","","sounds/B/FAM/W004.mp3","word","","","","","","","","","","","","","","","","","","",""
"html-button-response","276","1538354","0.0-8.0-0.0","2","1","c6f2j8gzehnh9sa","","25987.19999999553","","<p>You will now listen to longer sound sequences.</p><p>Each sound sequence will last about 16 seconds.</p><p>On each trial, you will be given a <u>TARGET SOUND</u>. Your task is to listen very carefully for this sound.</p><p>Every time you hear the <u>TARGET SOUND</u>, you will press the <b>SPACEBAR</b> as quickly and accurately as you can.</p>","0","","","","","","","","","","","","","","","","","","","","","","","","","","","","","","","","","","","","","","","","","","",""
"html-button-response","277","1555301","0.0-8.0-1.0","2","1","c6f2j8gzehnh9sa","","16693.89999999851","","<p>It is very important that you make your responses as quickly and accurately as possible.</p><p>To help you make your responses, you will be able to listen to the <u>TARGET SOUND</u> at the beginning of each trial.</p><p>There will be 36 total trials.</p><p><b>Note: This is meant to be a difficult task. We simply want you to try your best.</p>","0","","","","","","","","","","","","","","","","","","","","","","","","","","","","","","","","","","","","","","","","","","",""
"html-button-response","278","1557260","0.0-8.0-2.0-0.0","2","1","c6f2j8gzehnh9sa","","1707.6000000014901","","<p>Trial 1 of 36</p>","0","","","","","","","","","","","","","","","","","","","","","","","","","PU","sounds/syllables/pu_SWS.wav","1800,3600,7200,9900","1","","","","","","","","","","","","","","",""
"html-keyboard-response","279","1561319","0.0-8.0-2.0-1.0","2","1","c6f2j8gzehnh9sa","","4057.60000000149","","","","80","","","","","","","","","","","","","","","","","","","","","","","","PU","","1800,3600,7200,9900","1","","","","","","","","","","","","","","",""
"audio-keyboard-response","280","1561643","0.0-8.0-2.0-2.0-0.0","2","1","c6f2j8gzehnh9sa","","null","","sounds/syllables/pu_SWS.wav","","null","","","","","","","","","","","","","","","","","","","","","","","","","","","","","","","","","","","","","","","","","",""
"html-keyboard-response","281","1562178","0.0-8.0-2.0-2.0-1.0","2","1","c6f2j8gzehnh9sa","","534.8000000044703","","<p>To replay the <u>TARGET SOUND</u>, press P.</p> When you are ready to begin, press SPACEBAR.","","80","","","","","","","","","","","","","","","","","","","","","","","","","","","","","","","","","","","","","","","","","",""
"audio-keyboard-response","282","1562973","0.0-8.0-2.0-2.1-0.1","2","1","c6f2j8gzehnh9sa","","null","","sounds/syllables/pu_SWS.wav","","null","","","","","","","","","","","","","","","","","","","","","","","","","","","","","","","","","","","","","","","","","",""
"html-keyboard-response","283","1566962","0.0-8.0-2.0-2.1-1.1","2","1","c6f2j8gzehnh9sa","","3988.10000000149","","<p>To replay the <u>TARGET SOUND</u>, press P.</p> When you are ready to begin, press SPACEBAR.","","32","","","","","","","","","","","","","","","","","","","","","","","","","","","","","","","","","","","","","","","","","",""
"audio-keyboard-response","284","1581914","0.0-8.0-2.0-3.0","2","1","c6f2j8gzehnh9sa","","1411","","sounds/B/TD/PU_09_TD.mp3","","32","","","TD_SUMMARY","","","","","","","","","","","","","","","","","","","","","PU","","1800,3600,7200,9900","1","1800","3600","7200","9900","null","596.4000000059605","837.1000000014901","null","1408.8000000044703_3185.3000000044703_4196.4000000059605_5829.4000000059605_8037.10000000149_8617.60000000149_9604.60000000149_11396.80000000447","2","","","","",""
"html-button-response","285","1583723","0.0-8.0-2.0-0.1","2","1","c6f2j8gzehnh9sa","","1807.8999999985099","","<p>Trial 2 of 36</p>","0","","","","","","","","","","","","","","","","","","","","","","","","","RE","sounds/syllables/re_SWS.wav","1500,3300,6000,13200","3","","","","","","","","","","","","","","",""
"html-keyboard-response","286","1585405","0.0-8.0-2.0-1.1","2","1","c6f2j8gzehnh9sa","","1681.5","","","","80","","","","","","","","","","","","","","","","","","","","","","","","RE","","1500,3300,6000,13200","3","","","","","","","","","","","","","","",""
"audio-keyboard-response","287","1585714","0.0-8.0-2.0-2.2-0.2","2","1","c6f2j8gzehnh9sa","","null","","sounds/syllables/re_SWS.wav","","null","","","","","","","","","","","","","","","","","","","","","","","","","","","","","","","","","","","","","","","","","",""
"html-keyboard-response","288","1586081","0.0-8.0-2.0-2.2-1.2","2","1","c6f2j8gzehnh9sa","","367.1000000014901","","<p>To replay the <u>TARGET SOUND</u>, press P.</p> When you are ready to begin, press SPACEBAR.","","80","","","","","","","","","","","","","","","","","","","","","","","","","","","","","","","","","","","","","","","","","",""
"audio-keyboard-response","289","1586884","0.0-8.0-2.0-2.3-0.3","2","1","c6f2j8gzehnh9sa","","null","","sounds/syllables/re_SWS.wav","","null","","","","","","","","","","","","","","","","","","","","","","","","","","","","","","","","","","","","","","","","","",""
"html-keyboard-response","290","1587563","0.0-8.0-2.0-2.3-1.3","2","1","c6f2j8gzehnh9sa","","678.3999999985099","","<p>To replay the <u>TARGET SOUND</u>, press P.</p> When you are ready to begin, press SPACEBAR.","","80","","","","","","","","","","","","","","","","","","","","","","","","","","","","","","","","","","","","","","","","","",""
"audio-keyboard-response","291","1588364","0.0-8.0-2.0-2.4-0.4","2","1","c6f2j8gzehnh9sa","","null","","sounds/syllables/re_SWS.wav","","null","","","","","","","","","","","","","","","","","","","","","","","","","","","","","","","","","","","","","","","","","",""
"html-keyboard-response","292","1590185","0.0-8.0-2.0-2.4-1.4","2","1","c6f2j8gzehnh9sa","","1821","","<p>To replay the <u>TARGET SOUND</u>, press P.</p> When you are ready to begin, press SPACEBAR.","","32","","","","","","","","","","","","","","","","","","","","","","","","","","","","","","","","","","","","","","","","","",""
"audio-keyboard-response","293","1605134","0.0-8.0-2.0-3.1","2","1","c6f2j8gzehnh9sa","","1179","","sounds/B/TD/RE_01_TD.mp3","","32","","","TD_SUMMARY","","","","","","","","","","","","","","","","","","","","","RE","","1500,3300,6000,13200","3","1500","3300","6000","13200","466.30000000447035","1110.3000000044703","null","271.70000000298023","________1178.8000000044703_1966.3000000044703_3120.5_4410.30000000447_6091_11639.90000000596_13471.70000000298","3","","","","",""
"html-button-response","294","1606250","0.0-8.0-2.0-0.2","2","1","c6f2j8gzehnh9sa","","1114.8999999985099","","<p>Trial 3 of 36</p>","0","","","","","","","","","","","","","","","","","","","","","","","","","PU","sounds/syllables/pu_SWS.wav","1800,6300,9900,12600","1","","","","","","","","","","","","","","",""
"html-keyboard-response","295","1608510","0.0-8.0-2.0-1.2","2","1","c6f2j8gzehnh9sa","","2259.5","","","","80","","","","","","","","","","","","","","","","","","","","","","","","PU","","1800,6300,9900,12600","1","","","","","","","","","","","","","","",""
"audio-keyboard-response","296","1608803","0.0-8.0-2.0-2.5-0.5","2","1","c6f2j8gzehnh9sa","","null","","sounds/syllables/pu_SWS.wav","","null","","","","","","","","","","","","","","","","","","","","","","","","","","","","","","","","","","","","","","","","","",""
"html-keyboard-response","297","1609138","0.0-8.0-2.0-2.5-1.5","2","1","c6f2j8gzehnh9sa","","334.5","","<p>To replay the <u>TARGET SOUND</u>, press P.</p> When you are ready to begin, press SPACEBAR.","","80","","","","","","","","","","","","","","","","","","","","","","","","","","","","","","","","","","","","","","","","","",""
"audio-keyboard-response","298","1609954","0.0-8.0-2.0-2.6-0.6","2","1","c6f2j8gzehnh9sa","","null","","sounds/syllables/pu_SWS.wav","","null","","","","","","","","","","","","","","","","","","","","","","","","","","","","","","","","","","","","","","","","","",""
"html-keyboard-response","299","1612255","0.0-8.0-2.0-2.6-1.6","2","1","c6f2j8gzehnh9sa","","2300.5","","<p>To replay the <u>TARGET SOUND</u>, press P.</p> When you are ready to begin, press SPACEBAR.","","32","","","","","","","","","","","","","","","","","","","","","","","","","","","","","","","","","","","","","","","","","",""
"audio-keyboard-response","300","1627214","0.0-8.0-2.0-3.2","2","1","c6f2j8gzehnh9sa","","2269","","sounds/B/TD/PU_04_TD.mp3","","32","","","TD_SUMMARY","","","","","","","","","","","","","","","","","","","","","PU","","1800,6300,9900,12600","1","1800","6300","9900","12600","464.40000000596046","678.6000000014901","1178.5","null","_______________2264.4000000059605_4016.5_6183.20000000298_6978.60000000149_9328.5_10355.10000000149_11078.5_12775.40000000596_13841.60000000149","2","","","","",""
"html-button-response","301","1628939","0.0-8.0-2.0-0.3","2","1","c6f2j8gzehnh9sa","","1724.1000000014901","","<p>Trial 4 of 36</p>","0","","","","","","","","","","","","","","","","","","","","","","","","","RU","sounds/syllables/ru_SWS.wav","5100,7800,11400,13200","3","","","","","","","","","","","","","","",""
"html-keyboard-response","302","1630319","0.0-8.0-2.0-1.3","2","1","c6f2j8gzehnh9sa","","1378.4000000059605","","","","80","","","","","","","","","","","","","","","","","","","","","","","","RU","","5100,7800,11400,13200","3","","","","","","","","","","","","","","",""
"audio-keyboard-response","303","1630614","0.0-8.0-2.0-2.7-0.7","2","1","c6f2j8gzehnh9sa","","null","","sounds/syllables/ru_SWS.wav","","null","","","","","","","","","","","","","","","","","","","","","","","","","","","","","","","","","","","","","","","","","",""
"html-keyboard-response","304","1630851","0.0-8.0-2.0-2.7-1.7","2","1","c6f2j8gzehnh9sa","","236.60000000149012","","<p>To replay the <u>TARGET SOUND</u>, press P.</p> When you are ready to begin, press SPACEBAR.","","80","","","","","","","","","","","","","","","","","","","","","","","","","","","","","","","","","","","","","","","","","",""
"audio-keyboard-response","305","1631653","0.0-8.0-2.0-2.8-0.8","2","1","c6f2j8gzehnh9sa","","null","","sounds/syllables/ru_SWS.wav","","null","","","","","","","","","","","","","","","","","","","","","","","","","","","","","","","","","","","","","","","","","",""
"html-keyboard-response","306","1632173","0.0-8.0-2.0-2.8-1.8","2","1","c6f2j8gzehnh9sa","","519","","<p>To replay the <u>TARGET SOUND</u>, press P.</p> When you are ready to begin, press SPACEBAR.","","80","","","","","","","","","","","","","","","","","","","","","","","","","","","","","","","","","","","","","","","","","",""
"audio-keyboard-response","307","1632974","0.0-8.0-2.0-2.9-0.9","2","1","c6f2j8gzehnh9sa","","null","","sounds/syllables/ru_SWS.wav","","null","","","","","","","","","","","","","","","","","","","","","","","","","","","","","","","","","","","","","","","","","",""
"html-keyboard-response","308","1633615","0.0-8.0-2.0-2.9-1.9","2","1","c6f2j8gzehnh9sa","","640.5","","<p>To replay the <u>TARGET SOUND</u>, press P.</p> When you are ready to begin, press SPACEBAR.","","32","","","","","","","","","","","","","","","","","","","","","","","","","","","","","","","","","","","","","","","","","",""
"audio-keyboard-response","309","1648573","0.0-8.0-2.0-3.3","2","1","c6f2j8gzehnh9sa","","1400","","sounds/B/TD/RU_09_TD.mp3","","32","","","TD_SUMMARY","","","","","","","","","","","","","","","","","","","","","RU","","5100,7800,11400,13200","3","5100","7800","11400","13200","477.29999999701977","214","350.1000000014901","747","________________________1398.3999999985099_2609_3332.39999999851_4813.60000000149_5577.29999999702_6843.5_8014_11185.89999999851_11750.10000000149_13446.79999999702_13947","3","","","","",""
"html-button-response","310","1649662","0.0-8.0-2.0-0.4","2","1","c6f2j8gzehnh9sa","","1087.1000000014901","","<p>Trial 5 of 36</p>","0","","","","","","","","","","","","","","","","","","","","","","","","","RE","sounds/syllables/re_SWS.wav","1500,3300,7800,13200","3","","","","","","","","","","","","","","",""
"html-keyboard-response","311","1651477","0.0-8.0-2.0-1.4","2","1","c6f2j8gzehnh9sa","","1814.7000000029802","","","","80","","","","","","","","","","","","","","","","","","","","","","","","RE","","1500,3300,7800,13200","3","","","","","","","","","","","","","","",""
"audio-keyboard-response","312","1651773","0.0-8.0-2.0-2.10-0.10","2","1","c6f2j8gzehnh9sa","","null","","sounds/syllables/re_SWS.wav","","null","","","","","","","","","","","","","","","","","","","","","","","","","","","","","","","","","","","","","","","","","",""
"html-keyboard-response","313","1652241","0.0-8.0-2.0-2.10-1.10","2","1","c6f2j8gzehnh9sa","","467","","<p>To replay the <u>TARGET SOUND</u>, press P.</p> When you are ready to begin, press SPACEBAR.","","80","","","","","","","","","","","","","","","","","","","","","","","","","","","","","","","","","","","","","","","","","",""
"audio-keyboard-response","314","1653053","0.0-8.0-2.0-2.11-0.11","2","1","c6f2j8gzehnh9sa","","null","","sounds/syllables/re_SWS.wav","","null","","","","","","","","","","","","","","","","","","","","","","","","","","","","","","","","","","","","","","","","","",""
