"trial_type","trial_index","time_elapsed","internal_node_id","counterbalance","lang_instruct","ParticipantID","view_history","rt","url","stimulus","button_pressed","key_press","correctRESP","correct","designation","location","correctanswer","responses","sentence","keywords","typed_resp","keyword1_acc","keyword2_acc","keyword3_acc","keyword4_acc","keyword5_acc","total_acc","prop_acc","timeouts","pause_rt01","pause_rt02","train_file","numKeyPress","sound","fam_type","SYLLABLE","EXEMPLAR","TD_LOCS","TD_TYPE","TDLOC_01","TDLOC_02","TDLOC_03","TDLOC_04","TD_RT_01","TD_RT_02","TD_RT_03","TD_RT_04","TD_SUBJ_RTs","number_of_plays","slider_start","response","question_order","syllable","syllable_type"
"pavlovia","0","2","0.0-0.0","2","1","8qlpbftzze140mw","","","","","","","","","","","","","","","","","","","","","","","","","","","","","","","","","","","","","","","","","","","","","","","",""
"instructions","1","27937","0.0-1.0","2","1","8qlpbftzze140mw","[{""page_index"":0,""viewing_time"":3515.800000011921},{""page_index"":1,""viewing_time"":24416.09999999404}]","27934.30000001192","","","","","","","","","","","","","","","","","","","","","","","","","","","","","","","","","","","","","","","","","","","","","",""
"external-html","2","30050","0.0-2.0","2","1","8qlpbftzze140mw","","2092.699999988079","consent/consent.html","","","","","","","","","","","","","","","","","","","","","","","","","","","","","","","","","","","","","","","","","","","","",""
"html-button-response","3","30937","0.0-3.0-0.0-0.0","2","1","8qlpbftzze140mw","","885.5999999940395","","<p>Welcome to the study. You will first complete a short volume calibration and headphone check.</p><p>Please make sure you are in a quiet listening environment, that you are wearing headphones, and that your computer's volume is turned on.<p></p>","0","","","","","","","","","","","","","","","","","","","","","","","","","","","","","","","","","","","","","","","","","","",""
"html-button-response","4","31870","0.0-3.0-0.0-1.0","2","1","8qlpbftzze140mw","","681.9000000059605","","<p>The volume calibration will be first.</p><p>You will hear a thirty-second noise. Please adjust your computer's volume so that this noise is being presented at a comfortable level.<p></p>","0","","","","","","","","","","","","","","","","","","","","","","","","","","","","","","","","","","","","","","","","","","",""
"audio-button-response","5","33569","0.0-3.0-0.0-2.0","2","1","8qlpbftzze140mw","","1392","","audCalib/volumetest.mp3","0","","","","","","","","","","","","","","","","","","","","","","","","","","","","","","","","","","","","","","","","","","",""
"html-button-response","6","34313","0.0-3.0-1.0-0.0","2","1","8qlpbftzze140mw","","743.0999999940395","","<p>You will now complete a short headphone check.</p><p>On each trial, you will hear three tones. One of these tones will be quieter than the others. Your task is to identify whether the quiet tone occured first, second, or third.</p><p>There are six trials in total.<p></p>","0","","","","","","","","","","","","","","","","","","","","","","","","","","","","","","","","","","","","","","","","","","",""
"html-keyboard-response","7","35068","0.0-3.0-1.0-1.0-0.0","2","1","8qlpbftzze140mw","","null","","<div style=""font-size:60px;"">+</div>","","null","","","","","","","","","","","","","","","","","","","","","","","","","","","","","","","","","","","","","","","","","",""
"audio-button-response","8","36923","0.0-3.0-1.0-1.0-1.0","2","1","8qlpbftzze140mw","","1856","","audCalib/t3_1.mp3","1","","2","0","headphone-test","","","","","","","","","","","","","","","","","","","","","","","","","","","","","","","","","","","","","","",""
"html-keyboard-response","9","37678","0.0-3.0-1.0-1.0-0.1","2","1","8qlpbftzze140mw","","null","","<div style=""font-size:60px;"">+</div>","","null","","","","","","","","","","","","","","","","","","","","","","","","","","","","","","","","","","","","","","","","","",""
"audio-button-response","10","38412","0.0-3.0-1.0-1.0-1.1","2","1","8qlpbftzze140mw","","736","","audCalib/t2_1.mp3","1","","1","1","headphone-test","","","","","","","","","","","","","","","","","","","","","","","","","","","","","","","","","","","","","","",""
"html-keyboard-response","11","39163","0.0-3.0-1.0-1.0-0.2","2","1","8qlpbftzze140mw","","null","","<div style=""font-size:60px;"">+</div>","","null","","","","","","","","","","","","","","","","","","","","","","","","","","","","","","","","","","","","","","","","","",""
"audio-button-response","12","39551","0.0-3.0-1.0-1.0-1.2","2","1","8qlpbftzze140mw","","384","","audCalib/t1_2.mp3","1","","0","0","headphone-test","","","","","","","","","","","","","","","","","","","","","","","","","","","","","","","","","","","","","","",""
"html-keyboard-response","13","40303","0.0-3.0-1.0-1.0-0.3","2","1","8qlpbftzze140mw","","null","","<div style=""font-size:60px;"">+</div>","","null","","","","","","","","","","","","","","","","","","","","","","","","","","","","","","","","","","","","","","","","","",""
"audio-button-response","14","40680","0.0-3.0-1.0-1.0-1.3","2","1","8qlpbftzze140mw","","379","","audCalib/t3_2.mp3","1","","2","0","headphone-test","","","","","","","","","","","","","","","","","","","","","","","","","","","","","","","","","","","","","","",""
"html-keyboard-response","15","41436","0.0-3.0-1.0-1.0-0.4","2","1","8qlpbftzze140mw","","null","","<div style=""font-size:60px;"">+</div>","","null","","","","","","","","","","","","","","","","","","","","","","","","","","","","","","","","","","","","","","","","","",""
"audio-button-response","16","41842","0.0-3.0-1.0-1.0-1.4","2","1","8qlpbftzze140mw","","405","","audCalib/t2_2.mp3","1","","1","1","headphone-test","","","","","","","","","","","","","","","","","","","","","","","","","","","","","","","","","","","","","","",""
"html-keyboard-response","17","42599","0.0-3.0-1.0-1.0-0.5","2","1","8qlpbftzze140mw","","null","","<div style=""font-size:60px;"">+</div>","","null","","","","","","","","","","","","","","","","","","","","","","","","","","","","","","","","","","","","","","","","","",""
"audio-button-response","18","43332","0.0-3.0-1.0-1.0-1.5","2","1","8qlpbftzze140mw","","731","","audCalib/t1_1.mp3","0","","0","1","headphone-test","","","","","","","","","","","","","","","","","","","","","","","","","","","","","","","","","","","","","","",""
"html-button-response","19","44343","0.0-3.0-2.0","2","1","8qlpbftzze140mw","","758.8000000119209","","<p>The volume calibration and headphone check are now complete.</p>","0","","","","","","","","","","","","","","","","","","","","","","","","","","","","","","","","","","","","","","","","","","",""
"instructions","20","46793","0.0-4.0-0.0","2","1","8qlpbftzze140mw","[{""page_index"":0,""viewing_time"":816.1000000238419},{""page_index"":1,""viewing_time"":871.8999999761581},{""page_index"":2,""viewing_time"":761.5}]","2449.800000011921","","","","","","","","","","","","","","","","","","","","","","","","","","","","","","","","","","","","","","","","","","","","","",""
"audio-keyboard-response","21","47099","0.0-4.0-1.0-0.0","2","1","8qlpbftzze140mw","","null","","sounds/induction/right/fu_SWS.wav","","null","","","","","","","","","","","","","","","","","","","","","","","","","","","","","","","","","","","","","","","","","",""
"html-button-response","22","48359","0.0-4.0-1.0-1.0","2","1","8qlpbftzze140mw","","1258.4000000059605","","What sound did you hear?","0","","","1","INDUCTION-JUDGMENT","right","0","","","","","","","","","","","","","","","","","","","","","","","","","","","","","","","","","","","","",""
"html-keyboard-response","23","49361","0.0-4.0-1.0-2.0","2","1","8qlpbftzze140mw","","null","","<p style=""color:green;""><b>Correct!</b></p>","","null","","","","","","","","","","","","","","","","","","","","","","","","","","","","","","","","","","","","","","","","","",""
"audio-keyboard-response","24","50170","0.0-4.0-1.0-0.1","2","1","8qlpbftzze140mw","","null","","sounds/induction/right/me_SWS.wav","","null","","","","","","","","","","","","","","","","","","","","","","","","","","","","","","","","","","","","","","","","","",""
"html-button-response","25","51241","0.0-4.0-1.0-1.1","2","1","8qlpbftzze140mw","","1069.800000011921","","What sound did you hear?","0","","","1","INDUCTION-JUDGMENT","right","0","","","","","","","","","","","","","","","","","","","","","","","","","","","","","","","","","","","","",""
"html-keyboard-response","26","52242","0.0-4.0-1.0-2.1","2","1","8qlpbftzze140mw","","null","","<p style=""color:green;""><b>Correct!</b></p>","","null","","","","","","","","","","","","","","","","","","","","","","","","","","","","","","","","","","","","","","","","","",""
"audio-keyboard-response","27","53045","0.0-4.0-1.0-0.2","2","1","8qlpbftzze140mw","","null","","sounds/induction/left/fe_SWS.wav","","null","","","","","","","","","","","","","","","","","","","","","","","","","","","","","","","","","","","","","","","","","",""
"html-button-response","28","53980","0.0-4.0-1.0-1.2","2","1","8qlpbftzze140mw","","934.4000000059605","","What sound did you hear?","0","","","0","INDUCTION-JUDGMENT","left","1","","","","","","","","","","","","","","","","","","","","","","","","","","","","","","","","","","","","",""
"html-keyboard-response","29","54986","0.0-4.0-1.0-2.2","2","1","8qlpbftzze140mw","","null","","<p style=""color:red;""><b>Incorrect!</b></p>","","null","","","","","","","","","","","","","","","","","","","","","","","","","","","","","","","","","","","","","","","","","",""
"audio-keyboard-response","30","55791","0.0-4.0-1.0-0.3","2","1","8qlpbftzze140mw","","null","","sounds/induction/left/ta_SWS.wav","","null","","","","","","","","","","","","","","","","","","","","","","","","","","","","","","","","","","","","","","","","","",""
"html-button-response","31","56619","0.0-4.0-1.0-1.3","2","1","8qlpbftzze140mw","","826.6999999880791","","What sound did you hear?","0","","","1","INDUCTION-JUDGMENT","left","0","","","","","","","","","","","","","","","","","","","","","","","","","","","","","","","","","","","","",""
"html-keyboard-response","32","57624","0.0-4.0-1.0-2.3","2","1","8qlpbftzze140mw","","null","","<p style=""color:green;""><b>Correct!</b></p>","","null","","","","","","","","","","","","","","","","","","","","","","","","","","","","","","","","","","","","","","","","","",""
"audio-keyboard-response","33","58426","0.0-4.0-1.0-0.4","2","1","8qlpbftzze140mw","","null","","sounds/induction/right/fe_SWS.wav","","null","","","","","","","","","","","","","","","","","","","","","","","","","","","","","","","","","","","","","","","","","",""
"html-button-response","34","60106","0.0-4.0-1.0-1.4","2","1","8qlpbftzze140mw","","1679.4000000059605","","What sound did you hear?","0","","","1","INDUCTION-JUDGMENT","right","0","","","","","","","","","","","","","","","","","","","","","","","","","","","","","","","","","","","","",""
"html-keyboard-response","35","61111","0.0-4.0-1.0-2.4","2","1","8qlpbftzze140mw","","null","","<p style=""color:green;""><b>Correct!</b></p>","","null","","","","","","","","","","","","","","","","","","","","","","","","","","","","","","","","","","","","","","","","","",""
"audio-keyboard-response","36","61914","0.0-4.0-1.0-0.5","2","1","8qlpbftzze140mw","","null","","sounds/induction/right/re_SWS.wav","","null","","","","","","","","","","","","","","","","","","","","","","","","","","","","","","","","","","","","","","","","","",""
"html-button-response","37","63607","0.0-4.0-1.0-1.5","2","1","8qlpbftzze140mw","","1691.7999999821186","","What sound did you hear?","1","","","1","INDUCTION-JUDGMENT","right","1","","","","","","","","","","","","","","","","","","","","","","","","","","","","","","","","","","","","",""
"html-keyboard-response","38","64609","0.0-4.0-1.0-2.5","2","1","8qlpbftzze140mw","","null","","<p style=""color:green;""><b>Correct!</b></p>","","null","","","","","","","","","","","","","","","","","","","","","","","","","","","","","","","","","","","","","","","","","",""
"audio-keyboard-response","39","65412","0.0-4.0-1.0-0.6","2","1","8qlpbftzze140mw","","null","","sounds/induction/left/re_SWS.wav","","null","","","","","","","","","","","","","","","","","","","","","","","","","","","","","","","","","","","","","","","","","",""
"html-button-response","40","67590","0.0-4.0-1.0-1.6","2","1","8qlpbftzze140mw","","2177.199999988079","","What sound did you hear?","0","","","1","INDUCTION-JUDGMENT","left","0","","","","","","","","","","","","","","","","","","","","","","","","","","","","","","","","","","","","",""
"html-keyboard-response","41","68596","0.0-4.0-1.0-2.6","2","1","8qlpbftzze140mw","","null","","<p style=""color:green;""><b>Correct!</b></p>","","null","","","","","","","","","","","","","","","","","","","","","","","","","","","","","","","","","","","","","","","","","",""
"audio-keyboard-response","42","69402","0.0-4.0-1.0-0.7","2","1","8qlpbftzze140mw","","null","","sounds/induction/left/fu_SWS.wav","","null","","","","","","","","","","","","","","","","","","","","","","","","","","","","","","","","","","","","","","","","","",""
"html-button-response","43","71197","0.0-4.0-1.0-1.7","2","1","8qlpbftzze140mw","","1794","","What sound did you hear?","1","","","1","INDUCTION-JUDGMENT","left","1","","","","","","","","","","","","","","","","","","","","","","","","","","","","","","","","","","","","",""
"html-keyboard-response","44","72202","0.0-4.0-1.0-2.7","2","1","8qlpbftzze140mw","","null","","<p style=""color:green;""><b>Correct!</b></p>","","null","","","","","","","","","","","","","","","","","","","","","","","","","","","","","","","","","","","","","","","","","",""
"audio-keyboard-response","45","73007","0.0-4.0-1.0-0.8","2","1","8qlpbftzze140mw","","null","","sounds/induction/right/ti_SWS.wav","","null","","","","","","","","","","","","","","","","","","","","","","","","","","","","","","","","","","","","","","","","","",""
"html-button-response","46","75034","0.0-4.0-1.0-1.8","2","1","8qlpbftzze140mw","","2026.0999999940395","","What sound did you hear?","1","","","1","INDUCTION-JUDGMENT","right","1","","","","","","","","","","","","","","","","","","","","","","","","","","","","","","","","","","","","",""
"html-keyboard-response","47","76036","0.0-4.0-1.0-2.8","2","1","8qlpbftzze140mw","","null","","<p style=""color:green;""><b>Correct!</b></p>","","null","","","","","","","","","","","","","","","","","","","","","","","","","","","","","","","","","","","","","","","","","",""
"audio-keyboard-response","48","76841","0.0-4.0-1.0-0.9","2","1","8qlpbftzze140mw","","null","","sounds/induction/right/ni_SWS.wav","","null","","","","","","","","","","","","","","","","","","","","","","","","","","","","","","","","","","","","","","","","","",""
"html-button-response","49","77663","0.0-4.0-1.0-1.9","2","1","8qlpbftzze140mw","","820.5","","What sound did you hear?","0","","","1","INDUCTION-JUDGMENT","right","0","","","","","","","","","","","","","","","","","","","","","","","","","","","","","","","","","","","","",""
"html-keyboard-response","50","78668","0.0-4.0-1.0-2.9","2","1","8qlpbftzze140mw","","null","","<p style=""color:green;""><b>Correct!</b></p>","","null","","","","","","","","","","","","","","","","","","","","","","","","","","","","","","","","","","","","","","","","","",""
"audio-keyboard-response","51","79476","0.0-4.0-1.0-0.10","2","1","8qlpbftzze140mw","","null","","sounds/induction/right/ni_SWS.wav","","null","","","","","","","","","","","","","","","","","","","","","","","","","","","","","","","","","","","","","","","","","",""
"html-button-response","52","81323","0.0-4.0-1.0-1.10","2","1","8qlpbftzze140mw","","1845.7000000178814","","What sound did you hear?","1","","","0","INDUCTION-JUDGMENT","right","0","","","","","","","","","","","","","","","","","","","","","","","","","","","","","","","","","","","","",""
"html-keyboard-response","53","82324","0.0-4.0-1.0-2.10","2","1","8qlpbftzze140mw","","null","","<p style=""color:red;""><b>Incorrect!</b></p>","","null","","","","","","","","","","","","","","","","","","","","","","","","","","","","","","","","","","","","","","","","","",""
"audio-keyboard-response","54","83129","0.0-4.0-1.0-0.11","2","1","8qlpbftzze140mw","","null","","sounds/induction/right/fu_SWS.wav","","null","","","","","","","","","","","","","","","","","","","","","","","","","","","","","","","","","","","","","","","","","",""
"html-button-response","55","84733","0.0-4.0-1.0-1.11","2","1","8qlpbftzze140mw","","1602.699999988079","","What sound did you hear?","0","","","1","INDUCTION-JUDGMENT","right","0","","","","","","","","","","","","","","","","","","","","","","","","","","","","","","","","","","","","",""
"html-keyboard-response","56","85736","0.0-4.0-1.0-2.11","2","1","8qlpbftzze140mw","","null","","<p style=""color:green;""><b>Correct!</b></p>","","null","","","","","","","","","","","","","","","","","","","","","","","","","","","","","","","","","","","","","","","","","",""
"audio-keyboard-response","57","86543","0.0-4.0-1.0-0.12","2","1","8qlpbftzze140mw","","null","","sounds/induction/left/fu_SWS.wav","","null","","","","","","","","","","","","","","","","","","","","","","","","","","","","","","","","","","","","","","","","","",""
"html-button-response","58","90055","0.0-4.0-1.0-1.12","2","1","8qlpbftzze140mw","","3511","","What sound did you hear?","1","","","1","INDUCTION-JUDGMENT","left","1","","","","","","","","","","","","","","","","","","","","","","","","","","","","","","","","","","","","",""
"html-keyboard-response","59","91057","0.0-4.0-1.0-2.12","2","1","8qlpbftzze140mw","","null","","<p style=""color:green;""><b>Correct!</b></p>","","null","","","","","","","","","","","","","","","","","","","","","","","","","","","","","","","","","","","","","","","","","",""
"audio-keyboard-response","60","91860","0.0-4.0-1.0-0.13","2","1","8qlpbftzze140mw","","null","","sounds/induction/left/ge_SWS.wav","","null","","","","","","","","","","","","","","","","","","","","","","","","","","","","","","","","","","","","","","","","","",""
"html-button-response","61","93177","0.0-4.0-1.0-1.13","2","1","8qlpbftzze140mw","","1316.800000011921","","What sound did you hear?","1","","","1","INDUCTION-JUDGMENT","left","1","","","","","","","","","","","","","","","","","","","","","","","","","","","","","","","","","","","","",""
"html-keyboard-response","62","94182","0.0-4.0-1.0-2.13","2","1","8qlpbftzze140mw","","null","","<p style=""color:green;""><b>Correct!</b></p>","","null","","","","","","","","","","","","","","","","","","","","","","","","","","","","","","","","","","","","","","","","","",""
"audio-keyboard-response","63","94990","0.0-4.0-1.0-0.14","2","1","8qlpbftzze140mw","","null","","sounds/induction/right/ko_SWS.wav","","null","","","","","","","","","","","","","","","","","","","","","","","","","","","","","","","","","","","","","","","","","",""
"html-button-response","64","97298","0.0-4.0-1.0-1.14","2","1","8qlpbftzze140mw","","2306.7999999821186","","What sound did you hear?","1","","","0","INDUCTION-JUDGMENT","right","0","","","","","","","","","","","","","","","","","","","","","","","","","","","","","","","","","","","","",""
"html-keyboard-response","65","98302","0.0-4.0-1.0-2.14","2","1","8qlpbftzze140mw","","null","","<p style=""color:red;""><b>Incorrect!</b></p>","","null","","","","","","","","","","","","","","","","","","","","","","","","","","","","","","","","","","","","","","","","","",""
"audio-keyboard-response","66","99107","0.0-4.0-1.0-0.15","2","1","8qlpbftzze140mw","","null","","sounds/induction/right/ge_SWS.wav","","null","","","","","","","","","","","","","","","","","","","","","","","","","","","","","","","","","","","","","","","","","",""
"html-button-response","67","101082","0.0-4.0-1.0-1.15","2","1","8qlpbftzze140mw","","1973.9000000059605","","What sound did you hear?","0","","","1","INDUCTION-JUDGMENT","right","0","","","","","","","","","","","","","","","","","","","","","","","","","","","","","","","","","","","","",""
"html-keyboard-response","68","102087","0.0-4.0-1.0-2.15","2","1","8qlpbftzze140mw","","null","","<p style=""color:green;""><b>Correct!</b></p>","","null","","","","","","","","","","","","","","","","","","","","","","","","","","","","","","","","","","","","","","","","","",""
"audio-keyboard-response","69","102894","0.0-4.0-1.0-0.16","2","1","8qlpbftzze140mw","","null","","sounds/induction/left/ko_SWS.wav","","null","","","","","","","","","","","","","","","","","","","","","","","","","","","","","","","","","","","","","","","","","",""
"html-button-response","70","105411","0.0-4.0-1.0-1.16","2","1","8qlpbftzze140mw","","2515.4000000059605","","What sound did you hear?","1","","","1","INDUCTION-JUDGMENT","left","1","","","","","","","","","","","","","","","","","","","","","","","","","","","","","","","","","","","","",""
"html-keyboard-response","71","106412","0.0-4.0-1.0-2.16","2","1","8qlpbftzze140mw","","null","","<p style=""color:green;""><b>Correct!</b></p>","","null","","","","","","","","","","","","","","","","","","","","","","","","","","","","","","","","","","","","","","","","","",""
"audio-keyboard-response","72","107214","0.0-4.0-1.0-0.17","2","1","8qlpbftzze140mw","","null","","sounds/induction/right/su_SWS.wav","","null","","","","","","","","","","","","","","","","","","","","","","","","","","","","","","","","","","","","","","","","","",""
"html-button-response","73","109972","0.0-4.0-1.0-1.17","2","1","8qlpbftzze140mw","","2757.800000011921","","What sound did you hear?","1","","","1","INDUCTION-JUDGMENT","right","1","","","","","","","","","","","","","","","","","","","","","","","","","","","","","","","","","","","","",""
"html-keyboard-response","74","110977","0.0-4.0-1.0-2.17","2","1","8qlpbftzze140mw","","null","","<p style=""color:green;""><b>Correct!</b></p>","","null","","","","","","","","","","","","","","","","","","","","","","","","","","","","","","","","","","","","","","","","","",""
"audio-keyboard-response","75","111779","0.0-4.0-1.0-0.18","2","1","8qlpbftzze140mw","","null","","sounds/induction/right/pu_SWS.wav","","null","","","","","","","","","","","","","","","","","","","","","","","","","","","","","","","","","","","","","","","","","",""
"html-button-response","76","113742","0.0-4.0-1.0-1.18","2","1","8qlpbftzze140mw","","1961.5999999940395","","What sound did you hear?","1","","","1","INDUCTION-JUDGMENT","right","1","","","","","","","","","","","","","","","","","","","","","","","","","","","","","","","","","","","","",""
"html-keyboard-response","77","114745","0.0-4.0-1.0-2.18","2","1","8qlpbftzze140mw","","null","","<p style=""color:green;""><b>Correct!</b></p>","","null","","","","","","","","","","","","","","","","","","","","","","","","","","","","","","","","","","","","","","","","","",""
"audio-keyboard-response","78","115550","0.0-4.0-1.0-0.19","2","1","8qlpbftzze140mw","","null","","sounds/induction/right/pu_SWS.wav","","null","","","","","","","","","","","","","","","","","","","","","","","","","","","","","","","","","","","","","","","","","",""
"html-button-response","79","116931","0.0-4.0-1.0-1.19","2","1","8qlpbftzze140mw","","1380","","What sound did you hear?","1","","","1","INDUCTION-JUDGMENT","right","1","","","","","","","","","","","","","","","","","","","","","","","","","","","","","","","","","","","","",""
"html-keyboard-response","80","117934","0.0-4.0-1.0-2.19","2","1","8qlpbftzze140mw","","null","","<p style=""color:green;""><b>Correct!</b></p>","","null","","","","","","","","","","","","","","","","","","","","","","","","","","","","","","","","","","","","","","","","","",""
"audio-keyboard-response","81","118740","0.0-4.0-1.0-0.20","2","1","8qlpbftzze140mw","","null","","sounds/induction/right/ru_SWS.wav","","null","","","","","","","","","","","","","","","","","","","","","","","","","","","","","","","","","","","","","","","","","",""
"html-button-response","82","122956","0.0-4.0-1.0-1.20","2","1","8qlpbftzze140mw","","4214.0999999940395","","What sound did you hear?","1","","","1","INDUCTION-JUDGMENT","right","1","","","","","","","","","","","","","","","","","","","","","","","","","","","","","","","","","","","","",""
"html-keyboard-response","83","123960","0.0-4.0-1.0-2.20","2","1","8qlpbftzze140mw","","null","","<p style=""color:green;""><b>Correct!</b></p>","","null","","","","","","","","","","","","","","","","","","","","","","","","","","","","","","","","","","","","","","","","","",""
"audio-keyboard-response","84","124762","0.0-4.0-1.0-0.21","2","1","8qlpbftzze140mw","","null","","sounds/induction/left/pu_SWS.wav","","null","","","","","","","","","","","","","","","","","","","","","","","","","","","","","","","","","","","","","","","","","",""
"html-button-response","85","135236","0.0-4.0-1.0-1.21","2","1","8qlpbftzze140mw","","10472","","What sound did you hear?","1","","","0","INDUCTION-JUDGMENT","left","0","","","","","","","","","","","","","","","","","","","","","","","","","","","","","","","","","","","","",""
"html-keyboard-response","86","136240","0.0-4.0-1.0-2.21","2","1","8qlpbftzze140mw","","null","","<p style=""color:red;""><b>Incorrect!</b></p>","","null","","","","","","","","","","","","","","","","","","","","","","","","","","","","","","","","","","","","","","","","","",""
"audio-keyboard-response","87","137045","0.0-4.0-1.0-0.22","2","1","8qlpbftzze140mw","","null","","sounds/induction/left/su_SWS.wav","","null","","","","","","","","","","","","","","","","","","","","","","","","","","","","","","","","","","","","","","","","","",""
"html-button-response","88","139231","0.0-4.0-1.0-1.22","2","1","8qlpbftzze140mw","","2184.2999999821186","","What sound did you hear?","1","","","0","INDUCTION-JUDGMENT","left","0","","","","","","","","","","","","","","","","","","","","","","","","","","","","","","","","","","","","",""
"html-keyboard-response","89","140232","0.0-4.0-1.0-2.22","2","1","8qlpbftzze140mw","","null","","<p style=""color:red;""><b>Incorrect!</b></p>","","null","","","","","","","","","","","","","","","","","","","","","","","","","","","","","","","","","","","","","","","","","",""
"audio-keyboard-response","90","141040","0.0-4.0-1.0-0.23","2","1","8qlpbftzze140mw","","null","","sounds/induction/left/ti_SWS.wav","","null","","","","","","","","","","","","","","","","","","","","","","","","","","","","","","","","","","","","","","","","","",""
"html-button-response","91","142974","0.0-4.0-1.0-1.23","2","1","8qlpbftzze140mw","","1933.0999999940395","","What sound did you hear?","0","","","1","INDUCTION-JUDGMENT","left","0","","","","","","","","","","","","","","","","","","","","","","","","","","","","","","","","","","","","",""
"html-keyboard-response","92","143980","0.0-4.0-1.0-2.23","2","1","8qlpbftzze140mw","","null","","<p style=""color:green;""><b>Correct!</b></p>","","null","","","","","","","","","","","","","","","","","","","","","","","","","","","","","","","","","","","","","","","","","",""
"audio-keyboard-response","93","144784","0.0-4.0-1.0-0.24","2","1","8qlpbftzze140mw","","null","","sounds/induction/left/fe_SWS.wav","","null","","","","","","","","","","","","","","","","","","","","","","","","","","","","","","","","","","","","","","","","","",""
"html-button-response","94","146303","0.0-4.0-1.0-1.24","2","1","8qlpbftzze140mw","","1517.4000000059605","","What sound did you hear?","0","","","0","INDUCTION-JUDGMENT","left","1","","","","","","","","","","","","","","","","","","","","","","","","","","","","","","","","","","","","",""
"html-keyboard-response","95","147306","0.0-4.0-1.0-2.24","2","1","8qlpbftzze140mw","","null","","<p style=""color:red;""><b>Incorrect!</b></p>","","null","","","","","","","","","","","","","","","","","","","","","","","","","","","","","","","","","","","","","","","","","",""
"audio-keyboard-response","96","148112","0.0-4.0-1.0-0.25","2","1","8qlpbftzze140mw","","null","","sounds/induction/right/ge_SWS.wav","","null","","","","","","","","","","","","","","","","","","","","","","","","","","","","","","","","","","","","","","","","","",""
"html-button-response","97","149569","0.0-4.0-1.0-1.25","2","1","8qlpbftzze140mw","","1456.300000011921","","What sound did you hear?","0","","","1","INDUCTION-JUDGMENT","right","0","","","","","","","","","","","","","","","","","","","","","","","","","","","","","","","","","","","","",""
"html-keyboard-response","98","150575","0.0-4.0-1.0-2.25","2","1","8qlpbftzze140mw","","null","","<p style=""color:green;""><b>Correct!</b></p>","","null","","","","","","","","","","","","","","","","","","","","","","","","","","","","","","","","","","","","","","","","","",""
"audio-keyboard-response","99","151376","0.0-4.0-1.0-0.26","2","1","8qlpbftzze140mw","","null","","sounds/induction/left/su_SWS.wav","","null","","","","","","","","","","","","","","","","","","","","","","","","","","","","","","","","","","","","","","","","","",""
"html-button-response","100","153354","0.0-4.0-1.0-1.26","2","1","8qlpbftzze140mw","","1977.199999988079","","What sound did you hear?","0","","","1","INDUCTION-JUDGMENT","left","0","","","","","","","","","","","","","","","","","","","","","","","","","","","","","","","","","","","","",""
"html-keyboard-response","101","154357","0.0-4.0-1.0-2.26","2","1","8qlpbftzze140mw","","null","","<p style=""color:green;""><b>Correct!</b></p>","","null","","","","","","","","","","","","","","","","","","","","","","","","","","","","","","","","","","","","","","","","","",""
"audio-keyboard-response","102","155157","0.0-4.0-1.0-0.27","2","1","8qlpbftzze140mw","","null","","sounds/induction/left/ru_SWS.wav","","null","","","","","","","","","","","","","","","","","","","","","","","","","","","","","","","","","","","","","","","","","",""
"html-button-response","103","157746","0.0-4.0-1.0-1.27","2","1","8qlpbftzze140mw","","2588","","What sound did you hear?","0","","","1","INDUCTION-JUDGMENT","left","0","","","","","","","","","","","","","","","","","","","","","","","","","","","","","","","","","","","","",""
"html-keyboard-response","104","158751","0.0-4.0-1.0-2.27","2","1","8qlpbftzze140mw","","null","","<p style=""color:green;""><b>Correct!</b></p>","","null","","","","","","","","","","","","","","","","","","","","","","","","","","","","","","","","","","","","","","","","","",""
"audio-keyboard-response","105","159557","0.0-4.0-1.0-0.28","2","1","8qlpbftzze140mw","","null","","sounds/induction/right/ta_SWS.wav","","null","","","","","","","","","","","","","","","","","","","","","","","","","","","","","","","","","","","","","","","","","",""
"html-button-response","106","160879","0.0-4.0-1.0-1.28","2","1","8qlpbftzze140mw","","1319.5999999940395","","What sound did you hear?","1","","","1","INDUCTION-JUDGMENT","right","1","","","","","","","","","","","","","","","","","","","","","","","","","","","","","","","","","","","","",""
"html-keyboard-response","107","161882","0.0-4.0-1.0-2.28","2","1","8qlpbftzze140mw","","null","","<p style=""color:green;""><b>Correct!</b></p>","","null","","","","","","","","","","","","","","","","","","","","","","","","","","","","","","","","","","","","","","","","","",""
"audio-keyboard-response","108","162688","0.0-4.0-1.0-0.29","2","1","8qlpbftzze140mw","","null","","sounds/induction/left/ru_SWS.wav","","null","","","","","","","","","","","","","","","","","","","","","","","","","","","","","","","","","","","","","","","","","",""
"html-button-response","109","165391","0.0-4.0-1.0-1.29","2","1","8qlpbftzze140mw","","2701.5","","What sound did you hear?","0","","","1","INDUCTION-JUDGMENT","left","0","","","","","","","","","","","","","","","","","","","","","","","","","","","","","","","","","","","","",""
"html-keyboard-response","110","166394","0.0-4.0-1.0-2.29","2","1","8qlpbftzze140mw","","null","","<p style=""color:green;""><b>Correct!</b></p>","","null","","","","","","","","","","","","","","","","","","","","","","","","","","","","","","","","","","","","","","","","","",""
"audio-keyboard-response","111","167194","0.0-4.0-1.0-0.30","2","1","8qlpbftzze140mw","","null","","sounds/induction/right/ta_SWS.wav","","null","","","","","","","","","","","","","","","","","","","","","","","","","","","","","","","","","","","","","","","","","",""
"html-button-response","112","177102","0.0-4.0-1.0-1.30","2","1","8qlpbftzze140mw","","9906.40000000596","","What sound did you hear?","1","","","1","INDUCTION-JUDGMENT","right","1","","","","","","","","","","","","","","","","","","","","","","","","","","","","","","","","","","","","",""
"html-keyboard-response","113","178104","0.0-4.0-1.0-2.30","2","1","8qlpbftzze140mw","","null","","<p style=""color:green;""><b>Correct!</b></p>","","null","","","","","","","","","","","","","","","","","","","","","","","","","","","","","","","","","","","","","","","","","",""
"audio-keyboard-response","114","178911","0.0-4.0-1.0-0.31","2","1","8qlpbftzze140mw","","null","","sounds/induction/left/me_SWS.wav","","null","","","","","","","","","","","","","","","","","","","","","","","","","","","","","","","","","","","","","","","","","",""
"html-button-response","115","180039","0.0-4.0-1.0-1.31","2","1","8qlpbftzze140mw","","1126.199999988079","","What sound did you hear?","1","","","1","INDUCTION-JUDGMENT","left","1","","","","","","","","","","","","","","","","","","","","","","","","","","","","","","","","","","","","",""
"html-keyboard-response","116","181040","0.0-4.0-1.0-2.31","2","1","8qlpbftzze140mw","","null","","<p style=""color:green;""><b>Correct!</b></p>","","null","","","","","","","","","","","","","","","","","","","","","","","","","","","","","","","","","","","","","","","","","",""
"audio-keyboard-response","117","181845","0.0-4.0-1.0-0.32","2","1","8qlpbftzze140mw","","null","","sounds/induction/right/me_SWS.wav","","null","","","","","","","","","","","","","","","","","","","","","","","","","","","","","","","","","","","","","","","","","",""
"html-button-response","118","183436","0.0-4.0-1.0-1.32","2","1","8qlpbftzze140mw","","1590","","What sound did you hear?","0","","","1","INDUCTION-JUDGMENT","right","0","","","","","","","","","","","","","","","","","","","","","","","","","","","","","","","","","","","","",""
"html-keyboard-response","119","184437","0.0-4.0-1.0-2.32","2","1","8qlpbftzze140mw","","null","","<p style=""color:green;""><b>Correct!</b></p>","","null","","","","","","","","","","","","","","","","","","","","","","","","","","","","","","","","","","","","","","","","","",""
"audio-keyboard-response","120","185242","0.0-4.0-1.0-0.33","2","1","8qlpbftzze140mw","","null","","sounds/induction/left/ta_SWS.wav","","null","","","","","","","","","","","","","","","","","","","","","","","","","","","","","","","","","","","","","","","","","",""
"html-button-response","121","187741","0.0-4.0-1.0-1.33","2","1","8qlpbftzze140mw","","2498.4000000059605","","What sound did you hear?","0","","","1","INDUCTION-JUDGMENT","left","0","","","","","","","","","","","","","","","","","","","","","","","","","","","","","","","","","","","","",""
"html-keyboard-response","122","188746","0.0-4.0-1.0-2.33","2","1","8qlpbftzze140mw","","null","","<p style=""color:green;""><b>Correct!</b></p>","","null","","","","","","","","","","","","","","","","","","","","","","","","","","","","","","","","","","","","","","","","","",""
"audio-keyboard-response","123","189551","0.0-4.0-1.0-0.34","2","1","8qlpbftzze140mw","","null","","sounds/induction/left/me_SWS.wav","","null","","","","","","","","","","","","","","","","","","","","","","","","","","","","","","","","","","","","","","","","","",""
"html-button-response","124","192030","0.0-4.0-1.0-1.34","2","1","8qlpbftzze140mw","","2478.0999999940395","","What sound did you hear?","1","","","1","INDUCTION-JUDGMENT","left","1","","","","","","","","","","","","","","","","","","","","","","","","","","","","","","","","","","","","",""
"html-keyboard-response","125","193035","0.0-4.0-1.0-2.34","2","1","8qlpbftzze140mw","","null","","<p style=""color:green;""><b>Correct!</b></p>","","null","","","","","","","","","","","","","","","","","","","","","","","","","","","","","","","","","","","","","","","","","",""
"audio-keyboard-response","126","193839","0.0-4.0-1.0-0.35","2","1","8qlpbftzze140mw","","null","","sounds/induction/right/ko_SWS.wav","","null","","","","","","","","","","","","","","","","","","","","","","","","","","","","","","","","","","","","","","","","","",""
"html-button-response","127","195090","0.0-4.0-1.0-1.35","2","1","8qlpbftzze140mw","","1250.300000011921","","What sound did you hear?","1","","","0","INDUCTION-JUDGMENT","right","0","","","","","","","","","","","","","","","","","","","","","","","","","","","","","","","","","","","","",""
"html-keyboard-response","128","196096","0.0-4.0-1.0-2.35","2","1","8qlpbftzze140mw","","null","","<p style=""color:red;""><b>Incorrect!</b></p>","","null","","","","","","","","","","","","","","","","","","","","","","","","","","","","","","","","","","","","","","","","","",""
"audio-keyboard-response","129","196901","0.0-4.0-1.0-0.36","2","1","8qlpbftzze140mw","","null","","sounds/induction/right/fe_SWS.wav","","null","","","","","","","","","","","","","","","","","","","","","","","","","","","","","","","","","","","","","","","","","",""
"html-button-response","130","198366","0.0-4.0-1.0-1.36","2","1","8qlpbftzze140mw","","1464.199999988079","","What sound did you hear?","0","","","1","INDUCTION-JUDGMENT","right","0","","","","","","","","","","","","","","","","","","","","","","","","","","","","","","","","","","","","",""
"html-keyboard-response","131","199370","0.0-4.0-1.0-2.36","2","1","8qlpbftzze140mw","","null","","<p style=""color:green;""><b>Correct!</b></p>","","null","","","","","","","","","","","","","","","","","","","","","","","","","","","","","","","","","","","","","","","","","",""
"audio-keyboard-response","132","200175","0.0-4.0-1.0-0.37","2","1","8qlpbftzze140mw","","null","","sounds/induction/right/re_SWS.wav","","null","","","","","","","","","","","","","","","","","","","","","","","","","","","","","","","","","","","","","","","","","",""
"html-button-response","133","202728","0.0-4.0-1.0-1.37","2","1","8qlpbftzze140mw","","2551.9000000059605","","What sound did you hear?","1","","","1","INDUCTION-JUDGMENT","right","1","","","","","","","","","","","","","","","","","","","","","","","","","","","","","","","","","","","","",""
"html-keyboard-response","134","203729","0.0-4.0-1.0-2.37","2","1","8qlpbftzze140mw","","null","","<p style=""color:green;""><b>Correct!</b></p>","","null","","","","","","","","","","","","","","","","","","","","","","","","","","","","","","","","","","","","","","","","","",""
"audio-keyboard-response","135","204532","0.0-4.0-1.0-0.38","2","1","8qlpbftzze140mw","","null","","sounds/induction/right/su_SWS.wav","","null","","","","","","","","","","","","","","","","","","","","","","","","","","","","","","","","","","","","","","","","","",""
"html-button-response","136","205201","0.0-4.0-1.0-1.38","2","1","8qlpbftzze140mw","","667.4000000059605","","What sound did you hear?","1","","","1","INDUCTION-JUDGMENT","right","1","","","","","","","","","","","","","","","","","","","","","","","","","","","","","","","","","","","","",""
"html-keyboard-response","137","206205","0.0-4.0-1.0-2.38","2","1","8qlpbftzze140mw","","null","","<p style=""color:green;""><b>Correct!</b></p>","","null","","","","","","","","","","","","","","","","","","","","","","","","","","","","","","","","","","","","","","","","","",""
"audio-keyboard-response","138","207009","0.0-4.0-1.0-0.39","2","1","8qlpbftzze140mw","","null","","sounds/induction/left/re_SWS.wav","","null","","","","","","","","","","","","","","","","","","","","","","","","","","","","","","","","","","","","","","","","","",""
"html-button-response","139","207569","0.0-4.0-1.0-1.39","2","1","8qlpbftzze140mw","","559.0999999940395","","What sound did you hear?","1","","","0","INDUCTION-JUDGMENT","left","0","","","","","","","","","","","","","","","","","","","","","","","","","","","","","","","","","","","","",""
"html-keyboard-response","140","208570","0.0-4.0-1.0-2.39","2","1","8qlpbftzze140mw","","null","","<p style=""color:red;""><b>Incorrect!</b></p>","","null","","","","","","","","","","","","","","","","","","","","","","","","","","","","","","","","","","","","","","","","","",""
"audio-keyboard-response","141","209375","0.0-4.0-1.0-0.40","2","1","8qlpbftzze140mw","","null","","sounds/induction/left/ni_SWS.wav","","null","","","","","","","","","","","","","","","","","","","","","","","","","","","","","","","","","","","","","","","","","",""
"html-button-response","142","209935","0.0-4.0-1.0-1.40","2","1","8qlpbftzze140mw","","559.5999999940395","","What sound did you hear?","0","","","0","INDUCTION-JUDGMENT","left","1","","","","","","","","","","","","","","","","","","","","","","","","","","","","","","","","","","","","",""
"html-keyboard-response","143","210938","0.0-4.0-1.0-2.40","2","1","8qlpbftzze140mw","","null","","<p style=""color:red;""><b>Incorrect!</b></p>","","null","","","","","","","","","","","","","","","","","","","","","","","","","","","","","","","","","","","","","","","","","",""
"audio-keyboard-response","144","211743","0.0-4.0-1.0-0.41","2","1","8qlpbftzze140mw","","null","","sounds/induction/left/ko_SWS.wav","","null","","","","","","","","","","","","","","","","","","","","","","","","","","","","","","","","","","","","","","","","","",""
"html-button-response","145","213280","0.0-4.0-1.0-1.41","2","1","8qlpbftzze140mw","","1536.5999999940395","","What sound did you hear?","0","","","0","INDUCTION-JUDGMENT","left","1","","","","","","","","","","","","","","","","","","","","","","","","","","","","","","","","","","","","",""
"html-keyboard-response","146","214285","0.0-4.0-1.0-2.41","2","1","8qlpbftzze140mw","","null","","<p style=""color:red;""><b>Incorrect!</b></p>","","null","","","","","","","","","","","","","","","","","","","","","","","","","","","","","","","","","","","","","","","","","",""
"audio-keyboard-response","147","215092","0.0-4.0-1.0-0.42","2","1","8qlpbftzze140mw","","null","","sounds/induction/left/ti_SWS.wav","","null","","","","","","","","","","","","","","","","","","","","","","","","","","","","","","","","","","","","","","","","","",""
"html-button-response","148","216239","0.0-4.0-1.0-1.42","2","1","8qlpbftzze140mw","","1146","","What sound did you hear?","0","","","1","INDUCTION-JUDGMENT","left","0","","","","","","","","","","","","","","","","","","","","","","","","","","","","","","","","","","","","",""
"html-keyboard-response","149","217242","0.0-4.0-1.0-2.42","2","1","8qlpbftzze140mw","","null","","<p style=""color:green;""><b>Correct!</b></p>","","null","","","","","","","","","","","","","","","","","","","","","","","","","","","","","","","","","","","","","","","","","",""
"audio-keyboard-response","150","218047","0.0-4.0-1.0-0.43","2","1","8qlpbftzze140mw","","null","","sounds/induction/left/ge_SWS.wav","","null","","","","","","","","","","","","","","","","","","","","","","","","","","","","","","","","","","","","","","","","","",""
"html-button-response","151","219626","0.0-4.0-1.0-1.43","2","1","8qlpbftzze140mw","","1578.8999999761581","","What sound did you hear?","1","","","1","INDUCTION-JUDGMENT","left","1","","","","","","","","","","","","","","","","","","","","","","","","","","","","","","","","","","","","",""
"html-keyboard-response","152","220631","0.0-4.0-1.0-2.43","2","1","8qlpbftzze140mw","","null","","<p style=""color:green;""><b>Correct!</b></p>","","null","","","","","","","","","","","","","","","","","","","","","","","","","","","","","","","","","","","","","","","","","",""
"audio-keyboard-response","153","221433","0.0-4.0-1.0-0.44","2","1","8qlpbftzze140mw","","null","","sounds/induction/right/ti_SWS.wav","","null","","","","","","","","","","","","","","","","","","","","","","","","","","","","","","","","","","","","","","","","","",""
"html-button-response","154","223252","0.0-4.0-1.0-1.44","2","1","8qlpbftzze140mw","","1817.300000011921","","What sound did you hear?","0","","","0","INDUCTION-JUDGMENT","right","1","","","","","","","","","","","","","","","","","","","","","","","","","","","","","","","","","","","","",""
"html-keyboard-response","155","224257","0.0-4.0-1.0-2.44","2","1","8qlpbftzze140mw","","null","","<p style=""color:red;""><b>Incorrect!</b></p>","","null","","","","","","","","","","","","","","","","","","","","","","","","","","","","","","","","","","","","","","","","","",""
"audio-keyboard-response","156","225060","0.0-4.0-1.0-0.45","2","1","8qlpbftzze140mw","","null","","sounds/induction/right/ru_SWS.wav","","null","","","","","","","","","","","","","","","","","","","","","","","","","","","","","","","","","","","","","","","","","",""
"html-button-response","157","226264","0.0-4.0-1.0-1.45","2","1","8qlpbftzze140mw","","1203.5999999940395","","What sound did you hear?","1","","","1","INDUCTION-JUDGMENT","right","1","","","","","","","","","","","","","","","","","","","","","","","","","","","","","","","","","","","","",""
"html-keyboard-response","158","227269","0.0-4.0-1.0-2.45","2","1","8qlpbftzze140mw","","null","","<p style=""color:green;""><b>Correct!</b></p>","","null","","","","","","","","","","","","","","","","","","","","","","","","","","","","","","","","","","","","","","","","","",""
"audio-keyboard-response","159","228074","0.0-4.0-1.0-0.46","2","1","8qlpbftzze140mw","","null","","sounds/induction/left/ni_SWS.wav","","null","","","","","","","","","","","","","","","","","","","","","","","","","","","","","","","","","","","","","","","","","",""
"html-button-response","160","229298","0.0-4.0-1.0-1.46","2","1","8qlpbftzze140mw","","1222.4000000059605","","What sound did you hear?","1","","","1","INDUCTION-JUDGMENT","left","1","","","","","","","","","","","","","","","","","","","","","","","","","","","","","","","","","","","","",""
"html-keyboard-response","161","230303","0.0-4.0-1.0-2.46","2","1","8qlpbftzze140mw","","null","","<p style=""color:green;""><b>Correct!</b></p>","","null","","","","","","","","","","","","","","","","","","","","","","","","","","","","","","","","","","","","","","","","","",""
"audio-keyboard-response","162","231108","0.0-4.0-1.0-0.47","2","1","8qlpbftzze140mw","","null","","sounds/induction/left/pu_SWS.wav","","null","","","","","","","","","","","","","","","","","","","","","","","","","","","","","","","","","","","","","","","","","",""
"html-button-response","163","232635","0.0-4.0-1.0-1.47","2","1","8qlpbftzze140mw","","1525.4000000059605","","What sound did you hear?","0","","","1","INDUCTION-JUDGMENT","left","0","","","","","","","","","","","","","","","","","","","","","","","","","","","","","","","","","","","","",""
"html-keyboard-response","164","233636","0.0-4.0-1.0-2.47","2","1","8qlpbftzze140mw","","null","","<p style=""color:green;""><b>Correct!</b></p>","","null","","","","","","","","","","","","","","","","","","","","","","","","","","","","","","","","","","","","","","","","","",""
"html-button-response","165","235382","0.0-5.0-0.0","2","1","8qlpbftzze140mw","","1243.5","","<p>Thank you for your answers.</p><p>You will now listen to similar sounds. The main difference is that the sounds will be longer and will make up complete sentences.</p><p>Please listen carefully to each sentence. After each sentence, you will be asked to type back what you heard to the best of your ability. After you provide your response, you will be given feedback about the correct answer.</p><p>There are 10 sentences in total.","0","","","","","","","","","","","","","","","","","","","","","","","","","","","","","","","","","","","","","","","","","","",""
"audio-keyboard-response","166","238137","0.0-5.0-1.0-0.0","2","1","8qlpbftzze140mw","","null","","sounds/sentences/right/14_08_cfSWS.wav","","null","","","","","","","","","","","","","","","","","","","","","","","","","","","","","","","","","","","","","","","","","",""
"sentence-resp","167","243036","0.0-5.0-1.0-1.0","2","1","8qlpbftzze140mw","","4896","","","","","","","SWS-SENT-RESPONSE","","","{""Q0"":""""}","Clothes and lodging are free to new men.","clothes,lodging,free,new,men","","0","0","0","0","0","0","0","","","","","","","","","","","","","","","","","","","","","","","","","",""
"html-keyboard-response","168","244292","0.0-5.0-1.0-2.0","2","1","8qlpbftzze140mw","","null","","","","null","","","","","","","","","","","","","","","","","","","","","","","","","","","","","","","","","","","","","","","","","",""
"audio-keyboard-response","169","246548","0.0-5.0-1.0-3.0","2","1","8qlpbftzze140mw","","null","","sounds/sentences/right/14_08_cfSWS.wav","","null","","","","","","","","","","","","","","","","","","","","","","","","","","","","","","","","","","","","","","","","","",""
"html-keyboard-response","170","247551","0.0-5.0-1.0-4.0","2","1","8qlpbftzze140mw","","null","","","","null","","","","","","","","","","","","","","","","","","","","","","","","","","","","","","","","","","","","","","","","","",""
"html-button-response","171","248877","0.0-5.0-1.0-5.0","2","1","8qlpbftzze140mw","","824.6999999880791","","<p>Press the button below when you are ready to continue.</p>","0","","","","","","","","","","","","","","","","","","","","","","","","","","","","","","","","","","","","","","","","","","",""
"audio-keyboard-response","172","251768","0.0-5.0-1.0-0.1","2","1","8qlpbftzze140mw","","null","","sounds/sentences/right/14_07_cfSWS.wav","","null","","","","","","","","","","","","","","","","","","","","","","","","","","","","","","","","","","","","","","","","","",""
"sentence-resp","173","266036","0.0-5.0-1.0-1.1","2","1","8qlpbftzze140mw","","14266","","","","","","","SWS-SENT-RESPONSE","","","{""Q0"":""cherish""}","Write a fond note to the friend you cherish.","write,fond,note,friend,cherish","CHERISH","0","0","0","0","1","1","0.2","","","","","","","","","","","","","","","","","","","","","","","","","",""
"html-keyboard-response","174","267290","0.0-5.0-1.0-2.1","2","1","8qlpbftzze140mw","","null","","","","null","","","","","","","","","","","","","","","","","","","","","","","","","","","","","","","","","","","","","","","","","",""
"audio-keyboard-response","175","269677","0.0-5.0-1.0-3.1","2","1","8qlpbftzze140mw","","null","","sounds/sentences/right/14_07_cfSWS.wav","","null","","","","","","","","","","","","","","","","","","","","","","","","","","","","","","","","","","","","","","","","","",""
"html-keyboard-response","176","270678","0.0-5.0-1.0-4.1","2","1","8qlpbftzze140mw","","null","","","","null","","","","","","","","","","","","","","","","","","","","","","","","","","","","","","","","","","","","","","","","","",""
"html-button-response","177","271997","0.0-5.0-1.0-5.1","2","1","8qlpbftzze140mw","","817.2000000178814","","<p>Press the button below when you are ready to continue.</p>","0","","","","","","","","","","","","","","","","","","","","","","","","","","","","","","","","","","","","","","","","","","",""
"audio-keyboard-response","178","274739","0.0-5.0-1.0-0.2","2","1","8qlpbftzze140mw","","null","","sounds/sentences/right/14_06_cfSWS.wav","","null","","","","","","","","","","","","","","","","","","","","","","","","","","","","","","","","","","","","","","","","","",""
"sentence-resp","179","294425","0.0-5.0-1.0-1.2","2","1","8qlpbftzze140mw","","19685","","","","","","","SWS-SENT-RESPONSE","","","{""Q0"":""write your problem to the""}","Bring your problems to the wise chief.","bring,your,problems,wise,chief","WRITE YOUR PROBLEM TO THE","0","1","0","0","0","1","0.2","","","","","","","","","","","","","","","","","","","","","","","","","",""
"html-keyboard-response","180","295685","0.0-5.0-1.0-2.2","2","1","8qlpbftzze140mw","","null","","","","null","","","","","","","","","","","","","","","","","","","","","","","","","","","","","","","","","","","","","","","","","",""
"audio-keyboard-response","181","297928","0.0-5.0-1.0-3.2","2","1","8qlpbftzze140mw","","null","","sounds/sentences/right/14_06_cfSWS.wav","","null","","","","","","","","","","","","","","","","","","","","","","","","","","","","","","","","","","","","","","","","","",""
"html-keyboard-response","182","298932","0.0-5.0-1.0-4.2","2","1","8qlpbftzze140mw","","null","","","","null","","","","","","","","","","","","","","","","","","","","","","","","","","","","","","","","","","","","","","","","","",""
"html-button-response","183","300343","0.0-5.0-1.0-5.2","2","1","8qlpbftzze140mw","","909.2999999821186","","<p>Press the button below when you are ready to continue.</p>","0","","","","","","","","","","","","","","","","","","","","","","","","","","","","","","","","","","","","","","","","","","",""
"audio-keyboard-response","184","303362","0.0-5.0-1.0-0.3","2","1","8qlpbftzze140mw","","null","","sounds/sentences/right/14_10_cfSWS.wav","","null","","","","","","","","","","","","","","","","","","","","","","","","","","","","","","","","","","","","","","","","","",""
"sentence-resp","185","310669","0.0-5.0-1.0-1.3","2","1","8qlpbftzze140mw","","7305","","","","","","","SWS-SENT-RESPONSE","","","{""Q0"":""leaves""}","Port is a strong wine with a smoky taste.","port,strong,wine,smoky,taste","LEAVES","0","0","0","0","0","0","0","","","","","","","","","","","","","","","","","","","","","","","","","",""
"html-keyboard-response","186","311927","0.0-5.0-1.0-2.3","2","1","8qlpbftzze140mw","","null","","","","null","","","","","","","","","","","","","","","","","","","","","","","","","","","","","","","","","","","","","","","","","",""
"audio-keyboard-response","187","314444","0.0-5.0-1.0-3.3","2","1","8qlpbftzze140mw","","null","","sounds/sentences/right/14_10_cfSWS.wav","","null","","","","","","","","","","","","","","","","","","","","","","","","","","","","","","","","","","","","","","","","","",""
"html-keyboard-response","188","315445","0.0-5.0-1.0-4.3","2","1","8qlpbftzze140mw","","null","","","","null","","","","","","","","","","","","","","","","","","","","","","","","","","","","","","","","","","","","","","","","","",""
"html-button-response","189","316842","0.0-5.0-1.0-5.3","2","1","8qlpbftzze140mw","","893.1000000238419","","<p>Press the button below when you are ready to continue.</p>","0","","","","","","","","","","","","","","","","","","","","","","","","","","","","","","","","","","","","","","","","","","",""
"audio-keyboard-response","190","319431","0.0-5.0-1.0-0.4","2","1","8qlpbftzze140mw","","null","","sounds/sentences/left/14_03_cfSWS.wav","","null","","","","","","","","","","","","","","","","","","","","","","","","","","","","","","","","","","","","","","","","","",""
"sentence-resp","191","326073","0.0-5.0-1.0-1.4","2","1","8qlpbftzze140mw","","6640","","","","","","","SWS-SENT-RESPONSE","","","{""Q0"":""leaves""}","Pluck the bright rose without leaves.","pluck,bright,rose,without,leaves","LEAVES","0","0","0","0","1","1","0.2","","","","","","","","","","","","","","","","","","","","","","","","","",""
"html-keyboard-response","192","327328","0.0-5.0-1.0-2.4","2","1","8qlpbftzze140mw","","null","","","","null","","","","","","","","","","","","","","","","","","","","","","","","","","","","","","","","","","","","","","","","","",""
"audio-keyboard-response","193","329410","0.0-5.0-1.0-3.4","2","1","8qlpbftzze140mw","","null","","sounds/sentences/left/14_03_cfSWS.wav","","null","","","","","","","","","","","","","","","","","","","","","","","","","","","","","","","","","","","","","","","","","",""
"html-keyboard-response","194","330410","0.0-5.0-1.0-4.4","2","1","8qlpbftzze140mw","","null","","","","null","","","","","","","","","","","","","","","","","","","","","","","","","","","","","","","","","","","","","","","","","",""
"html-button-response","195","331722","0.0-5.0-1.0-5.4","2","1","8qlpbftzze140mw","","811.1999999880791","","<p>Press the button below when you are ready to continue.</p>","0","","","","","","","","","","","","","","","","","","","","","","","","","","","","","","","","","","","","","","","","","","",""
"audio-keyboard-response","196","334449","0.0-5.0-1.0-0.5","2","1","8qlpbftzze140mw","","null","","sounds/sentences/right/14_09_cfSWS.wav","","null","","","","","","","","","","","","","","","","","","","","","","","","","","","","","","","","","","","","","","","","","",""
"sentence-resp","197","337343","0.0-5.0-1.0-1.5","2","1","8qlpbftzze140mw","","2892","","","","","","","SWS-SENT-RESPONSE","","","{""Q0"":""""}","We frown when events take a bad turn.","frown,events,take,bad,turn","","0","0","0","0","0","0","0","","","","","","","","","","","","","","","","","","","","","","","","","",""
"html-keyboard-response","198","338600","0.0-5.0-1.0-2.5","2","1","8qlpbftzze140mw","","null","","","","null","","","","","","","","","","","","","","","","","","","","","","","","","","","","","","","","","","","","","","","","","",""
"audio-keyboard-response","199","340828","0.0-5.0-1.0-3.5","2","1","8qlpbftzze140mw","","null","","sounds/sentences/right/14_09_cfSWS.wav","","null","","","","","","","","","","","","","","","","","","","","","","","","","","","","","","","","","","","","","","","","","",""
"html-keyboard-response","200","341831","0.0-5.0-1.0-4.5","2","1","8qlpbftzze140mw","","null","","","","null","","","","","","","","","","","","","","","","","","","","","","","","","","","","","","","","","","","","","","","","","",""
"html-button-response","201","343919","0.0-5.0-1.0-5.5","2","1","8qlpbftzze140mw","","1582.5999999940395","","<p>Press the button below when you are ready to continue.</p>","0","","","","","","","","","","","","","","","","","","","","","","","","","","","","","","","","","","","","","","","","","","",""
"audio-keyboard-response","202","346470","0.0-5.0-1.0-0.6","2","1","8qlpbftzze140mw","","null","","sounds/sentences/left/14_04_cfSWS.wav","","null","","","","","","","","","","","","","","","","","","","","","","","","","","","","","","","","","","","","","","","","","",""
"sentence-resp","203","359501","0.0-5.0-1.0-1.6","2","1","8qlpbftzze140mw","","13030","","","","","","","SWS-SENT-RESPONSE","","","{""Q0"":""seventy times""}","Two plus seven is less than ten.","two,plus,seven,less,ten","SEVENTY TIMES","0","0","0","0","0","0","0","","","","","","","","","","","","","","","","","","","","","","","","","",""
"html-keyboard-response","204","360757","0.0-5.0-1.0-2.6","2","1","8qlpbftzze140mw","","null","","","","null","","","","","","","","","","","","","","","","","","","","","","","","","","","","","","","","","","","","","","","","","",""
"audio-keyboard-response","205","362811","0.0-5.0-1.0-3.6","2","1","8qlpbftzze140mw","","null","","sounds/sentences/left/14_04_cfSWS.wav","","null","","","","","","","","","","","","","","","","","","","","","","","","","","","","","","","","","","","","","","","","","",""
"html-keyboard-response","206","363813","0.0-5.0-1.0-4.6","2","1","8qlpbftzze140mw","","null","","","","null","","","","","","","","","","","","","","","","","","","","","","","","","","","","","","","","","","","","","","","","","",""
"html-button-response","207","364937","0.0-5.0-1.0-5.6","2","1","8qlpbftzze140mw","","619.1000000238419","","<p>Press the button below when you are ready to continue.</p>","0","","","","","","","","","","","","","","","","","","","","","","","","","","","","","","","","","","","","","","","","","","",""
"audio-keyboard-response","208","367761","0.0-5.0-1.0-0.7","2","1","8qlpbftzze140mw","","null","","sounds/sentences/left/14_02_cfSWS.wav","","null","","","","","","","","","","","","","","","","","","","","","","","","","","","","","","","","","","","","","","","","","",""
"sentence-resp","209","375780","0.0-5.0-1.0-1.7","2","1","8qlpbftzze140mw","","8017","","","","","","","SWS-SENT-RESPONSE","","","{""Q0"":""seventy times""}","He said the same phrase thirty times.","said,same,phrase,thirty,times","SEVENTY TIMES","0","0","0","0","1","1","0.2","","","","","","","","","","","","","","","","","","","","","","","","","",""
"html-keyboard-response","210","377034","0.0-5.0-1.0-2.7","2","1","8qlpbftzze140mw","","null","","","","null","","","","","","","","","","","","","","","","","","","","","","","","","","","","","","","","","","","","","","","","","",""
"audio-keyboard-response","211","379349","0.0-5.0-1.0-3.7","2","1","8qlpbftzze140mw","","null","","sounds/sentences/left/14_02_cfSWS.wav","","null","","","","","","","","","","","","","","","","","","","","","","","","","","","","","","","","","","","","","","","","","",""
"html-keyboard-response","212","380352","0.0-5.0-1.0-4.7","2","1","8qlpbftzze140mw","","null","","","","null","","","","","","","","","","","","","","","","","","","","","","","","","","","","","","","","","","","","","","","","","",""
"html-button-response","213","381548","0.0-5.0-1.0-5.7","2","1","8qlpbftzze140mw","","693.6999999880791","","<p>Press the button below when you are ready to continue.</p>","0","","","","","","","","","","","","","","","","","","","","","","","","","","","","","","","","","","","","","","","","","","",""
"audio-keyboard-response","214","384545","0.0-5.0-1.0-0.8","2","1","8qlpbftzze140mw","","null","","sounds/sentences/left/14_05_cfSWS.wav","","null","","","","","","","","","","","","","","","","","","","","","","","","","","","","","","","","","","","","","","","","","",""
"sentence-resp","215","388695","0.0-5.0-1.0-1.8","2","1","8qlpbftzze140mw","","4147","","","","","","","SWS-SENT-RESPONSE","","","{""Q0"":""girl""}","The glow deepened in the eyes of the sweet girl.","glow,deepened,eyes,sweet,girl","GIRL","0","0","0","0","1","1","0.2","","","","","","","","","","","","","","","","","","","","","","","","","",""
"html-keyboard-response","216","389949","0.0-5.0-1.0-2.8","2","1","8qlpbftzze140mw","","null","","","","null","","","","","","","","","","","","","","","","","","","","","","","","","","","","","","","","","","","","","","","","","",""
"audio-keyboard-response","217","392439","0.0-5.0-1.0-3.8","2","1","8qlpbftzze140mw","","null","","sounds/sentences/left/14_05_cfSWS.wav","","null","","","","","","","","","","","","","","","","","","","","","","","","","","","","","","","","","","","","","","","","","",""
"html-keyboard-response","218","393441","0.0-5.0-1.0-4.8","2","1","8qlpbftzze140mw","","null","","","","null","","","","","","","","","","","","","","","","","","","","","","","","","","","","","","","","","","","","","","","","","",""
"html-button-response","219","394638","0.0-5.0-1.0-5.8","2","1","8qlpbftzze140mw","","694.4000000059605","","<p>Press the button below when you are ready to continue.</p>","0","","","","","","","","","","","","","","","","","","","","","","","","","","","","","","","","","","","","","","","","","","",""
"audio-keyboard-response","220","397762","0.0-5.0-1.0-0.9","2","1","8qlpbftzze140mw","","null","","sounds/sentences/left/14_01_cfSWS.wav","","null","","","","","","","","","","","","","","","","","","","","","","","","","","","","","","","","","","","","","","","","","",""
"sentence-resp","221","405740","0.0-5.0-1.0-1.9","2","1","8qlpbftzze140mw","","7975","","","","","","","SWS-SENT-RESPONSE","","","{""Q0"":""swim""}","A cramp is no small danger on a swim.","cramp,no,small,danger,swim","SWIM","0","0","0","0","1","1","0.2","","","","","","","","","","","","","","","","","","","","","","","","","",""
"html-keyboard-response","222","406994","0.0-5.0-1.0-2.9","2","1","8qlpbftzze140mw","","null","","","","null","","","","","","","","","","","","","","","","","","","","","","","","","","","","","","","","","","","","","","","","","",""
"audio-keyboard-response","223","409613","0.0-5.0-1.0-3.9","2","1","8qlpbftzze140mw","","null","","sounds/sentences/left/14_01_cfSWS.wav","","null","","","","","","","","","","","","","","","","","","","","","","","","","","","","","","","","","","","","","","","","","",""
"html-keyboard-response","224","410614","0.0-5.0-1.0-4.9","2","1","8qlpbftzze140mw","","null","","","","null","","","","","","","","","","","","","","","","","","","","","","","","","","","","","","","","","","","","","","","","","",""
"html-button-response","225","412242","0.0-5.0-1.0-5.9","2","1","8qlpbftzze140mw","","1126.5","","<p>Press the button below when you are ready to continue.</p>","0","","","","","","","","","","","","","","","","","","","","","","","","","","","","","","","","","","","","","","","","","","",""
"html-keyboard-response","226","416350","0.0-6.0-0.0","2","1","8qlpbftzze140mw","","3606.0999999940395","","<p>In this part of the study, you will hear sounds similar to those you just heard.</p><p>Please focus on these sounds, as you may be asked questions about them later.</p><p>Occasionally, the sounds will pause for up to two seconds. When this happens, please press SPACEBAR as quickly as you can.</br>This helps ensure that you are paying attention to the sounds.</p><p>This part of the study will take about 12 minutes to complete, and you will be given the opportunity to take a couple of short breaks every few minutes.</p><p><strong>Press SPACEBAR to begin</strong></p>","","32","","","","","","","","","","","","","","","","","","","","","","","","","","","","","","","","","","","","","","","","","",""
"html-keyboard-response","227","417355","0.0-6.0-1.0-0.0","2","1","8qlpbftzze140mw","","null","","<p style=""font-size: 40px;"">+</p>","","null","","","","","","","","","","","","","","","","","","","","","","","","","","","","","","","","","","","","","","","","","",""
"html-keyboard-response","228","602365","0.0-6.0-1.0-1.0","2","1","8qlpbftzze140mw","","null","","","","null","","","SL-TRAIN","","","","","","","","","","","","","","2","null","null","sounds/B/TRAIN/SEQ__07.mp3","0","","","","","","","","","","","","","","","","","","","","",""
"html-button-response","229","616602","0.0-6.0-1.0-2.0","2","1","8qlpbftzze140mw","","14235.90000000596","","<p>You may take a short break if you wish.</p>","0","","","","","","","","","","","","","","","","","","","","","","","","","","","","","","","","","","","","","","","","","","",""
"html-keyboard-response","230","617608","0.0-6.0-1.0-3.0","2","1","8qlpbftzze140mw","","null","","<p style=""font-size: 40px;"">+</p>","","null","","","","","","","","","","","","","","","","","","","","","","","","","","","","","","","","","","","","","","","","","",""
"html-keyboard-response","231","802621","0.0-6.0-1.0-4.0","2","1","8qlpbftzze140mw","","null","","","","null","","","SL-TRAIN","","","","","","","","","","","","","","2","null","null","sounds/B/TRAIN/SEQ__11.mp3","1","","","","","","","","","","","","","","","","","","","","",""
"html-button-response","232","864247","0.0-6.0-1.0-5.0","2","1","8qlpbftzze140mw","","61622.89999997616","","<p>You may take a short break if you wish.</p>","0","","","","","","","","","","","","","","","","","","","","","","","","","","","","","","","","","","","","","","","","","","",""
"html-keyboard-response","233","865251","0.0-6.0-1.0-6.0","2","1","8qlpbftzze140mw","","null","","<p style=""font-size: 40px;"">+</p>","","null","","","","","","","","","","","","","","","","","","","","","","","","","","","","","","","","","","","","","","","","","",""
"html-keyboard-response","234","1050264","0.0-6.0-1.0-7.0","2","1","8qlpbftzze140mw","","null","","","","null","","","SL-TRAIN","","","","","","","","","","","","","","2","null","null","sounds/B/TRAIN/SEQ__05.mp3","0","","","","","","","","","","","","","","","","","","","","",""
"html-button-response","235","1083813","0.0-6.0-1.0-8.0","2","1","8qlpbftzze140mw","","33545.09999999404","","<p>You may take a short break if you wish.</p>","0","","","","","","","","","","","","","","","","","","","","","","","","","","","","","","","","","","","","","","","","","","",""
"html-keyboard-response","236","1084815","0.0-6.0-1.0-9.0","2","1","8qlpbftzze140mw","","null","","<p style=""font-size: 40px;"">+</p>","","null","","","","","","","","","","","","","","","","","","","","","","","","","","","","","","","","","","","","","","","","","",""
"html-keyboard-response","237","1269825","0.0-6.0-1.0-10.0","2","1","8qlpbftzze140mw","","null","","","","null","","","SL-TRAIN","","","","","","","","","","","","","","2","null","null","sounds/B/TRAIN/SEQ__01.mp3","0","","","","","","","","","","","","","","","","","","","","",""
"html-button-response","238","1481822","0.0-6.0-1.0-11.0","2","1","8qlpbftzze140mw","","211995.59999999404","","<p>You may take a short break if you wish.</p>","0","","","","","","","","","","","","","","","","","","","","","","","","","","","","","","","","","","","","","","","","","","",""
"html-button-response","239","1484157","0.0-7.0-0.0","2","1","8qlpbftzze140mw","","2333.7999999821186","","<p>Welcome to the second part of the study. This is a <u>familiarity task</u>.</p><p>You will now hear short sounds and will be asked to rate how familiar they sound to you <b>based on what you heard in the previous part of the study</b>.</p><p>You will rate 12 sounds in total.</p>","0","","","","","","","","","","","","","","","","","","","","","","","","","","","","","","","","","","","","","","","","","","",""
"html-keyboard-response","240","1485159","0.0-7.0-1.0-0.0","2","1","8qlpbftzze140mw","","null","","","","null","","","","","","","","","","","","","","","","","","","","","","","","","","","","","","","","","","","","","","","","","",""
"audio-keyboard-response","241","1486147","0.0-7.0-1.0-1.0","2","1","8qlpbftzze140mw","","null","","sounds/B/FAM/W002.mp3","","null","","","","","","","","","","","","","","","","","","","","","","","","","","","","","","","","","","","","","","","","","",""
"html-keyboard-response","242","1493235","0.0-7.0-1.0-2.0","2","1","8qlpbftzze140mw","","6581.100000023842","","<p>How familiar did this sound to you?</p><p>1&nbsp;&nbsp;&nbsp;&nbsp;&nbsp;&nbsp;&nbsp;&nbsp;&nbsp;&nbsp;&nbsp;&nbsp;&nbsp;&nbsp;&nbsp;&nbsp;&nbsp;&nbsp;&nbsp;2&nbsp;&nbsp;&nbsp;&nbsp;&nbsp;&nbsp;&nbsp;&nbsp;&nbsp;&nbsp;&nbsp;&nbsp;&nbsp;&nbsp;&nbsp;&nbsp;&nbsp;&nbsp;&nbsp;3&nbsp;&nbsp;&nbsp;&nbsp;&nbsp;&nbsp;&nbsp;&nbsp;&nbsp;&nbsp;&nbsp;&nbsp;&nbsp;&nbsp;&nbsp;&nbsp;&nbsp;&nbsp;&nbsp;4</p><p style=""font-size:14px"">Not at all familiar&nbsp;&nbsp;&nbsp;&nbsp;A little familiar&nbsp;&nbsp;&nbsp;Moderately familiar&nbsp;&nbsp;&nbsp;Extremely familiar</p><p>(press the corresponding number on your keyboard)</p>","","52","","","FAM-RESPONSE","","","","","","","","","","","","","","","","","","","sounds/B/FAM/W002.mp3","word","","","","","","","","","","","","","","","","","","",""
"html-keyboard-response","243","1495240","0.0-7.0-1.0-0.1","2","1","8qlpbftzze140mw","","null","","","","null","","","","","","","","","","","","","","","","","","","","","","","","","","","","","","","","","","","","","","","","","",""
"audio-keyboard-response","244","1496184","0.0-7.0-1.0-1.1","2","1","8qlpbftzze140mw","","null","","sounds/B/FAM/P002.mp3","","null","","","","","","","","","","","","","","","","","","","","","","","","","","","","","","","","","","","","","","","","","",""
"html-keyboard-response","245","1497574","0.0-7.0-1.0-2.1","2","1","8qlpbftzze140mw","","885.5","","<p>How familiar did this sound to you?</p><p>1&nbsp;&nbsp;&nbsp;&nbsp;&nbsp;&nbsp;&nbsp;&nbsp;&nbsp;&nbsp;&nbsp;&nbsp;&nbsp;&nbsp;&nbsp;&nbsp;&nbsp;&nbsp;&nbsp;2&nbsp;&nbsp;&nbsp;&nbsp;&nbsp;&nbsp;&nbsp;&nbsp;&nbsp;&nbsp;&nbsp;&nbsp;&nbsp;&nbsp;&nbsp;&nbsp;&nbsp;&nbsp;&nbsp;3&nbsp;&nbsp;&nbsp;&nbsp;&nbsp;&nbsp;&nbsp;&nbsp;&nbsp;&nbsp;&nbsp;&nbsp;&nbsp;&nbsp;&nbsp;&nbsp;&nbsp;&nbsp;&nbsp;4</p><p style=""font-size:14px"">Not at all familiar&nbsp;&nbsp;&nbsp;&nbsp;A little familiar&nbsp;&nbsp;&nbsp;Moderately familiar&nbsp;&nbsp;&nbsp;Extremely familiar</p><p>(press the corresponding number on your keyboard)</p>","","51","","","FAM-RESPONSE","","","","","","","","","","","","","","","","","","","sounds/B/FAM/P002.mp3","partword","","","","","","","","","","","","","","","","","","",""
"html-keyboard-response","246","1499581","0.0-7.0-1.0-0.2","2","1","8qlpbftzze140mw","","null","","","","null","","","","","","","","","","","","","","","","","","","","","","","","","","","","","","","","","","","","","","","","","",""
"audio-keyboard-response","247","1500525","0.0-7.0-1.0-1.2","2","1","8qlpbftzze140mw","","null","","sounds/B/FAM/W004.mp3","","null","","","","","","","","","","","","","","","","","","","","","","","","","","","","","","","","","","","","","","","","","",""
"html-keyboard-response","248","1501090","0.0-7.0-1.0-2.2","2","1","8qlpbftzze140mw","","59.900000005960464","","<p>How familiar did this sound to you?</p><p>1&nbsp;&nbsp;&nbsp;&nbsp;&nbsp;&nbsp;&nbsp;&nbsp;&nbsp;&nbsp;&nbsp;&nbsp;&nbsp;&nbsp;&nbsp;&nbsp;&nbsp;&nbsp;&nbsp;2&nbsp;&nbsp;&nbsp;&nbsp;&nbsp;&nbsp;&nbsp;&nbsp;&nbsp;&nbsp;&nbsp;&nbsp;&nbsp;&nbsp;&nbsp;&nbsp;&nbsp;&nbsp;&nbsp;3&nbsp;&nbsp;&nbsp;&nbsp;&nbsp;&nbsp;&nbsp;&nbsp;&nbsp;&nbsp;&nbsp;&nbsp;&nbsp;&nbsp;&nbsp;&nbsp;&nbsp;&nbsp;&nbsp;4</p><p style=""font-size:14px"">Not at all familiar&nbsp;&nbsp;&nbsp;&nbsp;A little familiar&nbsp;&nbsp;&nbsp;Moderately familiar&nbsp;&nbsp;&nbsp;Extremely familiar</p><p>(press the corresponding number on your keyboard)</p>","","51","","","FAM-RESPONSE","","","","","","","","","","","","","","","","","","","sounds/B/FAM/W004.mp3","word","","","","","","","","","","","","","","","","","","",""
"html-keyboard-response","249","1503095","0.0-7.0-1.0-0.3","2","1","8qlpbftzze140mw","","null","","","","null","","","","","","","","","","","","","","","","","","","","","","","","","","","","","","","","","","","","","","","","","",""
"audio-keyboard-response","250","1504035","0.0-7.0-1.0-1.3","2","1","8qlpbftzze140mw","","null","","sounds/B/FAM/N003.mp3","","null","","","","","","","","","","","","","","","","","","","","","","","","","","","","","","","","","","","","","","","","","",""
"html-keyboard-response","251","1505564","0.0-7.0-1.0-2.3","2","1","8qlpbftzze140mw","","1024.3999999761581","","<p>How familiar did this sound to you?</p><p>1&nbsp;&nbsp;&nbsp;&nbsp;&nbsp;&nbsp;&nbsp;&nbsp;&nbsp;&nbsp;&nbsp;&nbsp;&nbsp;&nbsp;&nbsp;&nbsp;&nbsp;&nbsp;&nbsp;2&nbsp;&nbsp;&nbsp;&nbsp;&nbsp;&nbsp;&nbsp;&nbsp;&nbsp;&nbsp;&nbsp;&nbsp;&nbsp;&nbsp;&nbsp;&nbsp;&nbsp;&nbsp;&nbsp;3&nbsp;&nbsp;&nbsp;&nbsp;&nbsp;&nbsp;&nbsp;&nbsp;&nbsp;&nbsp;&nbsp;&nbsp;&nbsp;&nbsp;&nbsp;&nbsp;&nbsp;&nbsp;&nbsp;4</p><p style=""font-size:14px"">Not at all familiar&nbsp;&nbsp;&nbsp;&nbsp;A little familiar&nbsp;&nbsp;&nbsp;Moderately familiar&nbsp;&nbsp;&nbsp;Extremely familiar</p><p>(press the corresponding number on your keyboard)</p>","","49","","","FAM-RESPONSE","","","","","","","","","","","","","","","","","","","sounds/B/FAM/N003.mp3","nonword","","","","","","","","","","","","","","","","","","",""
"html-keyboard-response","252","1507572","0.0-7.0-1.0-0.4","2","1","8qlpbftzze140mw","","null","","","","null","","","","","","","","","","","","","","","","","","","","","","","","","","","","","","","","","","","","","","","","","",""
"audio-keyboard-response","253","1508514","0.0-7.0-1.0-1.4","2","1","8qlpbftzze140mw","","null","","sounds/B/FAM/N001.mp3","","null","","","","","","","","","","","","","","","","","","","","","","","","","","","","","","","","","","","","","","","","","",""
"html-keyboard-response","254","1509225","0.0-7.0-1.0-2.4","2","1","8qlpbftzze140mw","","206.09999999403954","","<p>How familiar did this sound to you?</p><p>1&nbsp;&nbsp;&nbsp;&nbsp;&nbsp;&nbsp;&nbsp;&nbsp;&nbsp;&nbsp;&nbsp;&nbsp;&nbsp;&nbsp;&nbsp;&nbsp;&nbsp;&nbsp;&nbsp;2&nbsp;&nbsp;&nbsp;&nbsp;&nbsp;&nbsp;&nbsp;&nbsp;&nbsp;&nbsp;&nbsp;&nbsp;&nbsp;&nbsp;&nbsp;&nbsp;&nbsp;&nbsp;&nbsp;3&nbsp;&nbsp;&nbsp;&nbsp;&nbsp;&nbsp;&nbsp;&nbsp;&nbsp;&nbsp;&nbsp;&nbsp;&nbsp;&nbsp;&nbsp;&nbsp;&nbsp;&nbsp;&nbsp;4</p><p style=""font-size:14px"">Not at all familiar&nbsp;&nbsp;&nbsp;&nbsp;A little familiar&nbsp;&nbsp;&nbsp;Moderately familiar&nbsp;&nbsp;&nbsp;Extremely familiar</p><p>(press the corresponding number on your keyboard)</p>","","52","","","FAM-RESPONSE","","","","","","","","","","","","","","","","","","","sounds/B/FAM/N001.mp3","nonword","","","","","","","","","","","","","","","","","","",""
"html-keyboard-response","255","1511232","0.0-7.0-1.0-0.5","2","1","8qlpbftzze140mw","","null","","","","null","","","","","","","","","","","","","","","","","","","","","","","","","","","","","","","","","","","","","","","","","",""
"audio-keyboard-response","256","1512174","0.0-7.0-1.0-1.5","2","1","8qlpbftzze140mw","","null","","sounds/B/FAM/N002.mp3","","null","","","","","","","","","","","","","","","","","","","","","","","","","","","","","","","","","","","","","","","","","",""
"html-keyboard-response","257","1512830","0.0-7.0-1.0-2.5","2","1","8qlpbftzze140mw","","150.90000000596046","","<p>How familiar did this sound to you?</p><p>1&nbsp;&nbsp;&nbsp;&nbsp;&nbsp;&nbsp;&nbsp;&nbsp;&nbsp;&nbsp;&nbsp;&nbsp;&nbsp;&nbsp;&nbsp;&nbsp;&nbsp;&nbsp;&nbsp;2&nbsp;&nbsp;&nbsp;&nbsp;&nbsp;&nbsp;&nbsp;&nbsp;&nbsp;&nbsp;&nbsp;&nbsp;&nbsp;&nbsp;&nbsp;&nbsp;&nbsp;&nbsp;&nbsp;3&nbsp;&nbsp;&nbsp;&nbsp;&nbsp;&nbsp;&nbsp;&nbsp;&nbsp;&nbsp;&nbsp;&nbsp;&nbsp;&nbsp;&nbsp;&nbsp;&nbsp;&nbsp;&nbsp;4</p><p style=""font-size:14px"">Not at all familiar&nbsp;&nbsp;&nbsp;&nbsp;A little familiar&nbsp;&nbsp;&nbsp;Moderately familiar&nbsp;&nbsp;&nbsp;Extremely familiar</p><p>(press the corresponding number on your keyboard)</p>","","52","","","FAM-RESPONSE","","","","","","","","","","","","","","","","","","","sounds/B/FAM/N002.mp3","nonword","","","","","","","","","","","","","","","","","","",""
"html-keyboard-response","258","1514832","0.0-7.0-1.0-0.6","2","1","8qlpbftzze140mw","","null","","","","null","","","","","","","","","","","","","","","","","","","","","","","","","","","","","","","","","","","","","","","","","",""
"audio-keyboard-response","259","1515773","0.0-7.0-1.0-1.6","2","1","8qlpbftzze140mw","","null","","sounds/B/FAM/W003.mp3","","null","","","","","","","","","","","","","","","","","","","","","","","","","","","","","","","","","","","","","","","","","",""
"html-keyboard-response","260","1517687","0.0-7.0-1.0-2.6","2","1","8qlpbftzze140mw","","1412.699999988079","","<p>How familiar did this sound to you?</p><p>1&nbsp;&nbsp;&nbsp;&nbsp;&nbsp;&nbsp;&nbsp;&nbsp;&nbsp;&nbsp;&nbsp;&nbsp;&nbsp;&nbsp;&nbsp;&nbsp;&nbsp;&nbsp;&nbsp;2&nbsp;&nbsp;&nbsp;&nbsp;&nbsp;&nbsp;&nbsp;&nbsp;&nbsp;&nbsp;&nbsp;&nbsp;&nbsp;&nbsp;&nbsp;&nbsp;&nbsp;&nbsp;&nbsp;3&nbsp;&nbsp;&nbsp;&nbsp;&nbsp;&nbsp;&nbsp;&nbsp;&nbsp;&nbsp;&nbsp;&nbsp;&nbsp;&nbsp;&nbsp;&nbsp;&nbsp;&nbsp;&nbsp;4</p><p style=""font-size:14px"">Not at all familiar&nbsp;&nbsp;&nbsp;&nbsp;A little familiar&nbsp;&nbsp;&nbsp;Moderately familiar&nbsp;&nbsp;&nbsp;Extremely familiar</p><p>(press the corresponding number on your keyboard)</p>","","50","","","FAM-RESPONSE","","","","","","","","","","","","","","","","","","","sounds/B/FAM/W003.mp3","word","","","","","","","","","","","","","","","","","","",""
"html-keyboard-response","261","1519443","0.0-7.0-1.0-0.7","2","1","8qlpbftzze140mw","","752.4000000059605","","","","52","","","","","","","","","","","","","","","","","","","","","","","","","","","","","","","","","","","","","","","","","",""
"audio-keyboard-response","262","1520386","0.0-7.0-1.0-1.7","2","1","8qlpbftzze140mw","","null","","sounds/B/FAM/P003.mp3","","null","","","","","","","","","","","","","","","","","","","","","","","","","","","","","","","","","","","","","","","","","",""
"html-keyboard-response","263","1530732","0.0-7.0-1.0-2.7","2","1","8qlpbftzze140mw","","9843.899999976158","","<p>How familiar did this sound to you?</p><p>1&nbsp;&nbsp;&nbsp;&nbsp;&nbsp;&nbsp;&nbsp;&nbsp;&nbsp;&nbsp;&nbsp;&nbsp;&nbsp;&nbsp;&nbsp;&nbsp;&nbsp;&nbsp;&nbsp;2&nbsp;&nbsp;&nbsp;&nbsp;&nbsp;&nbsp;&nbsp;&nbsp;&nbsp;&nbsp;&nbsp;&nbsp;&nbsp;&nbsp;&nbsp;&nbsp;&nbsp;&nbsp;&nbsp;3&nbsp;&nbsp;&nbsp;&nbsp;&nbsp;&nbsp;&nbsp;&nbsp;&nbsp;&nbsp;&nbsp;&nbsp;&nbsp;&nbsp;&nbsp;&nbsp;&nbsp;&nbsp;&nbsp;4</p><p style=""font-size:14px"">Not at all familiar&nbsp;&nbsp;&nbsp;&nbsp;A little familiar&nbsp;&nbsp;&nbsp;Moderately familiar&nbsp;&nbsp;&nbsp;Extremely familiar</p><p>(press the corresponding number on your keyboard)</p>","","52","","","FAM-RESPONSE","","","","","","","","","","","","","","","","","","","sounds/B/FAM/P003.mp3","partword","","","","","","","","","","","","","","","","","","",""
"html-keyboard-response","264","1532738","0.0-7.0-1.0-0.8","2","1","8qlpbftzze140mw","","null","","","","null","","","","","","","","","","","","","","","","","","","","","","","","","","","","","","","","","","","","","","","","","",""
"audio-keyboard-response","265","1533682","0.0-7.0-1.0-1.8","2","1","8qlpbftzze140mw","","null","","sounds/B/FAM/P001.mp3","","null","","","","","","","","","","","","","","","","","","","","","","","","","","","","","","","","","","","","","","","","","",""
"html-keyboard-response","266","1537123","0.0-7.0-1.0-2.8","2","1","8qlpbftzze140mw","","2937.7000000178814","","<p>How familiar did this sound to you?</p><p>1&nbsp;&nbsp;&nbsp;&nbsp;&nbsp;&nbsp;&nbsp;&nbsp;&nbsp;&nbsp;&nbsp;&nbsp;&nbsp;&nbsp;&nbsp;&nbsp;&nbsp;&nbsp;&nbsp;2&nbsp;&nbsp;&nbsp;&nbsp;&nbsp;&nbsp;&nbsp;&nbsp;&nbsp;&nbsp;&nbsp;&nbsp;&nbsp;&nbsp;&nbsp;&nbsp;&nbsp;&nbsp;&nbsp;3&nbsp;&nbsp;&nbsp;&nbsp;&nbsp;&nbsp;&nbsp;&nbsp;&nbsp;&nbsp;&nbsp;&nbsp;&nbsp;&nbsp;&nbsp;&nbsp;&nbsp;&nbsp;&nbsp;4</p><p style=""font-size:14px"">Not at all familiar&nbsp;&nbsp;&nbsp;&nbsp;A little familiar&nbsp;&nbsp;&nbsp;Moderately familiar&nbsp;&nbsp;&nbsp;Extremely familiar</p><p>(press the corresponding number on your keyboard)</p>","","50","","","FAM-RESPONSE","","","","","","","","","","","","","","","","","","","sounds/B/FAM/P001.mp3","partword","","","","","","","","","","","","","","","","","","",""
"html-keyboard-response","267","1539130","0.0-7.0-1.0-0.9","2","1","8qlpbftzze140mw","","null","","","","null","","","","","","","","","","","","","","","","","","","","","","","","","","","","","","","","","","","","","","","","","",""
"audio-keyboard-response","268","1540071","0.0-7.0-1.0-1.9","2","1","8qlpbftzze140mw","","null","","sounds/B/FAM/N004.mp3","","null","","","","","","","","","","","","","","","","","","","","","","","","","","","","","","","","","","","","","","","","","",""
"html-keyboard-response","269","1541021","0.0-7.0-1.0-2.9","2","1","8qlpbftzze140mw","","447.5","","<p>How familiar did this sound to you?</p><p>1&nbsp;&nbsp;&nbsp;&nbsp;&nbsp;&nbsp;&nbsp;&nbsp;&nbsp;&nbsp;&nbsp;&nbsp;&nbsp;&nbsp;&nbsp;&nbsp;&nbsp;&nbsp;&nbsp;2&nbsp;&nbsp;&nbsp;&nbsp;&nbsp;&nbsp;&nbsp;&nbsp;&nbsp;&nbsp;&nbsp;&nbsp;&nbsp;&nbsp;&nbsp;&nbsp;&nbsp;&nbsp;&nbsp;3&nbsp;&nbsp;&nbsp;&nbsp;&nbsp;&nbsp;&nbsp;&nbsp;&nbsp;&nbsp;&nbsp;&nbsp;&nbsp;&nbsp;&nbsp;&nbsp;&nbsp;&nbsp;&nbsp;4</p><p style=""font-size:14px"">Not at all familiar&nbsp;&nbsp;&nbsp;&nbsp;A little familiar&nbsp;&nbsp;&nbsp;Moderately familiar&nbsp;&nbsp;&nbsp;Extremely familiar</p><p>(press the corresponding number on your keyboard)</p>","","49","","","FAM-RESPONSE","","","","","","","","","","","","","","","","","","","sounds/B/FAM/N004.mp3","nonword","","","","","","","","","","","","","","","","","","",""
"html-keyboard-response","270","1543026","0.0-7.0-1.0-0.10","2","1","8qlpbftzze140mw","","null","","","","null","","","","","","","","","","","","","","","","","","","","","","","","","","","","","","","","","","","","","","","","","",""
"audio-keyboard-response","271","1543970","0.0-7.0-1.0-1.10","2","1","8qlpbftzze140mw","","null","","sounds/B/FAM/P004.mp3","","null","","","","","","","","","","","","","","","","","","","","","","","","","","","","","","","","","","","","","","","","","",""
"html-keyboard-response","272","1544740","0.0-7.0-1.0-2.10","2","1","8qlpbftzze140mw","","268.89999997615814","","<p>How familiar did this sound to you?</p><p>1&nbsp;&nbsp;&nbsp;&nbsp;&nbsp;&nbsp;&nbsp;&nbsp;&nbsp;&nbsp;&nbsp;&nbsp;&nbsp;&nbsp;&nbsp;&nbsp;&nbsp;&nbsp;&nbsp;2&nbsp;&nbsp;&nbsp;&nbsp;&nbsp;&nbsp;&nbsp;&nbsp;&nbsp;&nbsp;&nbsp;&nbsp;&nbsp;&nbsp;&nbsp;&nbsp;&nbsp;&nbsp;&nbsp;3&nbsp;&nbsp;&nbsp;&nbsp;&nbsp;&nbsp;&nbsp;&nbsp;&nbsp;&nbsp;&nbsp;&nbsp;&nbsp;&nbsp;&nbsp;&nbsp;&nbsp;&nbsp;&nbsp;4</p><p style=""font-size:14px"">Not at all familiar&nbsp;&nbsp;&nbsp;&nbsp;A little familiar&nbsp;&nbsp;&nbsp;Moderately familiar&nbsp;&nbsp;&nbsp;Extremely familiar</p><p>(press the corresponding number on your keyboard)</p>","","52","","","FAM-RESPONSE","","","","","","","","","","","","","","","","","","","sounds/B/FAM/P004.mp3","partword","","","","","","","","","","","","","","","","","","",""
"html-keyboard-response","273","1546748","0.0-7.0-1.0-0.11","2","1","8qlpbftzze140mw","","null","","","","null","","","","","","","","","","","","","","","","","","","","","","","","","","","","","","","","","","","","","","","","","",""
"audio-keyboard-response","274","1547692","0.0-7.0-1.0-1.11","2","1","8qlpbftzze140mw","","null","","sounds/B/FAM/W001.mp3","","null","","","","","","","","","","","","","","","","","","","","","","","","","","","","","","","","","","","","","","","","","",""
"html-keyboard-response","275","1549733","0.0-7.0-1.0-2.11","2","1","8qlpbftzze140mw","","1536.5999999940395","","<p>How familiar did this sound to you?</p><p>1&nbsp;&nbsp;&nbsp;&nbsp;&nbsp;&nbsp;&nbsp;&nbsp;&nbsp;&nbsp;&nbsp;&nbsp;&nbsp;&nbsp;&nbsp;&nbsp;&nbsp;&nbsp;&nbsp;2&nbsp;&nbsp;&nbsp;&nbsp;&nbsp;&nbsp;&nbsp;&nbsp;&nbsp;&nbsp;&nbsp;&nbsp;&nbsp;&nbsp;&nbsp;&nbsp;&nbsp;&nbsp;&nbsp;3&nbsp;&nbsp;&nbsp;&nbsp;&nbsp;&nbsp;&nbsp;&nbsp;&nbsp;&nbsp;&nbsp;&nbsp;&nbsp;&nbsp;&nbsp;&nbsp;&nbsp;&nbsp;&nbsp;4</p><p style=""font-size:14px"">Not at all familiar&nbsp;&nbsp;&nbsp;&nbsp;A little familiar&nbsp;&nbsp;&nbsp;Moderately familiar&nbsp;&nbsp;&nbsp;Extremely familiar</p><p>(press the corresponding number on your keyboard)</p>","","50","","","FAM-RESPONSE","","","","","","","","","","","","","","","","","","","sounds/B/FAM/W001.mp3","word","","","","","","","","","","","","","","","","","","",""
"html-button-response","276","1555831","0.0-8.0-0.0","2","1","8qlpbftzze140mw","","5092.800000011921","","<p>You will now listen to longer sound sequences.</p><p>Each sound sequence will last about 16 seconds.</p><p>On each trial, you will be given a <u>TARGET SOUND</u>. Your task is to listen very carefully for this sound.</p><p>Every time you hear the <u>TARGET SOUND</u>, you will press the <b>SPACEBAR</b> as quickly and accurately as you can.</p>","0","","","","","","","","","","","","","","","","","","","","","","","","","","","","","","","","","","","","","","","","","","",""
"html-button-response","277","1600627","0.0-8.0-1.0","2","1","8qlpbftzze140mw","","44543.90000000596","","<p>It is very important that you make your responses as quickly and accurately as possible.</p><p>To help you make your responses, you will be able to listen to the <u>TARGET SOUND</u> at the beginning of each trial.</p><p>There will be 36 total trials.</p><p><b>Note: This is meant to be a difficult task. We simply want you to try your best.</p>","0","","","","","","","","","","","","","","","","","","","","","","","","","","","","","","","","","","","","","","","","","","",""
"html-button-response","278","1602109","0.0-8.0-2.0-0.0","2","1","8qlpbftzze140mw","","1225.300000011921","","<p>Trial 1 of 36</p>","0","","","","","","","","","","","","","","","","","","","","","","","","","FE","sounds/syllables/fe_SWS.wav","1500,3300,6000,8700","3","","","","","","","","","","","","","","",""
"html-keyboard-response","279","1604127","0.0-8.0-2.0-1.0","2","1","8qlpbftzze140mw","","2017.2999999821186","","","","80","","","","","","","","","","","","","","","","","","","","","","","","FE","","1500,3300,6000,8700","3","","","","","","","","","","","","","","",""
"audio-keyboard-response","280","1604475","0.0-8.0-2.0-2.0-0.0","2","1","8qlpbftzze140mw","","null","","sounds/syllables/fe_SWS.wav","","null","","","","","","","","","","","","","","","","","","","","","","","","","","","","","","","","","","","","","","","","","",""
"html-keyboard-response","281","1605087","0.0-8.0-2.0-2.0-1.0","2","1","8qlpbftzze140mw","","610.7000000178814","","<p>To replay the <u>TARGET SOUND</u>, press P.</p> When you are ready to begin, press SPACEBAR.","","32","","","","","","","","","","","","","","","","","","","","","","","","","","","","","","","","","","","","","","","","","",""
"audio-keyboard-response","282","1620038","0.0-8.0-2.0-3.0","2","1","8qlpbftzze140mw","","null","","sounds/B/TD/FE_02_TD.mp3","","null","","","TD_SUMMARY","","","","","","","","","","","","","","","","","","","","","FE","","1500,3300,6000,8700","3","1500","3300","6000","8700","null","null","null","null","","1","","","","",""
"html-button-response","283","1622937","0.0-8.0-2.0-0.1","2","1","8qlpbftzze140mw","","2897.2000000178814","","<p>Trial 2 of 36</p>","0","","","","","","","","","","","","","","","","","","","","","","","","","NI","sounds/syllables/ni_SWS.wav","3000,4800,11100,12900","2","","","","","","","","","","","","","","",""
"html-keyboard-response","284","1623610","0.0-8.0-2.0-1.1","2","1","8qlpbftzze140mw","","672","","","","80","","","","","","","","","","","","","","","","","","","","","","","","NI","","3000,4800,11100,12900","2","","","","","","","","","","","","","","",""
"audio-keyboard-response","285","1623910","0.0-8.0-2.0-2.1-0.1","2","1","8qlpbftzze140mw","","null","","sounds/syllables/ni_SWS.wav","","null","","","","","","","","","","","","","","","","","","","","","","","","","","","","","","","","","","","","","","","","","",""
"html-keyboard-response","286","1624771","0.0-8.0-2.0-2.1-1.1","2","1","8qlpbftzze140mw","","860.9000000059605","","<p>To replay the <u>TARGET SOUND</u>, press P.</p> When you are ready to begin, press SPACEBAR.","","32","","","","","","","","","","","","","","","","","","","","","","","","","","","","","","","","","","","","","","","","","",""
"audio-keyboard-response","287","1639717","0.0-8.0-2.0-3.1","2","1","8qlpbftzze140mw","","null","","sounds/B/TD/NI_07_TD.mp3","","null","","","TD_SUMMARY","","","","","","","","","","","","","","","","","","","","","NI","","3000,4800,11100,12900","2","3000","4800","11100","12900","null","null","null","null","","1","","","","",""
"html-button-response","288","1643408","0.0-8.0-2.0-0.2","2","1","8qlpbftzze140mw","","3688.7000000178814","","<p>Trial 3 of 36</p>","0","","","","","","","","","","","","","","","","","","","","","","","","","NI","sounds/syllables/ni_SWS.wav","2100,3900,6600,12900","2","","","","","","","","","","","","","","",""
"html-keyboard-response","289","1649443","0.0-8.0-2.0-1.2","2","1","8qlpbftzze140mw","","6034.200000017881","","","","80","","","","","","","","","","","","","","","","","","","","","","","","NI","","2100,3900,6600,12900","2","","","","","","","","","","","","","","",""
"audio-keyboard-response","290","1649743","0.0-8.0-2.0-2.2-0.2","2","1","8qlpbftzze140mw","","null","","sounds/syllables/ni_SWS.wav","","null","","","","","","","","","","","","","","","","","","","","","","","","","","","","","","","","","","","","","","","","","",""
"html-keyboard-response","291","1650525","0.0-8.0-2.0-2.2-1.2","2","1","8qlpbftzze140mw","","780.8000000119209","","<p>To replay the <u>TARGET SOUND</u>, press P.</p> When you are ready to begin, press SPACEBAR.","","32","","","","","","","","","","","","","","","","","","","","","","","","","","","","","","","","","","","","","","","","","",""
"audio-keyboard-response","292","1665471","0.0-8.0-2.0-3.2","2","1","8qlpbftzze140mw","","null","","sounds/B/TD/NI_06_TD.mp3","","null","","","TD_SUMMARY","","","","","","","","","","","","","","","","","","","","","NI","","2100,3900,6600,12900","2","2100","3900","6600","12900","null","null","null","null","","1","","","","",""
"html-button-response","293","1667853","0.0-8.0-2.0-0.3","2","1","8qlpbftzze140mw","","2381","","<p>Trial 4 of 36</p>","0","","","","","","","","","","","","","","","","","","","","","","","","","FU","sounds/syllables/fu_SWS.wav","900,4500,7200,11700","1","","","","","","","","","","","","","","",""
"html-keyboard-response","294","1690740","0.0-8.0-2.0-1.3","2","1","8qlpbftzze140mw","","22885.90000000596","","","","80","","","","","","","","","","","","","","","","","","","","","","","","FU","","900,4500,7200,11700","1","","","","","","","","","","","","","","",""
"audio-keyboard-response","295","1691044","0.0-8.0-2.0-2.3-0.3","2","1","8qlpbftzze140mw","","null","","sounds/syllables/fu_SWS.wav","","null","","","","","","","","","","","","","","","","","","","","","","","","","","","","","","","","","","","","","","","","","",""
"html-keyboard-response","296","1691329","0.0-8.0-2.0-2.3-1.3","2","1","8qlpbftzze140mw","","281.7000000178814","","<p>To replay the <u>TARGET SOUND</u>, press P.</p> When you are ready to begin, press SPACEBAR.","","32","","","","","","","","","","","","","","","","","","","","","","","","","","","","","","","","","","","","","","","","","",""
"audio-keyboard-response","297","1706184","0.0-8.0-2.0-3.3","2","1","8qlpbftzze140mw","","null","","sounds/B/TD/FU_06_TD.mp3","","null","","","TD_SUMMARY","","","","","","","","","","","","","","","","","","","","","FU","","900,4500,7200,11700","1","900","4500","7200","11700","null","null","null","null","","1","","","","",""
"html-button-response","298","1710847","0.0-8.0-2.0-0.4","2","1","8qlpbftzze140mw","","4662.299999982119","","<p>Trial 5 of 36</p>","0","","","","","","","","","","","","","","","","","","","","","","","","","TI","sounds/syllables/ti_SWS.wav","900,3600,5400,9000","1","","","","","","","","","","","","","","",""
"html-keyboard-response","299","1711759","0.0-8.0-2.0-1.4","2","1","8qlpbftzze140mw","","910.6999999880791","","","","80","","","","","","","","","","","","","","","","","","","","","","","","TI","","900,3600,5400,9000","1","","","","","","","","","","","","","","",""
"audio-keyboard-response","300","1712061","0.0-8.0-2.0-2.4-0.4","2","1","8qlpbftzze140mw","","null","","sounds/syllables/ti_SWS.wav","","null","","","","","","","","","","","","","","","","","","","","","","","","","","","","","","","","","","","","","","","","","",""
"html-keyboard-response","301","1712845","0.0-8.0-2.0-2.4-1.4","2","1","8qlpbftzze140mw","","783.5999999940395","","<p>To replay the <u>TARGET SOUND</u>, press P.</p> When you are ready to begin, press SPACEBAR.","","32","","","","","","","","","","","","","","","","","","","","","","","","","","","","","","","","","","","","","","","","","",""
"audio-keyboard-response","302","1727793","0.0-8.0-2.0-3.4","2","1","8qlpbftzze140mw","","null","","sounds/B/TD/TI_03_TD.mp3","","null","","","TD_SUMMARY","","","","","","","","","","","","","","","","","","","","","TI","","900,3600,5400,9000","1","900","3600","5400","9000","null","null","null","null","","1","","","","",""
"html-button-response","303","1730304","0.0-8.0-2.0-0.5","2","1","8qlpbftzze140mw","","2508.800000011921","","<p>Trial 6 of 36</p>","0","","","","","","","","","","","","","","","","","","","","","","","","","SU","sounds/syllables/su_SWS.wav","1200,3000,7500,10200","2","","","","","","","","","","","","","","",""
"html-keyboard-response","304","1731116","0.0-8.0-2.0-1.5","2","1","8qlpbftzze140mw","","811","","","","80","","","","","","","","","","","","","","","","","","","","","","","","SU","","1200,3000,7500,10200","2","","","","","","","","","","","","","","",""
"audio-keyboard-response","305","1731420","0.0-8.0-2.0-2.5-0.5","2","1","8qlpbftzze140mw","","null","","sounds/syllables/su_SWS.wav","","null","","","","","","","","","","","","","","","","","","","","","","","","","","","","","","","","","","","","","","","","","",""
"html-keyboard-response","306","1731790","0.0-8.0-2.0-2.5-1.5","2","1","8qlpbftzze140mw","","370.19999998807907","","<p>To replay the <u>TARGET SOUND</u>, press P.</p> When you are ready to begin, press SPACEBAR.","","32","","","","","","","","","","","","","","","","","","","","","","","","","","","","","","","","","","","","","","","","","",""
"audio-keyboard-response","307","1746737","0.0-8.0-2.0-3.5","2","1","8qlpbftzze140mw","","null","","sounds/B/TD/SU_07_TD.mp3","","null","","","TD_SUMMARY","","","","","","","","","","","","","","","","","","","","","SU","","1200,3000,7500,10200","2","1200","3000","7500","10200","null","null","null","null","","1","","","","",""
"html-button-response","308","1748409","0.0-8.0-2.0-0.6","2","1","8qlpbftzze140mw","","1670.3999999761581","","<p>Trial 7 of 36</p>","0","","","","","","","","","","","","","","","","","","","","","","","","","RE","sounds/syllables/re_SWS.wav","6000,7800,9600,13200","3","","","","","","","","","","","","","","",""
"html-keyboard-response","309","1749018","0.0-8.0-2.0-1.6","2","1","8qlpbftzze140mw","","608.4000000059605","","","","80","","","","","","","","","","","","","","","","","","","","","","","","RE","","6000,7800,9600,13200","3","","","","","","","","","","","","","","",""
"audio-keyboard-response","310","1749318","0.0-8.0-2.0-2.6-0.6","2","1","8qlpbftzze140mw","","null","","sounds/syllables/re_SWS.wav","","null","","","","","","","","","","","","","","","","","","","","","","","","","","","","","","","","","","","","","","","","","",""
"html-keyboard-response","311","1749704","0.0-8.0-2.0-2.6-1.6","2","1","8qlpbftzze140mw","","385","","<p>To replay the <u>TARGET SOUND</u>, press P.</p> When you are ready to begin, press SPACEBAR.","","32","","","","","","","","","","","","","","","","","","","","","","","","","","","","","","","","","","","","","","","","","",""
"audio-keyboard-response","312","1764656","0.0-8.0-2.0-3.6","2","1","8qlpbftzze140mw","","null","","sounds/B/TD/RE_09_TD.mp3","","null","","","TD_SUMMARY","","","","","","","","","","","","","","","","","","","","","RE","","6000,7800,9600,13200","3","6000","7800","9600","13200","null","null","null","null","","1","","","","",""
"html-button-response","313","1768151","0.0-8.0-2.0-0.7","2","1","8qlpbftzze140mw","","3492.7999999821186","","<p>Trial 8 of 36</p>","0","","","","","","","","","","","","","","","","","","","","","","","","","PU","sounds/syllables/pu_SWS.wav","4500,6300,8100,12600","1","","","","","","","","","","","","","","",""
"html-keyboard-response","314","1768833","0.0-8.0-2.0-1.7","2","1","8qlpbftzze140mw","","680","","","","80","","","","","","","","","","","","","","","","","","","","","","","","PU","","4500,6300,8100,12600","1","","","","","","","","","","","","","","",""
"audio-keyboard-response","315","1769135","0.0-8.0-2.0-2.7-0.7","2","1","8qlpbftzze140mw","","null","","sounds/syllables/pu_SWS.wav","","null","","","","","","","","","","","","","","","","","","","","","","","","","","","","","","","","","","","","","","","","","",""
"html-keyboard-response","316","1769527","0.0-8.0-2.0-2.7-1.7","2","1","8qlpbftzze140mw","","391.09999999403954","","<p>To replay the <u>TARGET SOUND</u>, press P.</p> When you are ready to begin, press SPACEBAR.","","32","","","","","","","","","","","","","","","","","","","","","","","","","","","","","","","","","","","","","","","","","",""
"audio-keyboard-response","317","1784479","0.0-8.0-2.0-3.7","2","1","8qlpbftzze140mw","","null","","sounds/B/TD/PU_08_TD.mp3","","null","","","TD_SUMMARY","","","","","","","","","","","","","","","","","","","","","PU","","4500,6300,8100,12600","1","4500","6300","8100","12600","null","null","null","null","","1","","","","",""
"html-button-response","318","1787598","0.0-8.0-2.0-0.8","2","1","8qlpbftzze140mw","","3118.2000000178814","","<p>Trial 9 of 36</p>","0","","","","","","","","","","","","","","","","","","","","","","","","","PU","sounds/syllables/pu_SWS.wav","1800,3600,5400,10800","1","","","","","","","","","","","","","","",""
