"trial_type","trial_index","time_elapsed","internal_node_id","counterbalance","lang_instruct","ParticipantID","view_history","rt","url","stimulus","button_pressed","key_press","correctRESP","correct","designation","location","correctanswer","responses","sentence","keywords","typed_resp","keyword1_acc","keyword2_acc","keyword3_acc","keyword4_acc","keyword5_acc","total_acc","prop_acc","timeouts","pause_rt01","pause_rt02","train_file","numKeyPress","sound","fam_type","SYLLABLE","EXEMPLAR","TD_LOCS","TD_TYPE","TDLOC_01","TDLOC_02","TDLOC_03","TDLOC_04","TD_RT_01","TD_RT_02","TD_RT_03","TD_RT_04","TD_SUBJ_RTs","number_of_plays","slider_start","response","question_order","syllable","syllable_type"
"pavlovia","0","3","0.0-0.0","3","1","wtsh5l0dngvtks7","","","","","","","","","","","","","","","","","","","","","","","","","","","","","","","","","","","","","","","","","","","","","","","",""
"instructions","1","21239","0.0-1.0","3","1","wtsh5l0dngvtks7","[{""page_index"":0,""viewing_time"":5952.5},{""page_index"":1,""viewing_time"":15277.199999988079}]","21235.30000001192","","","","","","","","","","","","","","","","","","","","","","","","","","","","","","","","","","","","","","","","","","","","","",""
"external-html","2","27319","0.0-2.0","3","1","wtsh5l0dngvtks7","","5458.199999988079","consent/consent.html","","","","","","","","","","","","","","","","","","","","","","","","","","","","","","","","","","","","","","","","","","","","",""
"html-button-response","3","28965","0.0-3.0-0.0-0.0","3","1","wtsh5l0dngvtks7","","1643.2999999821186","","<p>Welcome to the study. You will first complete a short volume calibration and headphone check.</p><p>Please make sure you are in a quiet listening environment, that you are wearing headphones, and that your computer's volume is turned on.<p></p>","0","","","","","","","","","","","","","","","","","","","","","","","","","","","","","","","","","","","","","","","","","","",""
"html-button-response","4","35981","0.0-3.0-0.0-1.0","3","1","wtsh5l0dngvtks7","","6751.9000000059605","","<p>The volume calibration will be first.</p><p>You will hear a thirty-second noise. Please adjust your computer's volume so that this noise is being presented at a comfortable level.<p></p>","0","","","","","","","","","","","","","","","","","","","","","","","","","","","","","","","","","","","","","","","","","","",""
"audio-button-response","5","39747","0.0-3.0-0.0-2.0","3","1","wtsh5l0dngvtks7","","3480","","audCalib/volumetest.mp3","0","","","","","","","","","","","","","","","","","","","","","","","","","","","","","","","","","","","","","","","","","","",""
"html-button-response","6","47727","0.0-3.0-1.0-0.0","3","1","wtsh5l0dngvtks7","","7978","","<p>You will now complete a short headphone check.</p><p>On each trial, you will hear three tones. One of these tones will be quieter than the others. Your task is to identify whether the quiet tone occured first, second, or third.</p><p>There are six trials in total.<p></p>","0","","","","","","","","","","","","","","","","","","","","","","","","","","","","","","","","","","","","","","","","","","",""
"html-keyboard-response","7","48504","0.0-3.0-1.0-1.0-0.0","3","1","wtsh5l0dngvtks7","","null","","<div style=""font-size:60px;"">+</div>","","null","","","","","","","","","","","","","","","","","","","","","","","","","","","","","","","","","","","","","","","","","",""
"audio-button-response","8","53166","0.0-3.0-1.0-1.0-1.0","3","1","wtsh5l0dngvtks7","","4661","","audCalib/t3_1.mp3","2","","2","1","headphone-test","","","","","","","","","","","","","","","","","","","","","","","","","","","","","","","","","","","","","","",""
"html-keyboard-response","9","53941","0.0-3.0-1.0-1.0-0.1","3","1","wtsh5l0dngvtks7","","null","","<div style=""font-size:60px;"">+</div>","","null","","","","","","","","","","","","","","","","","","","","","","","","","","","","","","","","","","","","","","","","","",""
"audio-button-response","10","58375","0.0-3.0-1.0-1.0-1.1","3","1","wtsh5l0dngvtks7","","4429","","audCalib/t2_1.mp3","1","","1","1","headphone-test","","","","","","","","","","","","","","","","","","","","","","","","","","","","","","","","","","","","","","",""
"html-keyboard-response","11","59137","0.0-3.0-1.0-1.0-0.2","3","1","wtsh5l0dngvtks7","","null","","<div style=""font-size:60px;"">+</div>","","null","","","","","","","","","","","","","","","","","","","","","","","","","","","","","","","","","","","","","","","","","",""
"audio-button-response","12","63498","0.0-3.0-1.0-1.0-1.2","3","1","wtsh5l0dngvtks7","","4360","","audCalib/t1_2.mp3","0","","0","1","headphone-test","","","","","","","","","","","","","","","","","","","","","","","","","","","","","","","","","","","","","","",""
"html-keyboard-response","13","64271","0.0-3.0-1.0-1.0-0.3","3","1","wtsh5l0dngvtks7","","null","","<div style=""font-size:60px;"">+</div>","","null","","","","","","","","","","","","","","","","","","","","","","","","","","","","","","","","","","","","","","","","","",""
"audio-button-response","14","68925","0.0-3.0-1.0-1.0-1.3","3","1","wtsh5l0dngvtks7","","4651","","audCalib/t3_2.mp3","2","","2","1","headphone-test","","","","","","","","","","","","","","","","","","","","","","","","","","","","","","","","","","","","","","",""
"html-keyboard-response","15","69705","0.0-3.0-1.0-1.0-0.4","3","1","wtsh5l0dngvtks7","","null","","<div style=""font-size:60px;"">+</div>","","null","","","","","","","","","","","","","","","","","","","","","","","","","","","","","","","","","","","","","","","","","",""
"audio-button-response","16","74028","0.0-3.0-1.0-1.0-1.4","3","1","wtsh5l0dngvtks7","","4331","","audCalib/t2_2.mp3","1","","1","1","headphone-test","","","","","","","","","","","","","","","","","","","","","","","","","","","","","","","","","","","","","","",""
"html-keyboard-response","17","74792","0.0-3.0-1.0-1.0-0.5","3","1","wtsh5l0dngvtks7","","null","","<div style=""font-size:60px;"">+</div>","","null","","","","","","","","","","","","","","","","","","","","","","","","","","","","","","","","","","","","","","","","","",""
"audio-button-response","18","79096","0.0-3.0-1.0-1.0-1.5","3","1","wtsh5l0dngvtks7","","4299","","audCalib/t1_1.mp3","0","","0","1","headphone-test","","","","","","","","","","","","","","","","","","","","","","","","","","","","","","","","","","","","","","",""
"html-button-response","19","80948","0.0-3.0-2.0","3","1","wtsh5l0dngvtks7","","1588.9000000059605","","<p>The volume calibration and headphone check are now complete.</p>","0","","","","","","","","","","","","","","","","","","","","","","","","","","","","","","","","","","","","","","","","","","",""
"instructions","20","94726","0.0-4.0-0.0","3","1","wtsh5l0dngvtks7","[{""page_index"":0,""viewing_time"":1324.699999988079},{""page_index"":1,""viewing_time"":9391.40000000596},{""page_index"":2,""viewing_time"":3060}]","13776.699999988079","","","","","","","","","","","","","","","","","","","","","","","","","","","","","","","","","","","","","","","","","","","","","",""
"audio-keyboard-response","21","95027","0.0-4.0-1.0-0.0","3","1","wtsh5l0dngvtks7","","null","","sounds/induction/left/re_SWS.wav","","null","","","","","","","","","","","","","","","","","","","","","","","","","","","","","","","","","","","","","","","","","",""
"html-button-response","22","97413","0.0-4.0-1.0-1.0","3","1","wtsh5l0dngvtks7","","2384.0999999940395","","What sound did you hear?","0","","","1","INDUCTION-JUDGMENT","left","0","","","","","","","","","","","","","","","","","","","","","","","","","","","","","","","","","","","","",""
"html-keyboard-response","23","98421","0.0-4.0-1.0-2.0","3","1","wtsh5l0dngvtks7","","null","","<p style=""color:green;""><b>Correct!</b></p>","","null","","","","","","","","","","","","","","","","","","","","","","","","","","","","","","","","","","","","","","","","","",""
"audio-keyboard-response","24","99227","0.0-4.0-1.0-0.1","3","1","wtsh5l0dngvtks7","","null","","sounds/induction/right/pu_SWS.wav","","null","","","","","","","","","","","","","","","","","","","","","","","","","","","","","","","","","","","","","","","","","",""
"html-button-response","25","100765","0.0-4.0-1.0-1.1","3","1","wtsh5l0dngvtks7","","1535.5","","What sound did you hear?","1","","","1","INDUCTION-JUDGMENT","right","1","","","","","","","","","","","","","","","","","","","","","","","","","","","","","","","","","","","","",""
"html-keyboard-response","26","101777","0.0-4.0-1.0-2.1","3","1","wtsh5l0dngvtks7","","null","","<p style=""color:green;""><b>Correct!</b></p>","","null","","","","","","","","","","","","","","","","","","","","","","","","","","","","","","","","","","","","","","","","","",""
"audio-keyboard-response","27","102587","0.0-4.0-1.0-0.2","3","1","wtsh5l0dngvtks7","","null","","sounds/induction/left/fu_SWS.wav","","null","","","","","","","","","","","","","","","","","","","","","","","","","","","","","","","","","","","","","","","","","",""
"html-button-response","28","104976","0.0-4.0-1.0-1.2","3","1","wtsh5l0dngvtks7","","2387.100000023842","","What sound did you hear?","1","","","1","INDUCTION-JUDGMENT","left","1","","","","","","","","","","","","","","","","","","","","","","","","","","","","","","","","","","","","",""
"html-keyboard-response","29","105978","0.0-4.0-1.0-2.2","3","1","wtsh5l0dngvtks7","","null","","<p style=""color:green;""><b>Correct!</b></p>","","null","","","","","","","","","","","","","","","","","","","","","","","","","","","","","","","","","","","","","","","","","",""
"audio-keyboard-response","30","106787","0.0-4.0-1.0-0.3","3","1","wtsh5l0dngvtks7","","null","","sounds/induction/right/ti_SWS.wav","","null","","","","","","","","","","","","","","","","","","","","","","","","","","","","","","","","","","","","","","","","","",""
"html-button-response","31","108486","0.0-4.0-1.0-1.3","3","1","wtsh5l0dngvtks7","","1697.0999999940395","","What sound did you hear?","1","","","1","INDUCTION-JUDGMENT","right","1","","","","","","","","","","","","","","","","","","","","","","","","","","","","","","","","","","","","",""
"html-keyboard-response","32","109501","0.0-4.0-1.0-2.3","3","1","wtsh5l0dngvtks7","","null","","<p style=""color:green;""><b>Correct!</b></p>","","null","","","","","","","","","","","","","","","","","","","","","","","","","","","","","","","","","","","","","","","","","",""
"audio-keyboard-response","33","110308","0.0-4.0-1.0-0.4","3","1","wtsh5l0dngvtks7","","null","","sounds/induction/right/fe_SWS.wav","","null","","","","","","","","","","","","","","","","","","","","","","","","","","","","","","","","","","","","","","","","","",""
"html-button-response","34","111570","0.0-4.0-1.0-1.4","3","1","wtsh5l0dngvtks7","","1259.800000011921","","What sound did you hear?","0","","","1","INDUCTION-JUDGMENT","right","0","","","","","","","","","","","","","","","","","","","","","","","","","","","","","","","","","","","","",""
"html-keyboard-response","35","112570","0.0-4.0-1.0-2.4","3","1","wtsh5l0dngvtks7","","null","","<p style=""color:green;""><b>Correct!</b></p>","","null","","","","","","","","","","","","","","","","","","","","","","","","","","","","","","","","","","","","","","","","","",""
"audio-keyboard-response","36","113387","0.0-4.0-1.0-0.5","3","1","wtsh5l0dngvtks7","","null","","sounds/induction/left/me_SWS.wav","","null","","","","","","","","","","","","","","","","","","","","","","","","","","","","","","","","","","","","","","","","","",""
"html-button-response","37","114517","0.0-4.0-1.0-1.5","3","1","wtsh5l0dngvtks7","","1128.300000011921","","What sound did you hear?","1","","","1","INDUCTION-JUDGMENT","left","1","","","","","","","","","","","","","","","","","","","","","","","","","","","","","","","","","","","","",""
"html-keyboard-response","38","115521","0.0-4.0-1.0-2.5","3","1","wtsh5l0dngvtks7","","null","","<p style=""color:green;""><b>Correct!</b></p>","","null","","","","","","","","","","","","","","","","","","","","","","","","","","","","","","","","","","","","","","","","","",""
"audio-keyboard-response","39","116337","0.0-4.0-1.0-0.6","3","1","wtsh5l0dngvtks7","","null","","sounds/induction/right/ge_SWS.wav","","null","","","","","","","","","","","","","","","","","","","","","","","","","","","","","","","","","","","","","","","","","",""
"html-button-response","40","117849","0.0-4.0-1.0-1.6","3","1","wtsh5l0dngvtks7","","1509.9000000059605","","What sound did you hear?","0","","","1","INDUCTION-JUDGMENT","right","0","","","","","","","","","","","","","","","","","","","","","","","","","","","","","","","","","","","","",""
"html-keyboard-response","41","118862","0.0-4.0-1.0-2.6","3","1","wtsh5l0dngvtks7","","null","","<p style=""color:green;""><b>Correct!</b></p>","","null","","","","","","","","","","","","","","","","","","","","","","","","","","","","","","","","","","","","","","","","","",""
"audio-keyboard-response","42","119678","0.0-4.0-1.0-0.7","3","1","wtsh5l0dngvtks7","","null","","sounds/induction/left/su_SWS.wav","","null","","","","","","","","","","","","","","","","","","","","","","","","","","","","","","","","","","","","","","","","","",""
"html-button-response","43","121045","0.0-4.0-1.0-1.7","3","1","wtsh5l0dngvtks7","","1365.5999999940395","","What sound did you hear?","0","","","1","INDUCTION-JUDGMENT","left","0","","","","","","","","","","","","","","","","","","","","","","","","","","","","","","","","","","","","",""
"html-keyboard-response","44","122049","0.0-4.0-1.0-2.7","3","1","wtsh5l0dngvtks7","","null","","<p style=""color:green;""><b>Correct!</b></p>","","null","","","","","","","","","","","","","","","","","","","","","","","","","","","","","","","","","","","","","","","","","",""
"audio-keyboard-response","45","122867","0.0-4.0-1.0-0.8","3","1","wtsh5l0dngvtks7","","null","","sounds/induction/right/ta_SWS.wav","","null","","","","","","","","","","","","","","","","","","","","","","","","","","","","","","","","","","","","","","","","","",""
"html-button-response","46","124349","0.0-4.0-1.0-1.8","3","1","wtsh5l0dngvtks7","","1479.9000000059605","","What sound did you hear?","1","","","1","INDUCTION-JUDGMENT","right","1","","","","","","","","","","","","","","","","","","","","","","","","","","","","","","","","","","","","",""
"html-keyboard-response","47","125359","0.0-4.0-1.0-2.8","3","1","wtsh5l0dngvtks7","","null","","<p style=""color:green;""><b>Correct!</b></p>","","null","","","","","","","","","","","","","","","","","","","","","","","","","","","","","","","","","","","","","","","","","",""
"audio-keyboard-response","48","126177","0.0-4.0-1.0-0.9","3","1","wtsh5l0dngvtks7","","null","","sounds/induction/left/pu_SWS.wav","","null","","","","","","","","","","","","","","","","","","","","","","","","","","","","","","","","","","","","","","","","","",""
"html-button-response","49","127757","0.0-4.0-1.0-1.9","3","1","wtsh5l0dngvtks7","","1577.699999988079","","What sound did you hear?","0","","","1","INDUCTION-JUDGMENT","left","0","","","","","","","","","","","","","","","","","","","","","","","","","","","","","","","","","","","","",""
"html-keyboard-response","50","128768","0.0-4.0-1.0-2.9","3","1","wtsh5l0dngvtks7","","null","","<p style=""color:green;""><b>Correct!</b></p>","","null","","","","","","","","","","","","","","","","","","","","","","","","","","","","","","","","","","","","","","","","","",""
"audio-keyboard-response","51","129587","0.0-4.0-1.0-0.10","3","1","wtsh5l0dngvtks7","","null","","sounds/induction/right/pu_SWS.wav","","null","","","","","","","","","","","","","","","","","","","","","","","","","","","","","","","","","","","","","","","","","",""
"html-button-response","52","130991","0.0-4.0-1.0-1.10","3","1","wtsh5l0dngvtks7","","1402.3999999761581","","What sound did you hear?","1","","","1","INDUCTION-JUDGMENT","right","1","","","","","","","","","","","","","","","","","","","","","","","","","","","","","","","","","","","","",""
"html-keyboard-response","53","131997","0.0-4.0-1.0-2.10","3","1","wtsh5l0dngvtks7","","null","","<p style=""color:green;""><b>Correct!</b></p>","","null","","","","","","","","","","","","","","","","","","","","","","","","","","","","","","","","","","","","","","","","","",""
"audio-keyboard-response","54","132817","0.0-4.0-1.0-0.11","3","1","wtsh5l0dngvtks7","","null","","sounds/induction/right/me_SWS.wav","","null","","","","","","","","","","","","","","","","","","","","","","","","","","","","","","","","","","","","","","","","","",""
"html-button-response","55","134673","0.0-4.0-1.0-1.11","3","1","wtsh5l0dngvtks7","","1854.2000000178814","","What sound did you hear?","1","","","0","INDUCTION-JUDGMENT","right","0","","","","","","","","","","","","","","","","","","","","","","","","","","","","","","","","","","","","",""
"html-keyboard-response","56","135674","0.0-4.0-1.0-2.11","3","1","wtsh5l0dngvtks7","","null","","<p style=""color:red;""><b>Incorrect!</b></p>","","null","","","","","","","","","","","","","","","","","","","","","","","","","","","","","","","","","","","","","","","","","",""
"audio-keyboard-response","57","136468","0.0-4.0-1.0-0.12","3","1","wtsh5l0dngvtks7","","null","","sounds/induction/right/ko_SWS.wav","","null","","","","","","","","","","","","","","","","","","","","","","","","","","","","","","","","","","","","","","","","","",""
"html-button-response","58","138050","0.0-4.0-1.0-1.12","3","1","wtsh5l0dngvtks7","","1580.9000000059605","","What sound did you hear?","0","","","1","INDUCTION-JUDGMENT","right","0","","","","","","","","","","","","","","","","","","","","","","","","","","","","","","","","","","","","",""
"html-keyboard-response","59","139055","0.0-4.0-1.0-2.12","3","1","wtsh5l0dngvtks7","","null","","<p style=""color:green;""><b>Correct!</b></p>","","null","","","","","","","","","","","","","","","","","","","","","","","","","","","","","","","","","","","","","","","","","",""
"audio-keyboard-response","60","139868","0.0-4.0-1.0-0.13","3","1","wtsh5l0dngvtks7","","null","","sounds/induction/left/ge_SWS.wav","","null","","","","","","","","","","","","","","","","","","","","","","","","","","","","","","","","","","","","","","","","","",""
"html-button-response","61","141068","0.0-4.0-1.0-1.13","3","1","wtsh5l0dngvtks7","","1198.5999999940395","","What sound did you hear?","1","","","1","INDUCTION-JUDGMENT","left","1","","","","","","","","","","","","","","","","","","","","","","","","","","","","","","","","","","","","",""
"html-keyboard-response","62","142078","0.0-4.0-1.0-2.13","3","1","wtsh5l0dngvtks7","","null","","<p style=""color:green;""><b>Correct!</b></p>","","null","","","","","","","","","","","","","","","","","","","","","","","","","","","","","","","","","","","","","","","","","",""
"audio-keyboard-response","63","142897","0.0-4.0-1.0-0.14","3","1","wtsh5l0dngvtks7","","null","","sounds/induction/left/ta_SWS.wav","","null","","","","","","","","","","","","","","","","","","","","","","","","","","","","","","","","","","","","","","","","","",""
"html-button-response","64","144167","0.0-4.0-1.0-1.14","3","1","wtsh5l0dngvtks7","","1268","","What sound did you hear?","0","","","1","INDUCTION-JUDGMENT","left","0","","","","","","","","","","","","","","","","","","","","","","","","","","","","","","","","","","","","",""
"html-keyboard-response","65","145176","0.0-4.0-1.0-2.14","3","1","wtsh5l0dngvtks7","","null","","<p style=""color:green;""><b>Correct!</b></p>","","null","","","","","","","","","","","","","","","","","","","","","","","","","","","","","","","","","","","","","","","","","",""
"audio-keyboard-response","66","145988","0.0-4.0-1.0-0.15","3","1","wtsh5l0dngvtks7","","null","","sounds/induction/right/me_SWS.wav","","null","","","","","","","","","","","","","","","","","","","","","","","","","","","","","","","","","","","","","","","","","",""
"html-button-response","67","147619","0.0-4.0-1.0-1.15","3","1","wtsh5l0dngvtks7","","1629.8999999761581","","What sound did you hear?","0","","","1","INDUCTION-JUDGMENT","right","0","","","","","","","","","","","","","","","","","","","","","","","","","","","","","","","","","","","","",""
"html-keyboard-response","68","148628","0.0-4.0-1.0-2.15","3","1","wtsh5l0dngvtks7","","null","","<p style=""color:green;""><b>Correct!</b></p>","","null","","","","","","","","","","","","","","","","","","","","","","","","","","","","","","","","","","","","","","","","","",""
"audio-keyboard-response","69","149437","0.0-4.0-1.0-0.16","3","1","wtsh5l0dngvtks7","","null","","sounds/induction/left/ru_SWS.wav","","null","","","","","","","","","","","","","","","","","","","","","","","","","","","","","","","","","","","","","","","","","",""
"html-button-response","70","150571","0.0-4.0-1.0-1.16","3","1","wtsh5l0dngvtks7","","1130.9000000059605","","What sound did you hear?","0","","","1","INDUCTION-JUDGMENT","left","0","","","","","","","","","","","","","","","","","","","","","","","","","","","","","","","","","","","","",""
"html-keyboard-response","71","151576","0.0-4.0-1.0-2.16","3","1","wtsh5l0dngvtks7","","null","","<p style=""color:green;""><b>Correct!</b></p>","","null","","","","","","","","","","","","","","","","","","","","","","","","","","","","","","","","","","","","","","","","","",""
"audio-keyboard-response","72","152387","0.0-4.0-1.0-0.17","3","1","wtsh5l0dngvtks7","","null","","sounds/induction/left/ge_SWS.wav","","null","","","","","","","","","","","","","","","","","","","","","","","","","","","","","","","","","","","","","","","","","",""
"html-button-response","73","153639","0.0-4.0-1.0-1.17","3","1","wtsh5l0dngvtks7","","1250.5","","What sound did you hear?","1","","","1","INDUCTION-JUDGMENT","left","1","","","","","","","","","","","","","","","","","","","","","","","","","","","","","","","","","","","","",""
"html-keyboard-response","74","154646","0.0-4.0-1.0-2.17","3","1","wtsh5l0dngvtks7","","null","","<p style=""color:green;""><b>Correct!</b></p>","","null","","","","","","","","","","","","","","","","","","","","","","","","","","","","","","","","","","","","","","","","","",""
"audio-keyboard-response","75","155467","0.0-4.0-1.0-0.18","3","1","wtsh5l0dngvtks7","","null","","sounds/induction/right/re_SWS.wav","","null","","","","","","","","","","","","","","","","","","","","","","","","","","","","","","","","","","","","","","","","","",""
"html-button-response","76","157238","0.0-4.0-1.0-1.18","3","1","wtsh5l0dngvtks7","","1768.4000000059605","","What sound did you hear?","1","","","1","INDUCTION-JUDGMENT","right","1","","","","","","","","","","","","","","","","","","","","","","","","","","","","","","","","","","","","",""
"html-keyboard-response","77","158248","0.0-4.0-1.0-2.18","3","1","wtsh5l0dngvtks7","","null","","<p style=""color:green;""><b>Correct!</b></p>","","null","","","","","","","","","","","","","","","","","","","","","","","","","","","","","","","","","","","","","","","","","",""
"audio-keyboard-response","78","159067","0.0-4.0-1.0-0.19","3","1","wtsh5l0dngvtks7","","null","","sounds/induction/left/fu_SWS.wav","","null","","","","","","","","","","","","","","","","","","","","","","","","","","","","","","","","","","","","","","","","","",""
"html-button-response","79","161742","0.0-4.0-1.0-1.19","3","1","wtsh5l0dngvtks7","","2673.800000011921","","What sound did you hear?","1","","","1","INDUCTION-JUDGMENT","left","1","","","","","","","","","","","","","","","","","","","","","","","","","","","","","","","","","","","","",""
"html-keyboard-response","80","162756","0.0-4.0-1.0-2.19","3","1","wtsh5l0dngvtks7","","null","","<p style=""color:green;""><b>Correct!</b></p>","","null","","","","","","","","","","","","","","","","","","","","","","","","","","","","","","","","","","","","","","","","","",""
"audio-keyboard-response","81","163577","0.0-4.0-1.0-0.20","3","1","wtsh5l0dngvtks7","","null","","sounds/induction/right/ru_SWS.wav","","null","","","","","","","","","","","","","","","","","","","","","","","","","","","","","","","","","","","","","","","","","",""
"html-button-response","82","165071","0.0-4.0-1.0-1.20","3","1","wtsh5l0dngvtks7","","1492.5999999940395","","What sound did you hear?","1","","","1","INDUCTION-JUDGMENT","right","1","","","","","","","","","","","","","","","","","","","","","","","","","","","","","","","","","","","","",""
"html-keyboard-response","83","166083","0.0-4.0-1.0-2.20","3","1","wtsh5l0dngvtks7","","null","","<p style=""color:green;""><b>Correct!</b></p>","","null","","","","","","","","","","","","","","","","","","","","","","","","","","","","","","","","","","","","","","","","","",""
"audio-keyboard-response","84","166897","0.0-4.0-1.0-0.21","3","1","wtsh5l0dngvtks7","","null","","sounds/induction/left/ni_SWS.wav","","null","","","","","","","","","","","","","","","","","","","","","","","","","","","","","","","","","","","","","","","","","",""
"html-button-response","85","168108","0.0-4.0-1.0-1.21","3","1","wtsh5l0dngvtks7","","1209.9000000059605","","What sound did you hear?","1","","","1","INDUCTION-JUDGMENT","left","1","","","","","","","","","","","","","","","","","","","","","","","","","","","","","","","","","","","","",""
"html-keyboard-response","86","169118","0.0-4.0-1.0-2.21","3","1","wtsh5l0dngvtks7","","null","","<p style=""color:green;""><b>Correct!</b></p>","","null","","","","","","","","","","","","","","","","","","","","","","","","","","","","","","","","","","","","","","","","","",""
"audio-keyboard-response","87","169937","0.0-4.0-1.0-0.22","3","1","wtsh5l0dngvtks7","","null","","sounds/induction/right/ni_SWS.wav","","null","","","","","","","","","","","","","","","","","","","","","","","","","","","","","","","","","","","","","","","","","",""
"html-button-response","88","171440","0.0-4.0-1.0-1.22","3","1","wtsh5l0dngvtks7","","1500.8999999761581","","What sound did you hear?","0","","","1","INDUCTION-JUDGMENT","right","0","","","","","","","","","","","","","","","","","","","","","","","","","","","","","","","","","","","","",""
"html-keyboard-response","89","172448","0.0-4.0-1.0-2.22","3","1","wtsh5l0dngvtks7","","null","","<p style=""color:green;""><b>Correct!</b></p>","","null","","","","","","","","","","","","","","","","","","","","","","","","","","","","","","","","","","","","","","","","","",""
"audio-keyboard-response","90","173268","0.0-4.0-1.0-0.23","3","1","wtsh5l0dngvtks7","","null","","sounds/induction/right/ti_SWS.wav","","null","","","","","","","","","","","","","","","","","","","","","","","","","","","","","","","","","","","","","","","","","",""
"html-button-response","91","174204","0.0-4.0-1.0-1.23","3","1","wtsh5l0dngvtks7","","934.1999999880791","","What sound did you hear?","1","","","1","INDUCTION-JUDGMENT","right","1","","","","","","","","","","","","","","","","","","","","","","","","","","","","","","","","","","","","",""
"html-keyboard-response","92","175216","0.0-4.0-1.0-2.23","3","1","wtsh5l0dngvtks7","","null","","<p style=""color:green;""><b>Correct!</b></p>","","null","","","","","","","","","","","","","","","","","","","","","","","","","","","","","","","","","","","","","","","","","",""
"audio-keyboard-response","93","176027","0.0-4.0-1.0-0.24","3","1","wtsh5l0dngvtks7","","null","","sounds/induction/left/me_SWS.wav","","null","","","","","","","","","","","","","","","","","","","","","","","","","","","","","","","","","","","","","","","","","",""
"html-button-response","94","177210","0.0-4.0-1.0-1.24","3","1","wtsh5l0dngvtks7","","1181.300000011921","","What sound did you hear?","1","","","1","INDUCTION-JUDGMENT","left","1","","","","","","","","","","","","","","","","","","","","","","","","","","","","","","","","","","","","",""
"html-keyboard-response","95","178220","0.0-4.0-1.0-2.24","3","1","wtsh5l0dngvtks7","","null","","<p style=""color:green;""><b>Correct!</b></p>","","null","","","","","","","","","","","","","","","","","","","","","","","","","","","","","","","","","","","","","","","","","",""
"audio-keyboard-response","96","179028","0.0-4.0-1.0-0.25","3","1","wtsh5l0dngvtks7","","null","","sounds/induction/left/ta_SWS.wav","","null","","","","","","","","","","","","","","","","","","","","","","","","","","","","","","","","","","","","","","","","","",""
"html-button-response","97","180256","0.0-4.0-1.0-1.25","3","1","wtsh5l0dngvtks7","","1226.5","","What sound did you hear?","0","","","1","INDUCTION-JUDGMENT","left","0","","","","","","","","","","","","","","","","","","","","","","","","","","","","","","","","","","","","",""
"html-keyboard-response","98","181264","0.0-4.0-1.0-2.25","3","1","wtsh5l0dngvtks7","","null","","<p style=""color:green;""><b>Correct!</b></p>","","null","","","","","","","","","","","","","","","","","","","","","","","","","","","","","","","","","","","","","","","","","",""
"audio-keyboard-response","99","182068","0.0-4.0-1.0-0.26","3","1","wtsh5l0dngvtks7","","null","","sounds/induction/left/ko_SWS.wav","","null","","","","","","","","","","","","","","","","","","","","","","","","","","","","","","","","","","","","","","","","","",""
"html-button-response","100","183340","0.0-4.0-1.0-1.26","3","1","wtsh5l0dngvtks7","","1271.300000011921","","What sound did you hear?","1","","","1","INDUCTION-JUDGMENT","left","1","","","","","","","","","","","","","","","","","","","","","","","","","","","","","","","","","","","","",""
"html-keyboard-response","101","184348","0.0-4.0-1.0-2.26","3","1","wtsh5l0dngvtks7","","null","","<p style=""color:green;""><b>Correct!</b></p>","","null","","","","","","","","","","","","","","","","","","","","","","","","","","","","","","","","","","","","","","","","","",""
"audio-keyboard-response","102","185158","0.0-4.0-1.0-0.27","3","1","wtsh5l0dngvtks7","","null","","sounds/induction/right/ta_SWS.wav","","null","","","","","","","","","","","","","","","","","","","","","","","","","","","","","","","","","","","","","","","","","",""
"html-button-response","103","186453","0.0-4.0-1.0-1.27","3","1","wtsh5l0dngvtks7","","1293","","What sound did you hear?","1","","","1","INDUCTION-JUDGMENT","right","1","","","","","","","","","","","","","","","","","","","","","","","","","","","","","","","","","","","","",""
"html-keyboard-response","104","187462","0.0-4.0-1.0-2.27","3","1","wtsh5l0dngvtks7","","null","","<p style=""color:green;""><b>Correct!</b></p>","","null","","","","","","","","","","","","","","","","","","","","","","","","","","","","","","","","","","","","","","","","","",""
"audio-keyboard-response","105","188268","0.0-4.0-1.0-0.28","3","1","wtsh5l0dngvtks7","","null","","sounds/induction/left/re_SWS.wav","","null","","","","","","","","","","","","","","","","","","","","","","","","","","","","","","","","","","","","","","","","","",""
"html-button-response","106","191522","0.0-4.0-1.0-1.28","3","1","wtsh5l0dngvtks7","","3252.199999988079","","What sound did you hear?","0","","","1","INDUCTION-JUDGMENT","left","0","","","","","","","","","","","","","","","","","","","","","","","","","","","","","","","","","","","","",""
"html-keyboard-response","107","192533","0.0-4.0-1.0-2.28","3","1","wtsh5l0dngvtks7","","null","","<p style=""color:green;""><b>Correct!</b></p>","","null","","","","","","","","","","","","","","","","","","","","","","","","","","","","","","","","","","","","","","","","","",""
"audio-keyboard-response","108","193348","0.0-4.0-1.0-0.29","3","1","wtsh5l0dngvtks7","","null","","sounds/induction/left/fe_SWS.wav","","null","","","","","","","","","","","","","","","","","","","","","","","","","","","","","","","","","","","","","","","","","",""
"html-button-response","109","195338","0.0-4.0-1.0-1.29","3","1","wtsh5l0dngvtks7","","1989.5","","What sound did you hear?","0","","","0","INDUCTION-JUDGMENT","left","1","","","","","","","","","","","","","","","","","","","","","","","","","","","","","","","","","","","","",""
"html-keyboard-response","110","196348","0.0-4.0-1.0-2.29","3","1","wtsh5l0dngvtks7","","null","","<p style=""color:red;""><b>Incorrect!</b></p>","","null","","","","","","","","","","","","","","","","","","","","","","","","","","","","","","","","","","","","","","","","","",""
"audio-keyboard-response","111","197158","0.0-4.0-1.0-0.30","3","1","wtsh5l0dngvtks7","","null","","sounds/induction/right/fu_SWS.wav","","null","","","","","","","","","","","","","","","","","","","","","","","","","","","","","","","","","","","","","","","","","",""
"html-button-response","112","198386","0.0-4.0-1.0-1.30","3","1","wtsh5l0dngvtks7","","1227.2000000178814","","What sound did you hear?","0","","","1","INDUCTION-JUDGMENT","right","0","","","","","","","","","","","","","","","","","","","","","","","","","","","","","","","","","","","","",""
"html-keyboard-response","113","199398","0.0-4.0-1.0-2.30","3","1","wtsh5l0dngvtks7","","null","","<p style=""color:green;""><b>Correct!</b></p>","","null","","","","","","","","","","","","","","","","","","","","","","","","","","","","","","","","","","","","","","","","","",""
"audio-keyboard-response","114","200217","0.0-4.0-1.0-0.31","3","1","wtsh5l0dngvtks7","","null","","sounds/induction/left/ru_SWS.wav","","null","","","","","","","","","","","","","","","","","","","","","","","","","","","","","","","","","","","","","","","","","",""
"html-button-response","115","201391","0.0-4.0-1.0-1.31","3","1","wtsh5l0dngvtks7","","1171.5999999940395","","What sound did you hear?","0","","","1","INDUCTION-JUDGMENT","left","0","","","","","","","","","","","","","","","","","","","","","","","","","","","","","","","","","","","","",""
"html-keyboard-response","116","202400","0.0-4.0-1.0-2.31","3","1","wtsh5l0dngvtks7","","null","","<p style=""color:green;""><b>Correct!</b></p>","","null","","","","","","","","","","","","","","","","","","","","","","","","","","","","","","","","","","","","","","","","","",""
"audio-keyboard-response","117","203218","0.0-4.0-1.0-0.32","3","1","wtsh5l0dngvtks7","","null","","sounds/induction/right/su_SWS.wav","","null","","","","","","","","","","","","","","","","","","","","","","","","","","","","","","","","","","","","","","","","","",""
"html-button-response","118","205071","0.0-4.0-1.0-1.32","3","1","wtsh5l0dngvtks7","","1851.2000000178814","","What sound did you hear?","1","","","1","INDUCTION-JUDGMENT","right","1","","","","","","","","","","","","","","","","","","","","","","","","","","","","","","","","","","","","",""
"html-keyboard-response","119","206080","0.0-4.0-1.0-2.32","3","1","wtsh5l0dngvtks7","","null","","<p style=""color:green;""><b>Correct!</b></p>","","null","","","","","","","","","","","","","","","","","","","","","","","","","","","","","","","","","","","","","","","","","",""
"audio-keyboard-response","120","206898","0.0-4.0-1.0-0.33","3","1","wtsh5l0dngvtks7","","null","","sounds/induction/left/fe_SWS.wav","","null","","","","","","","","","","","","","","","","","","","","","","","","","","","","","","","","","","","","","","","","","",""
"html-button-response","121","208318","0.0-4.0-1.0-1.33","3","1","wtsh5l0dngvtks7","","1418.8999999761581","","What sound did you hear?","0","","","0","INDUCTION-JUDGMENT","left","1","","","","","","","","","","","","","","","","","","","","","","","","","","","","","","","","","","","","",""
"html-keyboard-response","122","209334","0.0-4.0-1.0-2.33","3","1","wtsh5l0dngvtks7","","null","","<p style=""color:red;""><b>Incorrect!</b></p>","","null","","","","","","","","","","","","","","","","","","","","","","","","","","","","","","","","","","","","","","","","","",""
"audio-keyboard-response","123","210149","0.0-4.0-1.0-0.34","3","1","wtsh5l0dngvtks7","","null","","sounds/induction/left/pu_SWS.wav","","null","","","","","","","","","","","","","","","","","","","","","","","","","","","","","","","","","","","","","","","","","",""
"html-button-response","124","211443","0.0-4.0-1.0-1.34","3","1","wtsh5l0dngvtks7","","1291.5999999940395","","What sound did you hear?","0","","","1","INDUCTION-JUDGMENT","left","0","","","","","","","","","","","","","","","","","","","","","","","","","","","","","","","","","","","","",""
"html-keyboard-response","125","212458","0.0-4.0-1.0-2.34","3","1","wtsh5l0dngvtks7","","null","","<p style=""color:green;""><b>Correct!</b></p>","","null","","","","","","","","","","","","","","","","","","","","","","","","","","","","","","","","","","","","","","","","","",""
"audio-keyboard-response","126","213268","0.0-4.0-1.0-0.35","3","1","wtsh5l0dngvtks7","","null","","sounds/induction/right/ru_SWS.wav","","null","","","","","","","","","","","","","","","","","","","","","","","","","","","","","","","","","","","","","","","","","",""
"html-button-response","127","214340","0.0-4.0-1.0-1.35","3","1","wtsh5l0dngvtks7","","1071","","What sound did you hear?","1","","","1","INDUCTION-JUDGMENT","right","1","","","","","","","","","","","","","","","","","","","","","","","","","","","","","","","","","","","","",""
"html-keyboard-response","128","215351","0.0-4.0-1.0-2.35","3","1","wtsh5l0dngvtks7","","null","","<p style=""color:green;""><b>Correct!</b></p>","","null","","","","","","","","","","","","","","","","","","","","","","","","","","","","","","","","","","","","","","","","","",""
"audio-keyboard-response","129","216158","0.0-4.0-1.0-0.36","3","1","wtsh5l0dngvtks7","","null","","sounds/induction/left/su_SWS.wav","","null","","","","","","","","","","","","","","","","","","","","","","","","","","","","","","","","","","","","","","","","","",""
"html-button-response","130","217658","0.0-4.0-1.0-1.36","3","1","wtsh5l0dngvtks7","","1499","","What sound did you hear?","0","","","1","INDUCTION-JUDGMENT","left","0","","","","","","","","","","","","","","","","","","","","","","","","","","","","","","","","","","","","",""
"html-keyboard-response","131","218664","0.0-4.0-1.0-2.36","3","1","wtsh5l0dngvtks7","","null","","<p style=""color:green;""><b>Correct!</b></p>","","null","","","","","","","","","","","","","","","","","","","","","","","","","","","","","","","","","","","","","","","","","",""
"audio-keyboard-response","132","219478","0.0-4.0-1.0-0.37","3","1","wtsh5l0dngvtks7","","null","","sounds/induction/left/ni_SWS.wav","","null","","","","","","","","","","","","","","","","","","","","","","","","","","","","","","","","","","","","","","","","","",""
"html-button-response","133","220650","0.0-4.0-1.0-1.37","3","1","wtsh5l0dngvtks7","","1169.9000000059605","","What sound did you hear?","1","","","1","INDUCTION-JUDGMENT","left","1","","","","","","","","","","","","","","","","","","","","","","","","","","","","","","","","","","","","",""
"html-keyboard-response","134","221665","0.0-4.0-1.0-2.37","3","1","wtsh5l0dngvtks7","","null","","<p style=""color:green;""><b>Correct!</b></p>","","null","","","","","","","","","","","","","","","","","","","","","","","","","","","","","","","","","","","","","","","","","",""
"audio-keyboard-response","135","222477","0.0-4.0-1.0-0.38","3","1","wtsh5l0dngvtks7","","null","","sounds/induction/right/su_SWS.wav","","null","","","","","","","","","","","","","","","","","","","","","","","","","","","","","","","","","","","","","","","","","",""
"html-button-response","136","223982","0.0-4.0-1.0-1.38","3","1","wtsh5l0dngvtks7","","1502.7000000178814","","What sound did you hear?","1","","","1","INDUCTION-JUDGMENT","right","1","","","","","","","","","","","","","","","","","","","","","","","","","","","","","","","","","","","","",""
"html-keyboard-response","137","224996","0.0-4.0-1.0-2.38","3","1","wtsh5l0dngvtks7","","null","","<p style=""color:green;""><b>Correct!</b></p>","","null","","","","","","","","","","","","","","","","","","","","","","","","","","","","","","","","","","","","","","","","","",""
"audio-keyboard-response","138","225818","0.0-4.0-1.0-0.39","3","1","wtsh5l0dngvtks7","","null","","sounds/induction/right/ge_SWS.wav","","null","","","","","","","","","","","","","","","","","","","","","","","","","","","","","","","","","","","","","","","","","",""
"html-button-response","139","227098","0.0-4.0-1.0-1.39","3","1","wtsh5l0dngvtks7","","1279","","What sound did you hear?","0","","","1","INDUCTION-JUDGMENT","right","0","","","","","","","","","","","","","","","","","","","","","","","","","","","","","","","","","","","","",""
"html-keyboard-response","140","228108","0.0-4.0-1.0-2.39","3","1","wtsh5l0dngvtks7","","null","","<p style=""color:green;""><b>Correct!</b></p>","","null","","","","","","","","","","","","","","","","","","","","","","","","","","","","","","","","","","","","","","","","","",""
"audio-keyboard-response","141","228918","0.0-4.0-1.0-0.40","3","1","wtsh5l0dngvtks7","","null","","sounds/induction/right/ko_SWS.wav","","null","","","","","","","","","","","","","","","","","","","","","","","","","","","","","","","","","","","","","","","","","",""
"html-button-response","142","230145","0.0-4.0-1.0-1.40","3","1","wtsh5l0dngvtks7","","1226.2000000178814","","What sound did you hear?","0","","","1","INDUCTION-JUDGMENT","right","0","","","","","","","","","","","","","","","","","","","","","","","","","","","","","","","","","","","","",""
"html-keyboard-response","143","231154","0.0-4.0-1.0-2.40","3","1","wtsh5l0dngvtks7","","null","","<p style=""color:green;""><b>Correct!</b></p>","","null","","","","","","","","","","","","","","","","","","","","","","","","","","","","","","","","","","","","","","","","","",""
"audio-keyboard-response","144","231977","0.0-4.0-1.0-0.41","3","1","wtsh5l0dngvtks7","","null","","sounds/induction/left/ti_SWS.wav","","null","","","","","","","","","","","","","","","","","","","","","","","","","","","","","","","","","","","","","","","","","",""
"html-button-response","145","233118","0.0-4.0-1.0-1.41","3","1","wtsh5l0dngvtks7","","1139.5999999940395","","What sound did you hear?","0","","","1","INDUCTION-JUDGMENT","left","0","","","","","","","","","","","","","","","","","","","","","","","","","","","","","","","","","","","","",""
"html-keyboard-response","146","234125","0.0-4.0-1.0-2.41","3","1","wtsh5l0dngvtks7","","null","","<p style=""color:green;""><b>Correct!</b></p>","","null","","","","","","","","","","","","","","","","","","","","","","","","","","","","","","","","","","","","","","","","","",""
"audio-keyboard-response","147","234948","0.0-4.0-1.0-0.42","3","1","wtsh5l0dngvtks7","","null","","sounds/induction/right/ni_SWS.wav","","null","","","","","","","","","","","","","","","","","","","","","","","","","","","","","","","","","","","","","","","","","",""
"html-button-response","148","235932","0.0-4.0-1.0-1.42","3","1","wtsh5l0dngvtks7","","983.5999999940395","","What sound did you hear?","0","","","1","INDUCTION-JUDGMENT","right","0","","","","","","","","","","","","","","","","","","","","","","","","","","","","","","","","","","","","",""
"html-keyboard-response","149","236941","0.0-4.0-1.0-2.42","3","1","wtsh5l0dngvtks7","","null","","<p style=""color:green;""><b>Correct!</b></p>","","null","","","","","","","","","","","","","","","","","","","","","","","","","","","","","","","","","","","","","","","","","",""
"audio-keyboard-response","150","237748","0.0-4.0-1.0-0.43","3","1","wtsh5l0dngvtks7","","null","","sounds/induction/right/fu_SWS.wav","","null","","","","","","","","","","","","","","","","","","","","","","","","","","","","","","","","","","","","","","","","","",""
"html-button-response","151","238776","0.0-4.0-1.0-1.43","3","1","wtsh5l0dngvtks7","","1026.5999999940395","","What sound did you hear?","0","","","1","INDUCTION-JUDGMENT","right","0","","","","","","","","","","","","","","","","","","","","","","","","","","","","","","","","","","","","",""
"html-keyboard-response","152","239784","0.0-4.0-1.0-2.43","3","1","wtsh5l0dngvtks7","","null","","<p style=""color:green;""><b>Correct!</b></p>","","null","","","","","","","","","","","","","","","","","","","","","","","","","","","","","","","","","","","","","","","","","",""
"audio-keyboard-response","153","240597","0.0-4.0-1.0-0.44","3","1","wtsh5l0dngvtks7","","null","","sounds/induction/left/ko_SWS.wav","","null","","","","","","","","","","","","","","","","","","","","","","","","","","","","","","","","","","","","","","","","","",""
"html-button-response","154","241576","0.0-4.0-1.0-1.44","3","1","wtsh5l0dngvtks7","","977.3000000119209","","What sound did you hear?","0","","","0","INDUCTION-JUDGMENT","left","1","","","","","","","","","","","","","","","","","","","","","","","","","","","","","","","","","","","","",""
"html-keyboard-response","155","242579","0.0-4.0-1.0-2.44","3","1","wtsh5l0dngvtks7","","null","","<p style=""color:red;""><b>Incorrect!</b></p>","","null","","","","","","","","","","","","","","","","","","","","","","","","","","","","","","","","","","","","","","","","","",""
"audio-keyboard-response","156","243388","0.0-4.0-1.0-0.45","3","1","wtsh5l0dngvtks7","","null","","sounds/induction/left/ti_SWS.wav","","null","","","","","","","","","","","","","","","","","","","","","","","","","","","","","","","","","","","","","","","","","",""
"html-button-response","157","244470","0.0-4.0-1.0-1.45","3","1","wtsh5l0dngvtks7","","1080.800000011921","","What sound did you hear?","0","","","1","INDUCTION-JUDGMENT","left","0","","","","","","","","","","","","","","","","","","","","","","","","","","","","","","","","","","","","",""
"html-keyboard-response","158","245478","0.0-4.0-1.0-2.45","3","1","wtsh5l0dngvtks7","","null","","<p style=""color:green;""><b>Correct!</b></p>","","null","","","","","","","","","","","","","","","","","","","","","","","","","","","","","","","","","","","","","","","","","",""
"audio-keyboard-response","159","246298","0.0-4.0-1.0-0.46","3","1","wtsh5l0dngvtks7","","null","","sounds/induction/right/re_SWS.wav","","null","","","","","","","","","","","","","","","","","","","","","","","","","","","","","","","","","","","","","","","","","",""
"html-button-response","160","247748","0.0-4.0-1.0-1.46","3","1","wtsh5l0dngvtks7","","1448.7999999821186","","What sound did you hear?","1","","","1","INDUCTION-JUDGMENT","right","1","","","","","","","","","","","","","","","","","","","","","","","","","","","","","","","","","","","","",""
"html-keyboard-response","161","248761","0.0-4.0-1.0-2.46","3","1","wtsh5l0dngvtks7","","null","","<p style=""color:green;""><b>Correct!</b></p>","","null","","","","","","","","","","","","","","","","","","","","","","","","","","","","","","","","","","","","","","","","","",""
"audio-keyboard-response","162","249577","0.0-4.0-1.0-0.47","3","1","wtsh5l0dngvtks7","","null","","sounds/induction/right/fe_SWS.wav","","null","","","","","","","","","","","","","","","","","","","","","","","","","","","","","","","","","","","","","","","","","",""
"html-button-response","163","250646","0.0-4.0-1.0-1.47","3","1","wtsh5l0dngvtks7","","1066.8999999761581","","What sound did you hear?","0","","","1","INDUCTION-JUDGMENT","right","0","","","","","","","","","","","","","","","","","","","","","","","","","","","","","","","","","","","","",""
"html-keyboard-response","164","251654","0.0-4.0-1.0-2.47","3","1","wtsh5l0dngvtks7","","null","","<p style=""color:green;""><b>Correct!</b></p>","","null","","","","","","","","","","","","","","","","","","","","","","","","","","","","","","","","","","","","","","","","","",""
"html-button-response","165","263607","0.0-5.0-0.0","3","1","wtsh5l0dngvtks7","","11440.199999988079","","<p>Thank you for your answers.</p><p>You will now listen to similar sounds. The main difference is that the sounds will be longer and will make up complete sentences.</p><p>Please listen carefully to each sentence. After each sentence, you will be asked to type back what you heard to the best of your ability. After you provide your response, you will be given feedback about the correct answer.</p><p>There are 10 sentences in total.","0","","","","","","","","","","","","","","","","","","","","","","","","","","","","","","","","","","","","","","","","","","",""
"audio-keyboard-response","166","266348","0.0-5.0-1.0-0.0","3","1","wtsh5l0dngvtks7","","null","","sounds/sentences/right/14_09_cfSWS.wav","","null","","","","","","","","","","","","","","","","","","","","","","","","","","","","","","","","","","","","","","","","","",""
"sentence-resp","167","278987","0.0-5.0-1.0-1.0","3","1","wtsh5l0dngvtks7","","12637","","","","","","","SWS-SENT-RESPONSE","","","{""Q0"":""weee wa wee ooo waa ee""}","We frown when events take a bad turn.","frown,events,take,bad,turn","WEEE WA WEE OOO WAA EE","0","0","0","0","0","0","0","","","","","","","","","","","","","","","","","","","","","","","","","",""
"html-keyboard-response","168","280241","0.0-5.0-1.0-2.0","3","1","wtsh5l0dngvtks7","","null","","","","null","","","","","","","","","","","","","","","","","","","","","","","","","","","","","","","","","","","","","","","","","",""
"audio-keyboard-response","169","282468","0.0-5.0-1.0-3.0","3","1","wtsh5l0dngvtks7","","null","","sounds/sentences/right/14_09_cfSWS.wav","","null","","","","","","","","","","","","","","","","","","","","","","","","","","","","","","","","","","","","","","","","","",""
"html-keyboard-response","170","283482","0.0-5.0-1.0-4.0","3","1","wtsh5l0dngvtks7","","null","","","","null","","","","","","","","","","","","","","","","","","","","","","","","","","","","","","","","","","","","","","","","","",""
"html-button-response","171","285756","0.0-5.0-1.0-5.0","3","1","wtsh5l0dngvtks7","","1761.1000000238419","","<p>Press the button below when you are ready to continue.</p>","0","","","","","","","","","","","","","","","","","","","","","","","","","","","","","","","","","","","","","","","","","","",""
"audio-keyboard-response","172","288518","0.0-5.0-1.0-0.1","3","1","wtsh5l0dngvtks7","","null","","sounds/sentences/right/14_06_cfSWS.wav","","null","","","","","","","","","","","","","","","","","","","","","","","","","","","","","","","","","","","","","","","","","",""
"sentence-resp","173","291446","0.0-5.0-1.0-1.1","3","1","wtsh5l0dngvtks7","","2925","","","","","","","SWS-SENT-RESPONSE","","","{""Q0"":""""}","Bring your problems to the wise chief.","bring,your,problems,wise,chief","","0","0","0","0","0","0","0","","","","","","","","","","","","","","","","","","","","","","","","","",""
"html-keyboard-response","174","292718","0.0-5.0-1.0-2.1","3","1","wtsh5l0dngvtks7","","null","","","","null","","","","","","","","","","","","","","","","","","","","","","","","","","","","","","","","","","","","","","","","","",""
"audio-keyboard-response","175","294968","0.0-5.0-1.0-3.1","3","1","wtsh5l0dngvtks7","","null","","sounds/sentences/right/14_06_cfSWS.wav","","null","","","","","","","","","","","","","","","","","","","","","","","","","","","","","","","","","","","","","","","","","",""
"html-keyboard-response","176","295984","0.0-5.0-1.0-4.1","3","1","wtsh5l0dngvtks7","","null","","","","null","","","","","","","","","","","","","","","","","","","","","","","","","","","","","","","","","","","","","","","","","",""
"html-button-response","177","297993","0.0-5.0-1.0-5.1","3","1","wtsh5l0dngvtks7","","1495","","<p>Press the button below when you are ready to continue.</p>","0","","","","","","","","","","","","","","","","","","","","","","","","","","","","","","","","","","","","","","","","","","",""
"audio-keyboard-response","178","300997","0.0-5.0-1.0-0.2","3","1","wtsh5l0dngvtks7","","null","","sounds/sentences/left/14_05_cfSWS.wav","","null","","","","","","","","","","","","","","","","","","","","","","","","","","","","","","","","","","","","","","","","","",""
"sentence-resp","179","316318","0.0-5.0-1.0-1.2","3","1","wtsh5l0dngvtks7","","15319","","","","","","","SWS-SENT-RESPONSE","","","{""Q0"":""wee wooo waa eyes to the sleep url""}","The glow deepened in the eyes of the sweet girl.","glow,deepened,eyes,sweet,girl","WEE WOOO WAA EYES TO THE SLEEP URL","0","0","1","0","0","1","0.2","","","","","","","","","","","","","","","","","","","","","","","","","",""
"html-keyboard-response","180","317573","0.0-5.0-1.0-2.2","3","1","wtsh5l0dngvtks7","","null","","","","null","","","","","","","","","","","","","","","","","","","","","","","","","","","","","","","","","","","","","","","","","",""
"audio-keyboard-response","181","320058","0.0-5.0-1.0-3.2","3","1","wtsh5l0dngvtks7","","null","","sounds/sentences/left/14_05_cfSWS.wav","","null","","","","","","","","","","","","","","","","","","","","","","","","","","","","","","","","","","","","","","","","","",""
"html-keyboard-response","182","321059","0.0-5.0-1.0-4.2","3","1","wtsh5l0dngvtks7","","null","","","","null","","","","","","","","","","","","","","","","","","","","","","","","","","","","","","","","","","","","","","","","","",""
"html-button-response","183","322907","0.0-5.0-1.0-5.2","3","1","wtsh5l0dngvtks7","","1344.5999999940395","","<p>Press the button below when you are ready to continue.</p>","0","","","","","","","","","","","","","","","","","","","","","","","","","","","","","","","","","","","","","","","","","","",""
"audio-keyboard-response","184","325808","0.0-5.0-1.0-0.3","3","1","wtsh5l0dngvtks7","","null","","sounds/sentences/right/14_07_cfSWS.wav","","null","","","","","","","","","","","","","","","","","","","","","","","","","","","","","","","","","","","","","","","","","",""
"sentence-resp","185","327698","0.0-5.0-1.0-1.3","3","1","wtsh5l0dngvtks7","","1887","","","","","","","SWS-SENT-RESPONSE","","","{""Q0"":""""}","Write a fond note to the friend you cherish.","write,fond,note,friend,cherish","","0","0","0","0","0","0","0","","","","","","","","","","","","","","","","","","","","","","","","","",""
"html-keyboard-response","186","328968","0.0-5.0-1.0-2.3","3","1","wtsh5l0dngvtks7","","null","","","","null","","","","","","","","","","","","","","","","","","","","","","","","","","","","","","","","","","","","","","","","","",""
"audio-keyboard-response","187","331358","0.0-5.0-1.0-3.3","3","1","wtsh5l0dngvtks7","","null","","sounds/sentences/right/14_07_cfSWS.wav","","null","","","","","","","","","","","","","","","","","","","","","","","","","","","","","","","","","","","","","","","","","",""
"html-keyboard-response","188","332359","0.0-5.0-1.0-4.3","3","1","wtsh5l0dngvtks7","","null","","","","null","","","","","","","","","","","","","","","","","","","","","","","","","","","","","","","","","","","","","","","","","",""
"html-button-response","189","334334","0.0-5.0-1.0-5.3","3","1","wtsh5l0dngvtks7","","1473.4000000059605","","<p>Press the button below when you are ready to continue.</p>","0","","","","","","","","","","","","","","","","","","","","","","","","","","","","","","","","","","","","","","","","","","",""
"audio-keyboard-response","190","337158","0.0-5.0-1.0-0.4","3","1","wtsh5l0dngvtks7","","null","","sounds/sentences/left/14_02_cfSWS.wav","","null","","","","","","","","","","","","","","","","","","","","","","","","","","","","","","","","","","","","","","","","","",""
"sentence-resp","191","345787","0.0-5.0-1.0-1.4","3","1","wtsh5l0dngvtks7","","8626","","","","","","","SWS-SENT-RESPONSE","","","{""Q0"":""say the same thing thirty times""}","He said the same phrase thirty times.","said,same,phrase,thirty,times","SAY THE SAME THING THIRTY TIMES","0","1","0","1","1","3","0.6","","","","","","","","","","","","","","","","","","","","","","","","","",""
"html-keyboard-response","192","347049","0.0-5.0-1.0-2.4","3","1","wtsh5l0dngvtks7","","null","","","","null","","","","","","","","","","","","","","","","","","","","","","","","","","","","","","","","","","","","","","","","","",""
"audio-keyboard-response","193","349367","0.0-5.0-1.0-3.4","3","1","wtsh5l0dngvtks7","","null","","sounds/sentences/left/14_02_cfSWS.wav","","null","","","","","","","","","","","","","","","","","","","","","","","","","","","","","","","","","","","","","","","","","",""
"html-keyboard-response","194","350369","0.0-5.0-1.0-4.4","3","1","wtsh5l0dngvtks7","","null","","","","null","","","","","","","","","","","","","","","","","","","","","","","","","","","","","","","","","","","","","","","","","",""
"html-button-response","195","351520","0.0-5.0-1.0-5.4","3","1","wtsh5l0dngvtks7","","647.1999999880791","","<p>Press the button below when you are ready to continue.</p>","0","","","","","","","","","","","","","","","","","","","","","","","","","","","","","","","","","","","","","","","","","","",""
"audio-keyboard-response","196","354288","0.0-5.0-1.0-0.5","3","1","wtsh5l0dngvtks7","","null","","sounds/sentences/right/14_08_cfSWS.wav","","null","","","","","","","","","","","","","","","","","","","","","","","","","","","","","","","","","","","","","","","","","",""
"sentence-resp","197","373580","0.0-5.0-1.0-1.5","3","1","wtsh5l0dngvtks7","","19290","","","","","","","SWS-SENT-RESPONSE","","","{""Q0"":""something something inside your limbs""}","Clothes and lodging are free to new men.","clothes,lodging,free,new,men","SOMETHING SOMETHING INSIDE YOUR LIMBS","0","0","0","0","0","0","0","","","","","","","","","","","","","","","","","","","","","","","","","",""
"html-keyboard-response","198","374842","0.0-5.0-1.0-2.5","3","1","wtsh5l0dngvtks7","","null","","","","null","","","","","","","","","","","","","","","","","","","","","","","","","","","","","","","","","","","","","","","","","",""
"audio-keyboard-response","199","377098","0.0-5.0-1.0-3.5","3","1","wtsh5l0dngvtks7","","null","","sounds/sentences/right/14_08_cfSWS.wav","","null","","","","","","","","","","","","","","","","","","","","","","","","","","","","","","","","","","","","","","","","","",""
"html-keyboard-response","200","378100","0.0-5.0-1.0-4.5","3","1","wtsh5l0dngvtks7","","null","","","","null","","","","","","","","","","","","","","","","","","","","","","","","","","","","","","","","","","","","","","","","","",""
"html-button-response","201","379460","0.0-5.0-1.0-5.5","3","1","wtsh5l0dngvtks7","","857.7999999821186","","<p>Press the button below when you are ready to continue.</p>","0","","","","","","","","","","","","","","","","","","","","","","","","","","","","","","","","","","","","","","","","","","",""
"audio-keyboard-response","202","382058","0.0-5.0-1.0-0.6","3","1","wtsh5l0dngvtks7","","null","","sounds/sentences/left/14_03_cfSWS.wav","","null","","","","","","","","","","","","","","","","","","","","","","","","","","","","","","","","","","","","","","","","","",""
"sentence-resp","203","393794","0.0-5.0-1.0-1.6","3","1","wtsh5l0dngvtks7","","11733","","","","","","","SWS-SENT-RESPONSE","","","{""Q0"":""urns without leaves""}","Pluck the bright rose without leaves.","pluck,bright,rose,without,leaves","URNS WITHOUT LEAVES","0","0","0","1","1","2","0.4","","","","","","","","","","","","","","","","","","","","","","","","","",""
"html-keyboard-response","204","395060","0.0-5.0-1.0-2.6","3","1","wtsh5l0dngvtks7","","null","","","","null","","","","","","","","","","","","","","","","","","","","","","","","","","","","","","","","","","","","","","","","","",""
"audio-keyboard-response","205","397148","0.0-5.0-1.0-3.6","3","1","wtsh5l0dngvtks7","","null","","sounds/sentences/left/14_03_cfSWS.wav","","null","","","","","","","","","","","","","","","","","","","","","","","","","","","","","","","","","","","","","","","","","",""
"html-keyboard-response","206","398162","0.0-5.0-1.0-4.6","3","1","wtsh5l0dngvtks7","","null","","","","null","","","","","","","","","","","","","","","","","","","","","","","","","","","","","","","","","","","","","","","","","",""
"html-button-response","207","399693","0.0-5.0-1.0-5.6","3","1","wtsh5l0dngvtks7","","1028.8999999761581","","<p>Press the button below when you are ready to continue.</p>","0","","","","","","","","","","","","","","","","","","","","","","","","","","","","","","","","","","","","","","","","","","",""
"audio-keyboard-response","208","402818","0.0-5.0-1.0-0.7","3","1","wtsh5l0dngvtks7","","null","","sounds/sentences/left/14_01_cfSWS.wav","","null","","","","","","","","","","","","","","","","","","","","","","","","","","","","","","","","","","","","","","","","","",""
"sentence-resp","209","404488","0.0-5.0-1.0-1.7","3","1","wtsh5l0dngvtks7","","1667","","","","","","","SWS-SENT-RESPONSE","","","{""Q0"":""""}","A cramp is no small danger on a swim.","cramp,no,small,danger,swim","","0","0","0","0","0","0","0","","","","","","","","","","","","","","","","","","","","","","","","","",""
"html-keyboard-response","210","405756","0.0-5.0-1.0-2.7","3","1","wtsh5l0dngvtks7","","null","","","","null","","","","","","","","","","","","","","","","","","","","","","","","","","","","","","","","","","","","","","","","","",""
"audio-keyboard-response","211","408369","0.0-5.0-1.0-3.7","3","1","wtsh5l0dngvtks7","","null","","sounds/sentences/left/14_01_cfSWS.wav","","null","","","","","","","","","","","","","","","","","","","","","","","","","","","","","","","","","","","","","","","","","",""
"html-keyboard-response","212","409370","0.0-5.0-1.0-4.7","3","1","wtsh5l0dngvtks7","","null","","","","null","","","","","","","","","","","","","","","","","","","","","","","","","","","","","","","","","","","","","","","","","",""
"html-button-response","213","411298","0.0-5.0-1.0-5.7","3","1","wtsh5l0dngvtks7","","1426.4000000059605","","<p>Press the button below when you are ready to continue.</p>","0","","","","","","","","","","","","","","","","","","","","","","","","","","","","","","","","","","","","","","","","","","",""
"audio-keyboard-response","214","414328","0.0-5.0-1.0-0.8","3","1","wtsh5l0dngvtks7","","null","","sounds/sentences/right/14_10_cfSWS.wav","","null","","","","","","","","","","","","","","","","","","","","","","","","","","","","","","","","","","","","","","","","","",""
"sentence-resp","215","421546","0.0-5.0-1.0-1.8","3","1","wtsh5l0dngvtks7","","7216","","","","","","","SWS-SENT-RESPONSE","","","{""Q0"":""strong wives ""}","Port is a strong wine with a smoky taste.","port,strong,wine,smoky,taste","STRONG WIVES ","0","1","0","0","0","1","0.2","","","","","","","","","","","","","","","","","","","","","","","","","",""
"html-keyboard-response","216","422822","0.0-5.0-1.0-2.8","3","1","wtsh5l0dngvtks7","","null","","","","null","","","","","","","","","","","","","","","","","","","","","","","","","","","","","","","","","","","","","","","","","",""
"audio-keyboard-response","217","425337","0.0-5.0-1.0-3.8","3","1","wtsh5l0dngvtks7","","null","","sounds/sentences/right/14_10_cfSWS.wav","","null","","","","","","","","","","","","","","","","","","","","","","","","","","","","","","","","","","","","","","","","","",""
"html-keyboard-response","218","426338","0.0-5.0-1.0-4.8","3","1","wtsh5l0dngvtks7","","null","","","","null","","","","","","","","","","","","","","","","","","","","","","","","","","","","","","","","","","","","","","","","","",""
"html-button-response","219","428350","0.0-5.0-1.0-5.8","3","1","wtsh5l0dngvtks7","","1509.699999988079","","<p>Press the button below when you are ready to continue.</p>","0","","","","","","","","","","","","","","","","","","","","","","","","","","","","","","","","","","","","","","","","","","",""
"audio-keyboard-response","220","430917","0.0-5.0-1.0-0.9","3","1","wtsh5l0dngvtks7","","null","","sounds/sentences/left/14_04_cfSWS.wav","","null","","","","","","","","","","","","","","","","","","","","","","","","","","","","","","","","","","","","","","","","","",""
"sentence-resp","221","435092","0.0-5.0-1.0-1.9","3","1","wtsh5l0dngvtks7","","4173","","","","","","","SWS-SENT-RESPONSE","","","{""Q0"":""less in the end""}","Two plus seven is less than ten.","two,plus,seven,less,ten","LESS IN THE END","0","0","0","1","0","1","0.2","","","","","","","","","","","","","","","","","","","","","","","","","",""
"html-keyboard-response","222","436353","0.0-5.0-1.0-2.9","3","1","wtsh5l0dngvtks7","","null","","","","null","","","","","","","","","","","","","","","","","","","","","","","","","","","","","","","","","","","","","","","","","",""
"audio-keyboard-response","223","438408","0.0-5.0-1.0-3.9","3","1","wtsh5l0dngvtks7","","null","","sounds/sentences/left/14_04_cfSWS.wav","","null","","","","","","","","","","","","","","","","","","","","","","","","","","","","","","","","","","","","","","","","","",""
"html-keyboard-response","224","439409","0.0-5.0-1.0-4.9","3","1","wtsh5l0dngvtks7","","null","","","","null","","","","","","","","","","","","","","","","","","","","","","","","","","","","","","","","","","","","","","","","","",""
"html-button-response","225","440648","0.0-5.0-1.0-5.9","3","1","wtsh5l0dngvtks7","","737.5","","<p>Press the button below when you are ready to continue.</p>","0","","","","","","","","","","","","","","","","","","","","","","","","","","","","","","","","","","","","","","","","","","",""
"html-keyboard-response","226","458401","0.0-6.0-0.0","3","1","wtsh5l0dngvtks7","","17244.600000023842","","<p>In this part of the study, you will hear sounds similar to those you just heard.</p><p>Please focus on these sounds, as you may be asked questions about them later.</p><p>Occasionally, the sounds will pause for up to two seconds. When this happens, please press SPACEBAR as quickly as you can.</br>This helps ensure that you are paying attention to the sounds.</p><p>This part of the study will take about 12 minutes to complete, and you will be given the opportunity to take a couple of short breaks every few minutes.</p><p><strong>Press SPACEBAR to begin</strong></p>","","32","","","","","","","","","","","","","","","","","","","","","","","","","","","","","","","","","","","","","","","","","",""
"html-keyboard-response","227","459416","0.0-6.0-1.0-0.0","3","1","wtsh5l0dngvtks7","","null","","<p style=""font-size: 40px;"">+</p>","","null","","","","","","","","","","","","","","","","","","","","","","","","","","","","","","","","","","","","","","","","","",""
"html-keyboard-response","228","644422","0.0-6.0-1.0-1.0","3","1","wtsh5l0dngvtks7","","null","","","","null","","","SL-TRAIN","","","","","","","","","","","","","","0","1883.0999999940395","1945.9000000059605","sounds/C/TRAIN/SEQ__08.mp3","9","","","","","","","","","","","","","","","","","","","","",""
"html-button-response","229","646626","0.0-6.0-1.0-2.0","3","1","wtsh5l0dngvtks7","","2202.2000000178814","","<p>You may take a short break if you wish.</p>","0","","","","","","","","","","","","","","","","","","","","","","","","","","","","","","","","","","","","","","","","","","",""
"html-keyboard-response","230","647627","0.0-6.0-1.0-3.0","3","1","wtsh5l0dngvtks7","","null","","<p style=""font-size: 40px;"">+</p>","","null","","","","","","","","","","","","","","","","","","","","","","","","","","","","","","","","","","","","","","","","","",""
"html-keyboard-response","231","832632","0.0-6.0-1.0-4.0","3","1","wtsh5l0dngvtks7","","null","","","","null","","","SL-TRAIN","","","","","","","","","","","","","","0","1940.9000000059605","1411.199999988079","sounds/C/TRAIN/SEQ__12.mp3","27","","","","","","","","","","","","","","","","","","","","",""
"html-button-response","232","836082","0.0-6.0-1.0-5.0","3","1","wtsh5l0dngvtks7","","3448.5999999940395","","<p>You may take a short break if you wish.</p>","0","","","","","","","","","","","","","","","","","","","","","","","","","","","","","","","","","","","","","","","","","","",""
"html-keyboard-response","233","837084","0.0-6.0-1.0-6.0","3","1","wtsh5l0dngvtks7","","null","","<p style=""font-size: 40px;"">+</p>","","null","","","","","","","","","","","","","","","","","","","","","","","","","","","","","","","","","","","","","","","","","",""
"html-keyboard-response","234","1022090","0.0-6.0-1.0-7.0","3","1","wtsh5l0dngvtks7","","null","","","","null","","","SL-TRAIN","","","","","","","","","","","","","","0","1773.2999999821186","1983.2999999821186","sounds/C/TRAIN/SEQ__04.mp3","42","","","","","","","","","","","","","","","","","","","","",""
"html-button-response","235","1027788","0.0-6.0-1.0-8.0","3","1","wtsh5l0dngvtks7","","5696.300000011921","","<p>You may take a short break if you wish.</p>","0","","","","","","","","","","","","","","","","","","","","","","","","","","","","","","","","","","","","","","","","","","",""
"html-keyboard-response","236","1028790","0.0-6.0-1.0-9.0","3","1","wtsh5l0dngvtks7","","null","","<p style=""font-size: 40px;"">+</p>","","null","","","","","","","","","","","","","","","","","","","","","","","","","","","","","","","","","","","","","","","","","",""
"html-keyboard-response","237","1213821","0.0-6.0-1.0-10.0","3","1","wtsh5l0dngvtks7","","null","","","","null","","","SL-TRAIN","","","","","","","","","","","","","","1","null","1869.3999999761581","sounds/C/TRAIN/SEQ__11.mp3","15","","","","","","","","","","","","","","","","","","","","",""
"html-button-response","238","1244864","0.0-6.0-1.0-11.0","3","1","wtsh5l0dngvtks7","","31023.29999998212","","<p>You may take a short break if you wish.</p>","0","","","","","","","","","","","","","","","","","","","","","","","","","","","","","","","","","","","","","","","","","","",""
"html-button-response","239","1255857","0.0-7.0-0.0","3","1","wtsh5l0dngvtks7","","10989","","<p>Welcome to the second part of the study. This is a <u>familiarity task</u>.</p><p>You will now hear short sounds and will be asked to rate how familiar they sound to you <b>based on what you heard in the previous part of the study</b>.</p><p>You will rate 12 sounds in total.</p>","0","","","","","","","","","","","","","","","","","","","","","","","","","","","","","","","","","","","","","","","","","","",""
"html-keyboard-response","240","1256865","0.0-7.0-1.0-0.0","3","1","wtsh5l0dngvtks7","","null","","","","null","","","","","","","","","","","","","","","","","","","","","","","","","","","","","","","","","","","","","","","","","",""
"audio-keyboard-response","241","1257846","0.0-7.0-1.0-1.0","3","1","wtsh5l0dngvtks7","","null","","sounds/C/FAM/W004.mp3","","null","","","","","","","","","","","","","","","","","","","","","","","","","","","","","","","","","","","","","","","","","",""
"html-keyboard-response","242","1263323","0.0-7.0-1.0-2.0","3","1","wtsh5l0dngvtks7","","4960.0999999940395","","<p>How familiar did this sound to you?</p><p>1&nbsp;&nbsp;&nbsp;&nbsp;&nbsp;&nbsp;&nbsp;&nbsp;&nbsp;&nbsp;&nbsp;&nbsp;&nbsp;&nbsp;&nbsp;&nbsp;&nbsp;&nbsp;&nbsp;2&nbsp;&nbsp;&nbsp;&nbsp;&nbsp;&nbsp;&nbsp;&nbsp;&nbsp;&nbsp;&nbsp;&nbsp;&nbsp;&nbsp;&nbsp;&nbsp;&nbsp;&nbsp;&nbsp;3&nbsp;&nbsp;&nbsp;&nbsp;&nbsp;&nbsp;&nbsp;&nbsp;&nbsp;&nbsp;&nbsp;&nbsp;&nbsp;&nbsp;&nbsp;&nbsp;&nbsp;&nbsp;&nbsp;4</p><p style=""font-size:14px"">Not at all familiar&nbsp;&nbsp;&nbsp;&nbsp;A little familiar&nbsp;&nbsp;&nbsp;Moderately familiar&nbsp;&nbsp;&nbsp;Extremely familiar</p><p>(press the corresponding number on your keyboard)</p>","","52","","","FAM-RESPONSE","","","","","","","","","","","","","","","","","","","sounds/C/FAM/W004.mp3","word","","","","","","","","","","","","","","","","","","",""
"html-keyboard-response","243","1265327","0.0-7.0-1.0-0.1","3","1","wtsh5l0dngvtks7","","null","","","","null","","","","","","","","","","","","","","","","","","","","","","","","","","","","","","","","","","","","","","","","","",""
"audio-keyboard-response","244","1266278","0.0-7.0-1.0-1.1","3","1","wtsh5l0dngvtks7","","null","","sounds/C/FAM/N002.mp3","","null","","","","","","","","","","","","","","","","","","","","","","","","","","","","","","","","","","","","","","","","","",""
"html-keyboard-response","245","1267798","0.0-7.0-1.0-2.1","3","1","wtsh5l0dngvtks7","","1012.9000000059605","","<p>How familiar did this sound to you?</p><p>1&nbsp;&nbsp;&nbsp;&nbsp;&nbsp;&nbsp;&nbsp;&nbsp;&nbsp;&nbsp;&nbsp;&nbsp;&nbsp;&nbsp;&nbsp;&nbsp;&nbsp;&nbsp;&nbsp;2&nbsp;&nbsp;&nbsp;&nbsp;&nbsp;&nbsp;&nbsp;&nbsp;&nbsp;&nbsp;&nbsp;&nbsp;&nbsp;&nbsp;&nbsp;&nbsp;&nbsp;&nbsp;&nbsp;3&nbsp;&nbsp;&nbsp;&nbsp;&nbsp;&nbsp;&nbsp;&nbsp;&nbsp;&nbsp;&nbsp;&nbsp;&nbsp;&nbsp;&nbsp;&nbsp;&nbsp;&nbsp;&nbsp;4</p><p style=""font-size:14px"">Not at all familiar&nbsp;&nbsp;&nbsp;&nbsp;A little familiar&nbsp;&nbsp;&nbsp;Moderately familiar&nbsp;&nbsp;&nbsp;Extremely familiar</p><p>(press the corresponding number on your keyboard)</p>","","50","","","FAM-RESPONSE","","","","","","","","","","","","","","","","","","","sounds/C/FAM/N002.mp3","nonword","","","","","","","","","","","","","","","","","","",""
"html-keyboard-response","246","1269815","0.0-7.0-1.0-0.2","3","1","wtsh5l0dngvtks7","","null","","","","null","","","","","","","","","","","","","","","","","","","","","","","","","","","","","","","","","","","","","","","","","",""
"audio-keyboard-response","247","1270758","0.0-7.0-1.0-1.2","3","1","wtsh5l0dngvtks7","","null","","sounds/C/FAM/W001.mp3","","null","","","","","","","","","","","","","","","","","","","","","","","","","","","","","","","","","","","","","","","","","",""
"html-keyboard-response","248","1274285","0.0-7.0-1.0-2.2","3","1","wtsh5l0dngvtks7","","3026","","<p>How familiar did this sound to you?</p><p>1&nbsp;&nbsp;&nbsp;&nbsp;&nbsp;&nbsp;&nbsp;&nbsp;&nbsp;&nbsp;&nbsp;&nbsp;&nbsp;&nbsp;&nbsp;&nbsp;&nbsp;&nbsp;&nbsp;2&nbsp;&nbsp;&nbsp;&nbsp;&nbsp;&nbsp;&nbsp;&nbsp;&nbsp;&nbsp;&nbsp;&nbsp;&nbsp;&nbsp;&nbsp;&nbsp;&nbsp;&nbsp;&nbsp;3&nbsp;&nbsp;&nbsp;&nbsp;&nbsp;&nbsp;&nbsp;&nbsp;&nbsp;&nbsp;&nbsp;&nbsp;&nbsp;&nbsp;&nbsp;&nbsp;&nbsp;&nbsp;&nbsp;4</p><p style=""font-size:14px"">Not at all familiar&nbsp;&nbsp;&nbsp;&nbsp;A little familiar&nbsp;&nbsp;&nbsp;Moderately familiar&nbsp;&nbsp;&nbsp;Extremely familiar</p><p>(press the corresponding number on your keyboard)</p>","","51","","","FAM-RESPONSE","","","","","","","","","","","","","","","","","","","sounds/C/FAM/W001.mp3","word","","","","","","","","","","","","","","","","","","",""
"html-keyboard-response","249","1276294","0.0-7.0-1.0-0.3","3","1","wtsh5l0dngvtks7","","null","","","","null","","","","","","","","","","","","","","","","","","","","","","","","","","","","","","","","","","","","","","","","","",""
"audio-keyboard-response","250","1277238","0.0-7.0-1.0-1.3","3","1","wtsh5l0dngvtks7","","null","","sounds/C/FAM/N004.mp3","","null","","","","","","","","","","","","","","","","","","","","","","","","","","","","","","","","","","","","","","","","","",""
"html-keyboard-response","251","1278326","0.0-7.0-1.0-2.3","3","1","wtsh5l0dngvtks7","","584","","<p>How familiar did this sound to you?</p><p>1&nbsp;&nbsp;&nbsp;&nbsp;&nbsp;&nbsp;&nbsp;&nbsp;&nbsp;&nbsp;&nbsp;&nbsp;&nbsp;&nbsp;&nbsp;&nbsp;&nbsp;&nbsp;&nbsp;2&nbsp;&nbsp;&nbsp;&nbsp;&nbsp;&nbsp;&nbsp;&nbsp;&nbsp;&nbsp;&nbsp;&nbsp;&nbsp;&nbsp;&nbsp;&nbsp;&nbsp;&nbsp;&nbsp;3&nbsp;&nbsp;&nbsp;&nbsp;&nbsp;&nbsp;&nbsp;&nbsp;&nbsp;&nbsp;&nbsp;&nbsp;&nbsp;&nbsp;&nbsp;&nbsp;&nbsp;&nbsp;&nbsp;4</p><p style=""font-size:14px"">Not at all familiar&nbsp;&nbsp;&nbsp;&nbsp;A little familiar&nbsp;&nbsp;&nbsp;Moderately familiar&nbsp;&nbsp;&nbsp;Extremely familiar</p><p>(press the corresponding number on your keyboard)</p>","","50","","","FAM-RESPONSE","","","","","","","","","","","","","","","","","","","sounds/C/FAM/N004.mp3","nonword","","","","","","","","","","","","","","","","","","",""
"html-keyboard-response","252","1280338","0.0-7.0-1.0-0.4","3","1","wtsh5l0dngvtks7","","null","","","","null","","","","","","","","","","","","","","","","","","","","","","","","","","","","","","","","","","","","","","","","","",""
"audio-keyboard-response","253","1281278","0.0-7.0-1.0-1.4","3","1","wtsh5l0dngvtks7","","null","","sounds/C/FAM/N003.mp3","","null","","","","","","","","","","","","","","","","","","","","","","","","","","","","","","","","","","","","","","","","","",""
"html-keyboard-response","254","1282152","0.0-7.0-1.0-2.4","3","1","wtsh5l0dngvtks7","","367.69999998807907","","<p>How familiar did this sound to you?</p><p>1&nbsp;&nbsp;&nbsp;&nbsp;&nbsp;&nbsp;&nbsp;&nbsp;&nbsp;&nbsp;&nbsp;&nbsp;&nbsp;&nbsp;&nbsp;&nbsp;&nbsp;&nbsp;&nbsp;2&nbsp;&nbsp;&nbsp;&nbsp;&nbsp;&nbsp;&nbsp;&nbsp;&nbsp;&nbsp;&nbsp;&nbsp;&nbsp;&nbsp;&nbsp;&nbsp;&nbsp;&nbsp;&nbsp;3&nbsp;&nbsp;&nbsp;&nbsp;&nbsp;&nbsp;&nbsp;&nbsp;&nbsp;&nbsp;&nbsp;&nbsp;&nbsp;&nbsp;&nbsp;&nbsp;&nbsp;&nbsp;&nbsp;4</p><p style=""font-size:14px"">Not at all familiar&nbsp;&nbsp;&nbsp;&nbsp;A little familiar&nbsp;&nbsp;&nbsp;Moderately familiar&nbsp;&nbsp;&nbsp;Extremely familiar</p><p>(press the corresponding number on your keyboard)</p>","","49","","","FAM-RESPONSE","","","","","","","","","","","","","","","","","","","sounds/C/FAM/N003.mp3","nonword","","","","","","","","","","","","","","","","","","",""
"html-keyboard-response","255","1284174","0.0-7.0-1.0-0.5","3","1","wtsh5l0dngvtks7","","null","","","","null","","","","","","","","","","","","","","","","","","","","","","","","","","","","","","","","","","","","","","","","","",""
"audio-keyboard-response","256","1285118","0.0-7.0-1.0-1.5","3","1","wtsh5l0dngvtks7","","null","","sounds/C/FAM/N001.mp3","","null","","","","","","","","","","","","","","","","","","","","","","","","","","","","","","","","","","","","","","","","","",""
"html-keyboard-response","257","1286118","0.0-7.0-1.0-2.5","3","1","wtsh5l0dngvtks7","","496","","<p>How familiar did this sound to you?</p><p>1&nbsp;&nbsp;&nbsp;&nbsp;&nbsp;&nbsp;&nbsp;&nbsp;&nbsp;&nbsp;&nbsp;&nbsp;&nbsp;&nbsp;&nbsp;&nbsp;&nbsp;&nbsp;&nbsp;2&nbsp;&nbsp;&nbsp;&nbsp;&nbsp;&nbsp;&nbsp;&nbsp;&nbsp;&nbsp;&nbsp;&nbsp;&nbsp;&nbsp;&nbsp;&nbsp;&nbsp;&nbsp;&nbsp;3&nbsp;&nbsp;&nbsp;&nbsp;&nbsp;&nbsp;&nbsp;&nbsp;&nbsp;&nbsp;&nbsp;&nbsp;&nbsp;&nbsp;&nbsp;&nbsp;&nbsp;&nbsp;&nbsp;4</p><p style=""font-size:14px"">Not at all familiar&nbsp;&nbsp;&nbsp;&nbsp;A little familiar&nbsp;&nbsp;&nbsp;Moderately familiar&nbsp;&nbsp;&nbsp;Extremely familiar</p><p>(press the corresponding number on your keyboard)</p>","","52","","","FAM-RESPONSE","","","","","","","","","","","","","","","","","","","sounds/C/FAM/N001.mp3","nonword","","","","","","","","","","","","","","","","","","",""
"html-keyboard-response","258","1288140","0.0-7.0-1.0-0.6","3","1","wtsh5l0dngvtks7","","null","","","","null","","","","","","","","","","","","","","","","","","","","","","","","","","","","","","","","","","","","","","","","","",""
"audio-keyboard-response","259","1289078","0.0-7.0-1.0-1.6","3","1","wtsh5l0dngvtks7","","null","","sounds/C/FAM/W002.mp3","","null","","","","","","","","","","","","","","","","","","","","","","","","","","","","","","","","","","","","","","","","","",""
"html-keyboard-response","260","1289941","0.0-7.0-1.0-2.6","3","1","wtsh5l0dngvtks7","","355.7000000178814","","<p>How familiar did this sound to you?</p><p>1&nbsp;&nbsp;&nbsp;&nbsp;&nbsp;&nbsp;&nbsp;&nbsp;&nbsp;&nbsp;&nbsp;&nbsp;&nbsp;&nbsp;&nbsp;&nbsp;&nbsp;&nbsp;&nbsp;2&nbsp;&nbsp;&nbsp;&nbsp;&nbsp;&nbsp;&nbsp;&nbsp;&nbsp;&nbsp;&nbsp;&nbsp;&nbsp;&nbsp;&nbsp;&nbsp;&nbsp;&nbsp;&nbsp;3&nbsp;&nbsp;&nbsp;&nbsp;&nbsp;&nbsp;&nbsp;&nbsp;&nbsp;&nbsp;&nbsp;&nbsp;&nbsp;&nbsp;&nbsp;&nbsp;&nbsp;&nbsp;&nbsp;4</p><p style=""font-size:14px"">Not at all familiar&nbsp;&nbsp;&nbsp;&nbsp;A little familiar&nbsp;&nbsp;&nbsp;Moderately familiar&nbsp;&nbsp;&nbsp;Extremely familiar</p><p>(press the corresponding number on your keyboard)</p>","","49","","","FAM-RESPONSE","","","","","","","","","","","","","","","","","","","sounds/C/FAM/W002.mp3","word","","","","","","","","","","","","","","","","","","",""
"html-keyboard-response","261","1291963","0.0-7.0-1.0-0.7","3","1","wtsh5l0dngvtks7","","null","","","","null","","","","","","","","","","","","","","","","","","","","","","","","","","","","","","","","","","","","","","","","","",""
"audio-keyboard-response","262","1292908","0.0-7.0-1.0-1.7","3","1","wtsh5l0dngvtks7","","null","","sounds/C/FAM/W003.mp3","","null","","","","","","","","","","","","","","","","","","","","","","","","","","","","","","","","","","","","","","","","","",""
"html-keyboard-response","263","1293788","0.0-7.0-1.0-2.7","3","1","wtsh5l0dngvtks7","","376.09999999403954","","<p>How familiar did this sound to you?</p><p>1&nbsp;&nbsp;&nbsp;&nbsp;&nbsp;&nbsp;&nbsp;&nbsp;&nbsp;&nbsp;&nbsp;&nbsp;&nbsp;&nbsp;&nbsp;&nbsp;&nbsp;&nbsp;&nbsp;2&nbsp;&nbsp;&nbsp;&nbsp;&nbsp;&nbsp;&nbsp;&nbsp;&nbsp;&nbsp;&nbsp;&nbsp;&nbsp;&nbsp;&nbsp;&nbsp;&nbsp;&nbsp;&nbsp;3&nbsp;&nbsp;&nbsp;&nbsp;&nbsp;&nbsp;&nbsp;&nbsp;&nbsp;&nbsp;&nbsp;&nbsp;&nbsp;&nbsp;&nbsp;&nbsp;&nbsp;&nbsp;&nbsp;4</p><p style=""font-size:14px"">Not at all familiar&nbsp;&nbsp;&nbsp;&nbsp;A little familiar&nbsp;&nbsp;&nbsp;Moderately familiar&nbsp;&nbsp;&nbsp;Extremely familiar</p><p>(press the corresponding number on your keyboard)</p>","","51","","","FAM-RESPONSE","","","","","","","","","","","","","","","","","","","sounds/C/FAM/W003.mp3","word","","","","","","","","","","","","","","","","","","",""
"html-keyboard-response","264","1295804","0.0-7.0-1.0-0.8","3","1","wtsh5l0dngvtks7","","null","","","","null","","","","","","","","","","","","","","","","","","","","","","","","","","","","","","","","","","","","","","","","","",""
"audio-keyboard-response","265","1296748","0.0-7.0-1.0-1.8","3","1","wtsh5l0dngvtks7","","null","","sounds/C/FAM/P003.mp3","","null","","","","","","","","","","","","","","","","","","","","","","","","","","","","","","","","","","","","","","","","","",""
"html-keyboard-response","266","1298576","0.0-7.0-1.0-2.8","3","1","wtsh5l0dngvtks7","","1321.9000000059605","","<p>How familiar did this sound to you?</p><p>1&nbsp;&nbsp;&nbsp;&nbsp;&nbsp;&nbsp;&nbsp;&nbsp;&nbsp;&nbsp;&nbsp;&nbsp;&nbsp;&nbsp;&nbsp;&nbsp;&nbsp;&nbsp;&nbsp;2&nbsp;&nbsp;&nbsp;&nbsp;&nbsp;&nbsp;&nbsp;&nbsp;&nbsp;&nbsp;&nbsp;&nbsp;&nbsp;&nbsp;&nbsp;&nbsp;&nbsp;&nbsp;&nbsp;3&nbsp;&nbsp;&nbsp;&nbsp;&nbsp;&nbsp;&nbsp;&nbsp;&nbsp;&nbsp;&nbsp;&nbsp;&nbsp;&nbsp;&nbsp;&nbsp;&nbsp;&nbsp;&nbsp;4</p><p style=""font-size:14px"">Not at all familiar&nbsp;&nbsp;&nbsp;&nbsp;A little familiar&nbsp;&nbsp;&nbsp;Moderately familiar&nbsp;&nbsp;&nbsp;Extremely familiar</p><p>(press the corresponding number on your keyboard)</p>","","51","","","FAM-RESPONSE","","","","","","","","","","","","","","","","","","","sounds/C/FAM/P003.mp3","partword","","","","","","","","","","","","","","","","","","",""
"html-keyboard-response","267","1300591","0.0-7.0-1.0-0.9","3","1","wtsh5l0dngvtks7","","null","","","","null","","","","","","","","","","","","","","","","","","","","","","","","","","","","","","","","","","","","","","","","","",""
"audio-keyboard-response","268","1301528","0.0-7.0-1.0-1.9","3","1","wtsh5l0dngvtks7","","null","","sounds/C/FAM/P001.mp3","","null","","","","","","","","","","","","","","","","","","","","","","","","","","","","","","","","","","","","","","","","","",""
"html-keyboard-response","269","1302696","0.0-7.0-1.0-2.9","3","1","wtsh5l0dngvtks7","","659.7999999821186","","<p>How familiar did this sound to you?</p><p>1&nbsp;&nbsp;&nbsp;&nbsp;&nbsp;&nbsp;&nbsp;&nbsp;&nbsp;&nbsp;&nbsp;&nbsp;&nbsp;&nbsp;&nbsp;&nbsp;&nbsp;&nbsp;&nbsp;2&nbsp;&nbsp;&nbsp;&nbsp;&nbsp;&nbsp;&nbsp;&nbsp;&nbsp;&nbsp;&nbsp;&nbsp;&nbsp;&nbsp;&nbsp;&nbsp;&nbsp;&nbsp;&nbsp;3&nbsp;&nbsp;&nbsp;&nbsp;&nbsp;&nbsp;&nbsp;&nbsp;&nbsp;&nbsp;&nbsp;&nbsp;&nbsp;&nbsp;&nbsp;&nbsp;&nbsp;&nbsp;&nbsp;4</p><p style=""font-size:14px"">Not at all familiar&nbsp;&nbsp;&nbsp;&nbsp;A little familiar&nbsp;&nbsp;&nbsp;Moderately familiar&nbsp;&nbsp;&nbsp;Extremely familiar</p><p>(press the corresponding number on your keyboard)</p>","","51","","","FAM-RESPONSE","","","","","","","","","","","","","","","","","","","sounds/C/FAM/P001.mp3","partword","","","","","","","","","","","","","","","","","","",""
"html-keyboard-response","270","1304724","0.0-7.0-1.0-0.10","3","1","wtsh5l0dngvtks7","","null","","","","null","","","","","","","","","","","","","","","","","","","","","","","","","","","","","","","","","","","","","","","","","",""
"audio-keyboard-response","271","1305668","0.0-7.0-1.0-1.10","3","1","wtsh5l0dngvtks7","","null","","sounds/C/FAM/P004.mp3","","null","","","","","","","","","","","","","","","","","","","","","","","","","","","","","","","","","","","","","","","","","",""
"html-keyboard-response","272","1306519","0.0-7.0-1.0-2.10","3","1","wtsh5l0dngvtks7","","348.80000001192093","","<p>How familiar did this sound to you?</p><p>1&nbsp;&nbsp;&nbsp;&nbsp;&nbsp;&nbsp;&nbsp;&nbsp;&nbsp;&nbsp;&nbsp;&nbsp;&nbsp;&nbsp;&nbsp;&nbsp;&nbsp;&nbsp;&nbsp;2&nbsp;&nbsp;&nbsp;&nbsp;&nbsp;&nbsp;&nbsp;&nbsp;&nbsp;&nbsp;&nbsp;&nbsp;&nbsp;&nbsp;&nbsp;&nbsp;&nbsp;&nbsp;&nbsp;3&nbsp;&nbsp;&nbsp;&nbsp;&nbsp;&nbsp;&nbsp;&nbsp;&nbsp;&nbsp;&nbsp;&nbsp;&nbsp;&nbsp;&nbsp;&nbsp;&nbsp;&nbsp;&nbsp;4</p><p style=""font-size:14px"">Not at all familiar&nbsp;&nbsp;&nbsp;&nbsp;A little familiar&nbsp;&nbsp;&nbsp;Moderately familiar&nbsp;&nbsp;&nbsp;Extremely familiar</p><p>(press the corresponding number on your keyboard)</p>","","52","","","FAM-RESPONSE","","","","","","","","","","","","","","","","","","","sounds/C/FAM/P004.mp3","partword","","","","","","","","","","","","","","","","","","",""
"html-keyboard-response","273","1308532","0.0-7.0-1.0-0.11","3","1","wtsh5l0dngvtks7","","null","","","","null","","","","","","","","","","","","","","","","","","","","","","","","","","","","","","","","","","","","","","","","","",""
"audio-keyboard-response","274","1309478","0.0-7.0-1.0-1.11","3","1","wtsh5l0dngvtks7","","null","","sounds/C/FAM/P002.mp3","","null","","","","","","","","","","","","","","","","","","","","","","","","","","","","","","","","","","","","","","","","","",""
"html-keyboard-response","275","1311716","0.0-7.0-1.0-2.11","3","1","wtsh5l0dngvtks7","","1722.5999999940395","","<p>How familiar did this sound to you?</p><p>1&nbsp;&nbsp;&nbsp;&nbsp;&nbsp;&nbsp;&nbsp;&nbsp;&nbsp;&nbsp;&nbsp;&nbsp;&nbsp;&nbsp;&nbsp;&nbsp;&nbsp;&nbsp;&nbsp;2&nbsp;&nbsp;&nbsp;&nbsp;&nbsp;&nbsp;&nbsp;&nbsp;&nbsp;&nbsp;&nbsp;&nbsp;&nbsp;&nbsp;&nbsp;&nbsp;&nbsp;&nbsp;&nbsp;3&nbsp;&nbsp;&nbsp;&nbsp;&nbsp;&nbsp;&nbsp;&nbsp;&nbsp;&nbsp;&nbsp;&nbsp;&nbsp;&nbsp;&nbsp;&nbsp;&nbsp;&nbsp;&nbsp;4</p><p style=""font-size:14px"">Not at all familiar&nbsp;&nbsp;&nbsp;&nbsp;A little familiar&nbsp;&nbsp;&nbsp;Moderately familiar&nbsp;&nbsp;&nbsp;Extremely familiar</p><p>(press the corresponding number on your keyboard)</p>","","52","","","FAM-RESPONSE","","","","","","","","","","","","","","","","","","","sounds/C/FAM/P002.mp3","partword","","","","","","","","","","","","","","","","","","",""
"html-button-response","276","1323380","0.0-8.0-0.0","3","1","wtsh5l0dngvtks7","","10652.5","","<p>You will now listen to longer sound sequences.</p><p>Each sound sequence will last about 16 seconds.</p><p>On each trial, you will be given a <u>TARGET SOUND</u>. Your task is to listen very carefully for this sound.</p><p>Every time you hear the <u>TARGET SOUND</u>, you will press the <b>SPACEBAR</b> as quickly and accurately as you can.</p>","0","","","","","","","","","","","","","","","","","","","","","","","","","","","","","","","","","","","","","","","","","","",""
"html-button-response","277","1329515","0.0-8.0-1.0","3","1","wtsh5l0dngvtks7","","5865.0999999940395","","<p>It is very important that you make your responses as quickly and accurately as possible.</p><p>To help you make your responses, you will be able to listen to the <u>TARGET SOUND</u> at the beginning of each trial.</p><p>There will be 36 total trials.</p><p><b>Note: This is meant to be a difficult task. We simply want you to try your best.</p>","0","","","","","","","","","","","","","","","","","","","","","","","","","","","","","","","","","","","","","","","","","","",""
"html-button-response","278","1331548","0.0-8.0-2.0-0.0","3","1","wtsh5l0dngvtks7","","1763","","<p>Trial 1 of 36</p>","0","","","","","","","","","","","","","","","","","","","","","","","","","GE","sounds/syllables/ge_SWS.wav","1500,3300,6900,13200","3","","","","","","","","","","","","","","",""
"html-keyboard-response","279","1336409","0.0-8.0-2.0-1.0","3","1","wtsh5l0dngvtks7","","4858.800000011921","","","","80","","","","","","","","","","","","","","","","","","","","","","","","GE","","1500,3300,6900,13200","3","","","","","","","","","","","","","","",""
"audio-keyboard-response","280","1336718","0.0-8.0-2.0-2.0-0.0","3","1","wtsh5l0dngvtks7","","null","","sounds/syllables/ge_SWS.wav","","null","","","","","","","","","","","","","","","","","","","","","","","","","","","","","","","","","","","","","","","","","",""
"html-keyboard-response","281","1339821","0.0-8.0-2.0-2.0-1.0","3","1","wtsh5l0dngvtks7","","3101.2999999821186","","<p>To replay the <u>TARGET SOUND</u>, press P.</p> When you are ready to begin, press SPACEBAR.","","80","","","","","","","","","","","","","","","","","","","","","","","","","","","","","","","","","","","","","","","","","",""
"audio-keyboard-response","282","1340638","0.0-8.0-2.0-2.1-0.1","3","1","wtsh5l0dngvtks7","","null","","sounds/syllables/ge_SWS.wav","","null","","","","","","","","","","","","","","","","","","","","","","","","","","","","","","","","","","","","","","","","","",""
"html-keyboard-response","283","1341588","0.0-8.0-2.0-2.1-1.1","3","1","wtsh5l0dngvtks7","","949","","<p>To replay the <u>TARGET SOUND</u>, press P.</p> When you are ready to begin, press SPACEBAR.","","80","","","","","","","","","","","","","","","","","","","","","","","","","","","","","","","","","","","","","","","","","",""
"audio-keyboard-response","284","1342408","0.0-8.0-2.0-2.2-0.2","3","1","wtsh5l0dngvtks7","","null","","sounds/syllables/ge_SWS.wav","","null","","","","","","","","","","","","","","","","","","","","","","","","","","","","","","","","","","","","","","","","","",""
"html-keyboard-response","285","1342804","0.0-8.0-2.0-2.2-1.2","3","1","wtsh5l0dngvtks7","","395.5","","<p>To replay the <u>TARGET SOUND</u>, press P.</p> When you are ready to begin, press SPACEBAR.","","32","","","","","","","","","","","","","","","","","","","","","","","","","","","","","","","","","","","","","","","","","",""
"audio-keyboard-response","286","1357768","0.0-8.0-2.0-3.0","3","1","wtsh5l0dngvtks7","","1779","","sounds/C/TD/GE_05_TD.mp3","","80","","","TD_SUMMARY","","","","","","","","","","","","","","","","","","","","","GE","","1500,3300,6900,13200","3","1500","3300","6900","13200","null","560.5","655.7000000178814","null","3860.5_5237.300000011921_7555.700000017881_9018.90000000596_10891_13253","3","","","","",""
"html-button-response","287","1358960","0.0-8.0-2.0-0.1","3","1","wtsh5l0dngvtks7","","1180.5","","<p>Trial 2 of 36</p>","0","","","","","","","","","","","","","","","","","","","","","","","","","PU","sounds/syllables/pu_SWS.wav","2400,4200,6900,13200","3","","","","","","","","","","","","","","",""
"html-keyboard-response","288","1360331","0.0-8.0-2.0-1.1","3","1","wtsh5l0dngvtks7","","1370.0999999940395","","","","80","","","","","","","","","","","","","","","","","","","","","","","","PU","","2400,4200,6900,13200","3","","","","","","","","","","","","","","",""
"audio-keyboard-response","289","1360638","0.0-8.0-2.0-2.3-0.3","3","1","wtsh5l0dngvtks7","","null","","sounds/syllables/pu_SWS.wav","","null","","","","","","","","","","","","","","","","","","","","","","","","","","","","","","","","","","","","","","","","","",""
"html-keyboard-response","290","1361218","0.0-8.0-2.0-2.3-1.3","3","1","wtsh5l0dngvtks7","","579.5999999940395","","<p>To replay the <u>TARGET SOUND</u>, press P.</p> When you are ready to begin, press SPACEBAR.","","80","","","","","","","","","","","","","","","","","","","","","","","","","","","","","","","","","","","","","","","","","",""
"audio-keyboard-response","291","1362038","0.0-8.0-2.0-2.4-0.4","3","1","wtsh5l0dngvtks7","","null","","sounds/syllables/pu_SWS.wav","","null","","","","","","","","","","","","","","","","","","","","","","","","","","","","","","","","","","","","","","","","","",""
"html-keyboard-response","292","1362505","0.0-8.0-2.0-2.4-1.4","3","1","wtsh5l0dngvtks7","","466.59999999403954","","<p>To replay the <u>TARGET SOUND</u>, press P.</p> When you are ready to begin, press SPACEBAR.","","80","","","","","","","","","","","","","","","","","","","","","","","","","","","","","","","","","","","","","","","","","",""
"audio-keyboard-response","293","1363318","0.0-8.0-2.0-2.5-0.5","3","1","wtsh5l0dngvtks7","","null","","sounds/syllables/pu_SWS.wav","","null","","","","","","","","","","","","","","","","","","","","","","","","","","","","","","","","","","","","","","","","","",""
"html-keyboard-response","294","1363383","0.0-8.0-2.0-2.5-1.5","3","1","wtsh5l0dngvtks7","","63.400000005960464","","<p>To replay the <u>TARGET SOUND</u>, press P.</p> When you are ready to begin, press SPACEBAR.","","32","","","","","","","","","","","","","","","","","","","","","","","","","","","","","","","","","","","","","","","","","",""
"audio-keyboard-response","295","1378328","0.0-8.0-2.0-3.1","3","1","wtsh5l0dngvtks7","","2699","","sounds/C/TD/PU_02_TD.mp3","","32","","","TD_SUMMARY","","","","","","","","","","","","","","","","","","","","","PU","","2400,4200,6900,13200","3","2400","4200","6900","13200","1002.1999999880791","773.5999999940395","null","622.5999999940395","______2697.9000000059605_3402.199999988079_4452.800000011921_4973.5999999940395_5973.9000000059605_6985.199999988079_9265_12050.699999988079_13437.199999988079_13822.59999999404","3","","","","",""
"html-button-response","296","1380043","0.0-8.0-2.0-0.2","3","1","wtsh5l0dngvtks7","","1713.4000000059605","","<p>Trial 3 of 36</p>","0","","","","","","","","","","","","","","","","","","","","","","","","","SU","sounds/syllables/su_SWS.wav","900,5400,8100,11700","1","","","","","","","","","","","","","","",""
"html-keyboard-response","297","1382897","0.0-8.0-2.0-1.2","3","1","wtsh5l0dngvtks7","","2853.300000011921","","","","80","","","","","","","","","","","","","","","","","","","","","","","","SU","","900,5400,8100,11700","1","","","","","","","","","","","","","","",""
"audio-keyboard-response","298","1383198","0.0-8.0-2.0-2.6-0.6","3","1","wtsh5l0dngvtks7","","null","","sounds/syllables/su_SWS.wav","","null","","","","","","","","","","","","","","","","","","","","","","","","","","","","","","","","","","","","","","","","","",""
"html-keyboard-response","299","1383733","0.0-8.0-2.0-2.6-1.6","3","1","wtsh5l0dngvtks7","","533.9000000059605","","<p>To replay the <u>TARGET SOUND</u>, press P.</p> When you are ready to begin, press SPACEBAR.","","80","","","","","","","","","","","","","","","","","","","","","","","","","","","","","","","","","","","","","","","","","",""
"audio-keyboard-response","300","1384548","0.0-8.0-2.0-2.7-0.7","3","1","wtsh5l0dngvtks7","","null","","sounds/syllables/su_SWS.wav","","null","","","","","","","","","","","","","","","","","","","","","","","","","","","","","","","","","","","","","","","","","",""
"html-keyboard-response","301","1385077","0.0-8.0-2.0-2.7-1.7","3","1","wtsh5l0dngvtks7","","527.6999999880791","","<p>To replay the <u>TARGET SOUND</u>, press P.</p> When you are ready to begin, press SPACEBAR.","","80","","","","","","","","","","","","","","","","","","","","","","","","","","","","","","","","","","","","","","","","","",""
"audio-keyboard-response","302","1385888","0.0-8.0-2.0-2.8-0.8","3","1","wtsh5l0dngvtks7","","null","","sounds/syllables/su_SWS.wav","","null","","","","","","","","","","","","","","","","","","","","","","","","","","","","","","","","","","","","","","","","","",""
"html-keyboard-response","303","1386677","0.0-8.0-2.0-2.8-1.8","3","1","wtsh5l0dngvtks7","","788.2000000178814","","<p>To replay the <u>TARGET SOUND</u>, press P.</p> When you are ready to begin, press SPACEBAR.","","80","","","","","","","","","","","","","","","","","","","","","","","","","","","","","","","","","","","","","","","","","",""
"audio-keyboard-response","304","1387478","0.0-8.0-2.0-2.9-0.9","3","1","wtsh5l0dngvtks7","","null","","sounds/syllables/su_SWS.wav","","null","","","","","","","","","","","","","","","","","","","","","","","","","","","","","","","","","","","","","","","","","",""
"html-keyboard-response","305","1388008","0.0-8.0-2.0-2.9-1.9","3","1","wtsh5l0dngvtks7","","529.5999999940395","","<p>To replay the <u>TARGET SOUND</u>, press P.</p> When you are ready to begin, press SPACEBAR.","","80","","","","","","","","","","","","","","","","","","","","","","","","","","","","","","","","","","","","","","","","","",""
"audio-keyboard-response","306","1388808","0.0-8.0-2.0-2.10-0.10","3","1","wtsh5l0dngvtks7","","null","","sounds/syllables/su_SWS.wav","","null","","","","","","","","","","","","","","","","","","","","","","","","","","","","","","","","","","","","","","","","","",""
"html-keyboard-response","307","1389282","0.0-8.0-2.0-2.10-1.10","3","1","wtsh5l0dngvtks7","","473.7000000178814","","<p>To replay the <u>TARGET SOUND</u>, press P.</p> When you are ready to begin, press SPACEBAR.","","32","","","","","","","","","","","","","","","","","","","","","","","","","","","","","","","","","","","","","","","","","",""
"audio-keyboard-response","308","1404238","0.0-8.0-2.0-3.2","3","1","wtsh5l0dngvtks7","","5621","","sounds/C/TD/SU_02_TD.mp3","","32","","","TD_SUMMARY","","","","","","","","","","","","","","","","","","","","","SU","","900,5400,8100,11700","1","900","5400","8100","11700","null","224.2999999821186","604.8999999761581","null","________________5624.299999982119_8704.899999976158_11866.299999982119","5","","","","",""
"html-button-response","309","1407054","0.0-8.0-2.0-0.3","3","1","wtsh5l0dngvtks7","","2813.2000000178814","","<p>Trial 4 of 36</p>","0","","","","","","","","","","","","","","","","","","","","","","","","","FU","sounds/syllables/fu_SWS.wav","1500,6900,9600,13200","3","","","","","","","","","","","","","","",""
"html-keyboard-response","310","1407997","0.0-8.0-2.0-1.3","3","1","wtsh5l0dngvtks7","","941.7000000178814","","","","80","","","","","","","","","","","","","","","","","","","","","","","","FU","","1500,6900,9600,13200","3","","","","","","","","","","","","","","",""
"audio-keyboard-response","311","1408308","0.0-8.0-2.0-2.11-0.11","3","1","wtsh5l0dngvtks7","","null","","sounds/syllables/fu_SWS.wav","","null","","","","","","","","","","","","","","","","","","","","","","","","","","","","","","","","","","","","","","","","","",""
"html-keyboard-response","312","1408866","0.0-8.0-2.0-2.11-1.11","3","1","wtsh5l0dngvtks7","","557.3000000119209","","<p>To replay the <u>TARGET SOUND</u>, press P.</p> When you are ready to begin, press SPACEBAR.","","80","","","","","","","","","","","","","","","","","","","","","","","","","","","","","","","","","","","","","","","","","",""
"audio-keyboard-response","313","1409678","0.0-8.0-2.0-2.12-0.12","3","1","wtsh5l0dngvtks7","","null","","sounds/syllables/fu_SWS.wav","","null","","","","","","","","","","","","","","","","","","","","","","","","","","","","","","","","","","","","","","","","","",""
"html-keyboard-response","314","1410063","0.0-8.0-2.0-2.12-1.12","3","1","wtsh5l0dngvtks7","","384","","<p>To replay the <u>TARGET SOUND</u>, press P.</p> When you are ready to begin, press SPACEBAR.","","80","","","","","","","","","","","","","","","","","","","","","","","","","","","","","","","","","","","","","","","","","",""
"audio-keyboard-response","315","1410878","0.0-8.0-2.0-2.13-0.13","3","1","wtsh5l0dngvtks7","","null","","sounds/syllables/fu_SWS.wav","","null","","","","","","","","","","","","","","","","","","","","","","","","","","","","","","","","","","","","","","","","","",""
