"trial_type","trial_index","time_elapsed","internal_node_id","counterbalance","lang_instruct","ParticipantID","view_history","rt","url","stimulus","button_pressed","key_press","correctRESP","correct","designation","location","correctanswer","timeouts","pause_rt01","pause_rt02","train_file","numKeyPress","sound","fam_type","SYLLABLE","EXEMPLAR","TD_LOCS","TD_TYPE","TDLOC_01","TDLOC_02","TDLOC_03","TDLOC_04","TD_RT_01","TD_RT_02","TD_RT_03","TD_RT_04","TD_SUBJ_RTs","number_of_plays","responses","slider_start","response","question_order","syllable","syllable_type"
"pavlovia","0","4","0.0-0.0","1","0","j0e8e9kss88xvs2","","","","","","","","","","","","","","","","","","","","","","","","","","","","","","","","","","","","","",""
"instructions","1","10951","0.0-1.0","1","0","j0e8e9kss88xvs2","[{""page_index"":0,""viewing_time"":5463.799999952316},{""page_index"":1,""viewing_time"":5479.200000047684}]","10946.899999976158","","","","","","","","","","","","","","","","","","","","","","","","","","","","","","","","","","","",""
"external-html","2","13215","0.0-2.0","1","0","j0e8e9kss88xvs2","","2048","consent/consent.html","","","","","","","","","","","","","","","","","","","","","","","","","","","","","","","","","","",""
"html-button-response","3","34371","0.0-3.0-0.0-0.0","1","0","j0e8e9kss88xvs2","","21152.299999952316","","<p>Welcome to the study. You will first complete a short volume calibration and headphone check.</p><p>Please make sure you are in a quiet listening environment, that you are wearing headphones, and that your computer's volume is turned on.<p></p>","0","","","","","","","","","","","","","","","","","","","","","","","","","","","","","","","","",""
"html-button-response","4","39595","0.0-3.0-0.0-1.0","1","0","j0e8e9kss88xvs2","","4973.399999976158","","<p>The volume calibration will be first.</p><p>You will hear a thirty-second noise. Please adjust your computer's volume so that this noise is being presented at a comfortable level.<p></p>","0","","","","","","","","","","","","","","","","","","","","","","","","","","","","","","","","",""
"audio-button-response","5","44728","0.0-3.0-0.0-2.0","1","0","j0e8e9kss88xvs2","","4464","","audCalib/volumetest.mp3","0","","","","","","","","","","","","","","","","","","","","","","","","","","","","","","","","",""
"html-button-response","6","721092","0.0-3.0-1.0-0.0","1","0","j0e8e9kss88xvs2","","676381.2999999523","","<p>You will now complete a short headphone check.</p><p>On each trial, you will hear three tones. One of these tones will be quieter than the others. Your task is to identify whether the quiet tone occured first, second, or third.</p><p>There are six trials in total.<p></p>","0","","","","","","","","","","","","","","","","","","","","","","","","","","","","","","","","",""
"html-keyboard-response","7","721845","0.0-3.0-1.0-1.0-0.0","1","0","j0e8e9kss88xvs2","","null","","<div style=""font-size:60px;"">+</div>","","null","","","","","","","","","","","","","","","","","","","","","","","","","","","","","","","",""
"audio-button-response","8","727824","0.0-3.0-1.0-1.0-1.0","1","0","j0e8e9kss88xvs2","","5829","","audCalib/t2_2.mp3","0","","1","0","headphone-test","","","","","","","","","","","","","","","","","","","","","","","","","","","","",""
"html-keyboard-response","9","728578","0.0-3.0-1.0-1.0-0.1","1","0","j0e8e9kss88xvs2","","null","","<div style=""font-size:60px;"">+</div>","","null","","","","","","","","","","","","","","","","","","","","","","","","","","","","","","","",""
"audio-button-response","10","732638","0.0-3.0-1.0-1.0-1.1","1","0","j0e8e9kss88xvs2","","4059","","audCalib/t1_1.mp3","1","","0","0","headphone-test","","","","","","","","","","","","","","","","","","","","","","","","","","","","",""
"html-keyboard-response","11","733390","0.0-3.0-1.0-1.0-0.2","1","0","j0e8e9kss88xvs2","","null","","<div style=""font-size:60px;"">+</div>","","null","","","","","","","","","","","","","","","","","","","","","","","","","","","","","","","",""
"audio-button-response","12","738077","0.0-3.0-1.0-1.0-1.2","1","0","j0e8e9kss88xvs2","","4683","","audCalib/t1_2.mp3","2","","0","0","headphone-test","","","","","","","","","","","","","","","","","","","","","","","","","","","","",""
"html-keyboard-response","13","738828","0.0-3.0-1.0-1.0-0.3","1","0","j0e8e9kss88xvs2","","null","","<div style=""font-size:60px;"">+</div>","","null","","","","","","","","","","","","","","","","","","","","","","","","","","","","","","","",""
"audio-button-response","14","742940","0.0-3.0-1.0-1.0-1.3","1","0","j0e8e9kss88xvs2","","4112","","audCalib/t3_2.mp3","1","","2","0","headphone-test","","","","","","","","","","","","","","","","","","","","","","","","","","","","",""
"html-keyboard-response","15","743692","0.0-3.0-1.0-1.0-0.4","1","0","j0e8e9kss88xvs2","","null","","<div style=""font-size:60px;"">+</div>","","null","","","","","","","","","","","","","","","","","","","","","","","","","","","","","","","",""
"audio-button-response","16","747541","0.0-3.0-1.0-1.0-1.4","1","0","j0e8e9kss88xvs2","","3851","","audCalib/t3_1.mp3","0","","2","0","headphone-test","","","","","","","","","","","","","","","","","","","","","","","","","","","","",""
"html-keyboard-response","17","748297","0.0-3.0-1.0-1.0-0.5","1","0","j0e8e9kss88xvs2","","null","","<div style=""font-size:60px;"">+</div>","","null","","","","","","","","","","","","","","","","","","","","","","","","","","","","","","","",""
"audio-button-response","18","753116","0.0-3.0-1.0-1.0-1.5","1","0","j0e8e9kss88xvs2","","4816","","audCalib/t2_1.mp3","2","","1","0","headphone-test","","","","","","","","","","","","","","","","","","","","","","","","","","","","",""
"html-button-response","19","756108","0.0-3.0-2.0","1","0","j0e8e9kss88xvs2","","2740.900000035763","","<p>The volume calibration and headphone check are now complete.</p>","0","","","","","","","","","","","","","","","","","","","","","","","","","","","","","","","","",""
"instructions","20","766051","0.0-4.0-0.0","1","0","j0e8e9kss88xvs2","[{""page_index"":0,""viewing_time"":1243.5999999642372},{""page_index"":1,""viewing_time"":4072.900000035763},{""page_index"":2,""viewing_time"":4625}]","9941.899999976158","","","","","","","","","","","","","","","","","","","","","","","","","","","","","","","","","","","",""
"audio-keyboard-response","21","766356","0.0-4.0-1.0-0.0","1","0","j0e8e9kss88xvs2","","null","","sounds/induction/left_rev/ge_SWS.wav","","null","","","","","","","","","","","","","","","","","","","","","","","","","","","","","","","",""
"html-button-response","22","768787","0.0-4.0-1.0-1.0","1","0","j0e8e9kss88xvs2","","2430.199999988079","","Was the sound coming from the left or the right?","0","","","1","INDUCTION-JUDGMENT","left","0","","","","","","","","","","","","","","","","","","","","","","","","","","",""
"html-keyboard-response","23","769789","0.0-4.0-1.0-2.0","1","0","j0e8e9kss88xvs2","","null","","<p style=""color:#054d00;""><b>Correct!</b></p>","","null","","","","","","","","","","","","","","","","","","","","","","","","","","","","","","","",""
"audio-keyboard-response","24","770591","0.0-4.0-1.0-0.1","1","0","j0e8e9kss88xvs2","","null","","sounds/induction/right_rev/ko_SWS.wav","","null","","","","","","","","","","","","","","","","","","","","","","","","","","","","","","","",""
"html-button-response","25","771531","0.0-4.0-1.0-1.1","1","0","j0e8e9kss88xvs2","","937.5","","Was the sound coming from the left or the right?","1","","","1","INDUCTION-JUDGMENT","right","1","","","","","","","","","","","","","","","","","","","","","","","","","","",""
"html-keyboard-response","26","772532","0.0-4.0-1.0-2.1","1","0","j0e8e9kss88xvs2","","null","","<p style=""color:#054d00;""><b>Correct!</b></p>","","null","","","","","","","","","","","","","","","","","","","","","","","","","","","","","","","",""
"audio-keyboard-response","27","773338","0.0-4.0-1.0-0.2","1","0","j0e8e9kss88xvs2","","null","","sounds/induction/right_rev/fe_SWS.wav","","null","","","","","","","","","","","","","","","","","","","","","","","","","","","","","","","",""
"html-button-response","28","774713","0.0-4.0-1.0-1.2","1","0","j0e8e9kss88xvs2","","1373.8999999761581","","Was the sound coming from the left or the right?","1","","","1","INDUCTION-JUDGMENT","right","1","","","","","","","","","","","","","","","","","","","","","","","","","","",""
"html-keyboard-response","29","775715","0.0-4.0-1.0-2.2","1","0","j0e8e9kss88xvs2","","null","","<p style=""color:#054d00;""><b>Correct!</b></p>","","null","","","","","","","","","","","","","","","","","","","","","","","","","","","","","","","",""
"audio-keyboard-response","30","776516","0.0-4.0-1.0-0.3","1","0","j0e8e9kss88xvs2","","null","","sounds/induction/right_rev/ti_SWS.wav","","null","","","","","","","","","","","","","","","","","","","","","","","","","","","","","","","",""
"html-button-response","31","777717","0.0-4.0-1.0-1.3","1","0","j0e8e9kss88xvs2","","1200.4000000357628","","Was the sound coming from the left or the right?","1","","","1","INDUCTION-JUDGMENT","right","1","","","","","","","","","","","","","","","","","","","","","","","","","","",""
"html-keyboard-response","32","778719","0.0-4.0-1.0-2.3","1","0","j0e8e9kss88xvs2","","null","","<p style=""color:#054d00;""><b>Correct!</b></p>","","null","","","","","","","","","","","","","","","","","","","","","","","","","","","","","","","",""
"audio-keyboard-response","33","779525","0.0-4.0-1.0-0.4","1","0","j0e8e9kss88xvs2","","null","","sounds/induction/left_rev/pu_SWS.wav","","null","","","","","","","","","","","","","","","","","","","","","","","","","","","","","","","",""
"html-button-response","34","780785","0.0-4.0-1.0-1.4","1","0","j0e8e9kss88xvs2","","1259.5","","Was the sound coming from the left or the right?","0","","","1","INDUCTION-JUDGMENT","left","0","","","","","","","","","","","","","","","","","","","","","","","","","","",""
"html-keyboard-response","35","781786","0.0-4.0-1.0-2.4","1","0","j0e8e9kss88xvs2","","null","","<p style=""color:#054d00;""><b>Correct!</b></p>","","null","","","","","","","","","","","","","","","","","","","","","","","","","","","","","","","",""
"audio-keyboard-response","36","782591","0.0-4.0-1.0-0.5","1","0","j0e8e9kss88xvs2","","null","","sounds/induction/right_rev/ru_SWS.wav","","null","","","","","","","","","","","","","","","","","","","","","","","","","","","","","","","",""
"html-button-response","37","783461","0.0-4.0-1.0-1.5","1","0","j0e8e9kss88xvs2","","869","","Was the sound coming from the left or the right?","1","","","1","INDUCTION-JUDGMENT","right","1","","","","","","","","","","","","","","","","","","","","","","","","","","",""
"html-keyboard-response","38","784463","0.0-4.0-1.0-2.5","1","0","j0e8e9kss88xvs2","","null","","<p style=""color:#054d00;""><b>Correct!</b></p>","","null","","","","","","","","","","","","","","","","","","","","","","","","","","","","","","","",""
"audio-keyboard-response","39","785263","0.0-4.0-1.0-0.6","1","0","j0e8e9kss88xvs2","","null","","sounds/induction/right_rev/ni_SWS.wav","","null","","","","","","","","","","","","","","","","","","","","","","","","","","","","","","","",""
"html-button-response","40","786236","0.0-4.0-1.0-1.6","1","0","j0e8e9kss88xvs2","","972.0999999642372","","Was the sound coming from the left or the right?","1","","","1","INDUCTION-JUDGMENT","right","1","","","","","","","","","","","","","","","","","","","","","","","","","","",""
"html-keyboard-response","41","787238","0.0-4.0-1.0-2.6","1","0","j0e8e9kss88xvs2","","null","","<p style=""color:#054d00;""><b>Correct!</b></p>","","null","","","","","","","","","","","","","","","","","","","","","","","","","","","","","","","",""
"audio-keyboard-response","42","788042","0.0-4.0-1.0-0.7","1","0","j0e8e9kss88xvs2","","null","","sounds/induction/right_rev/pu_SWS.wav","","null","","","","","","","","","","","","","","","","","","","","","","","","","","","","","","","",""
"html-button-response","43","788784","0.0-4.0-1.0-1.7","1","0","j0e8e9kss88xvs2","","741.4000000357628","","Was the sound coming from the left or the right?","1","","","1","INDUCTION-JUDGMENT","right","1","","","","","","","","","","","","","","","","","","","","","","","","","","",""
"html-keyboard-response","44","789786","0.0-4.0-1.0-2.7","1","0","j0e8e9kss88xvs2","","null","","<p style=""color:#054d00;""><b>Correct!</b></p>","","null","","","","","","","","","","","","","","","","","","","","","","","","","","","","","","","",""
"audio-keyboard-response","45","790591","0.0-4.0-1.0-0.8","1","0","j0e8e9kss88xvs2","","null","","sounds/induction/left_rev/su_SWS.wav","","null","","","","","","","","","","","","","","","","","","","","","","","","","","","","","","","",""
"html-button-response","46","791199","0.0-4.0-1.0-1.8","1","0","j0e8e9kss88xvs2","","606.3999999761581","","Was the sound coming from the left or the right?","0","","","1","INDUCTION-JUDGMENT","left","0","","","","","","","","","","","","","","","","","","","","","","","","","","",""
"html-keyboard-response","47","792201","0.0-4.0-1.0-2.8","1","0","j0e8e9kss88xvs2","","null","","<p style=""color:#054d00;""><b>Correct!</b></p>","","null","","","","","","","","","","","","","","","","","","","","","","","","","","","","","","","",""
"audio-keyboard-response","48","793002","0.0-4.0-1.0-0.9","1","0","j0e8e9kss88xvs2","","null","","sounds/induction/right_rev/ni_SWS.wav","","null","","","","","","","","","","","","","","","","","","","","","","","","","","","","","","","",""
"html-button-response","49","793694","0.0-4.0-1.0-1.9","1","0","j0e8e9kss88xvs2","","691.6000000238419","","Was the sound coming from the left or the right?","1","","","1","INDUCTION-JUDGMENT","right","1","","","","","","","","","","","","","","","","","","","","","","","","","","",""
"html-keyboard-response","50","794695","0.0-4.0-1.0-2.9","1","0","j0e8e9kss88xvs2","","null","","<p style=""color:#054d00;""><b>Correct!</b></p>","","null","","","","","","","","","","","","","","","","","","","","","","","","","","","","","","","",""
"audio-keyboard-response","51","795498","0.0-4.0-1.0-0.10","1","0","j0e8e9kss88xvs2","","null","","sounds/induction/left_rev/fe_SWS.wav","","null","","","","","","","","","","","","","","","","","","","","","","","","","","","","","","","",""
"html-button-response","52","796071","0.0-4.0-1.0-1.10","1","0","j0e8e9kss88xvs2","","571.6999999880791","","Was the sound coming from the left or the right?","0","","","1","INDUCTION-JUDGMENT","left","0","","","","","","","","","","","","","","","","","","","","","","","","","","",""
"html-keyboard-response","53","797072","0.0-4.0-1.0-2.10","1","0","j0e8e9kss88xvs2","","null","","<p style=""color:#054d00;""><b>Correct!</b></p>","","null","","","","","","","","","","","","","","","","","","","","","","","","","","","","","","","",""
"audio-keyboard-response","54","797876","0.0-4.0-1.0-0.11","1","0","j0e8e9kss88xvs2","","null","","sounds/induction/right_rev/su_SWS.wav","","null","","","","","","","","","","","","","","","","","","","","","","","","","","","","","","","",""
"html-button-response","55","798693","0.0-4.0-1.0-1.11","1","0","j0e8e9kss88xvs2","","815.8000000119209","","Was the sound coming from the left or the right?","1","","","1","INDUCTION-JUDGMENT","right","1","","","","","","","","","","","","","","","","","","","","","","","","","","",""
"html-keyboard-response","56","799694","0.0-4.0-1.0-2.11","1","0","j0e8e9kss88xvs2","","null","","<p style=""color:#054d00;""><b>Correct!</b></p>","","null","","","","","","","","","","","","","","","","","","","","","","","","","","","","","","","",""
"audio-keyboard-response","57","800500","0.0-4.0-1.0-0.12","1","0","j0e8e9kss88xvs2","","null","","sounds/induction/right_rev/me_SWS.wav","","null","","","","","","","","","","","","","","","","","","","","","","","","","","","","","","","",""
"html-button-response","58","801284","0.0-4.0-1.0-1.12","1","0","j0e8e9kss88xvs2","","783","","Was the sound coming from the left or the right?","1","","","1","INDUCTION-JUDGMENT","right","1","","","","","","","","","","","","","","","","","","","","","","","","","","",""
"html-keyboard-response","59","802288","0.0-4.0-1.0-2.12","1","0","j0e8e9kss88xvs2","","null","","<p style=""color:#054d00;""><b>Correct!</b></p>","","null","","","","","","","","","","","","","","","","","","","","","","","","","","","","","","","",""
"audio-keyboard-response","60","803093","0.0-4.0-1.0-0.13","1","0","j0e8e9kss88xvs2","","null","","sounds/induction/left_rev/ru_SWS.wav","","null","","","","","","","","","","","","","","","","","","","","","","","","","","","","","","","",""
"html-button-response","61","803743","0.0-4.0-1.0-1.13","1","0","j0e8e9kss88xvs2","","648.8999999761581","","Was the sound coming from the left or the right?","0","","","1","INDUCTION-JUDGMENT","left","0","","","","","","","","","","","","","","","","","","","","","","","","","","",""
"html-keyboard-response","62","804744","0.0-4.0-1.0-2.13","1","0","j0e8e9kss88xvs2","","null","","<p style=""color:#054d00;""><b>Correct!</b></p>","","null","","","","","","","","","","","","","","","","","","","","","","","","","","","","","","","",""
"audio-keyboard-response","63","805545","0.0-4.0-1.0-0.14","1","0","j0e8e9kss88xvs2","","null","","sounds/induction/left_rev/ni_SWS.wav","","null","","","","","","","","","","","","","","","","","","","","","","","","","","","","","","","",""
"html-button-response","64","806326","0.0-4.0-1.0-1.14","1","0","j0e8e9kss88xvs2","","779.8999999761581","","Was the sound coming from the left or the right?","0","","","1","INDUCTION-JUDGMENT","left","0","","","","","","","","","","","","","","","","","","","","","","","","","","",""
"html-keyboard-response","65","807327","0.0-4.0-1.0-2.14","1","0","j0e8e9kss88xvs2","","null","","<p style=""color:#054d00;""><b>Correct!</b></p>","","null","","","","","","","","","","","","","","","","","","","","","","","","","","","","","","","",""
"audio-keyboard-response","66","808132","0.0-4.0-1.0-0.15","1","0","j0e8e9kss88xvs2","","null","","sounds/induction/left_rev/ta_SWS.wav","","null","","","","","","","","","","","","","","","","","","","","","","","","","","","","","","","",""
"html-button-response","67","808894","0.0-4.0-1.0-1.15","1","0","j0e8e9kss88xvs2","","760.6000000238419","","Was the sound coming from the left or the right?","0","","","1","INDUCTION-JUDGMENT","left","0","","","","","","","","","","","","","","","","","","","","","","","","","","",""
"html-keyboard-response","68","809897","0.0-4.0-1.0-2.15","1","0","j0e8e9kss88xvs2","","null","","<p style=""color:#054d00;""><b>Correct!</b></p>","","null","","","","","","","","","","","","","","","","","","","","","","","","","","","","","","","",""
"audio-keyboard-response","69","810698","0.0-4.0-1.0-0.16","1","0","j0e8e9kss88xvs2","","null","","sounds/induction/right_rev/ge_SWS.wav","","null","","","","","","","","","","","","","","","","","","","","","","","","","","","","","","","",""
"html-button-response","70","811289","0.0-4.0-1.0-1.16","1","0","j0e8e9kss88xvs2","","588.2999999523163","","Was the sound coming from the left or the right?","1","","","1","INDUCTION-JUDGMENT","right","1","","","","","","","","","","","","","","","","","","","","","","","","","","",""
"html-keyboard-response","71","812290","0.0-4.0-1.0-2.16","1","0","j0e8e9kss88xvs2","","null","","<p style=""color:#054d00;""><b>Correct!</b></p>","","null","","","","","","","","","","","","","","","","","","","","","","","","","","","","","","","",""
"audio-keyboard-response","72","813092","0.0-4.0-1.0-0.17","1","0","j0e8e9kss88xvs2","","null","","sounds/induction/left_rev/ti_SWS.wav","","null","","","","","","","","","","","","","","","","","","","","","","","","","","","","","","","",""
"html-button-response","73","813933","0.0-4.0-1.0-1.17","1","0","j0e8e9kss88xvs2","","840.5","","Was the sound coming from the left or the right?","0","","","1","INDUCTION-JUDGMENT","left","0","","","","","","","","","","","","","","","","","","","","","","","","","","",""
"html-keyboard-response","74","814935","0.0-4.0-1.0-2.17","1","0","j0e8e9kss88xvs2","","null","","<p style=""color:#054d00;""><b>Correct!</b></p>","","null","","","","","","","","","","","","","","","","","","","","","","","","","","","","","","","",""
"audio-keyboard-response","75","815738","0.0-4.0-1.0-0.18","1","0","j0e8e9kss88xvs2","","null","","sounds/induction/right_rev/su_SWS.wav","","null","","","","","","","","","","","","","","","","","","","","","","","","","","","","","","","",""
"html-button-response","76","816239","0.0-4.0-1.0-1.18","1","0","j0e8e9kss88xvs2","","500.5","","Was the sound coming from the left or the right?","1","","","1","INDUCTION-JUDGMENT","right","1","","","","","","","","","","","","","","","","","","","","","","","","","","",""
"html-keyboard-response","77","817241","0.0-4.0-1.0-2.18","1","0","j0e8e9kss88xvs2","","null","","<p style=""color:#054d00;""><b>Correct!</b></p>","","null","","","","","","","","","","","","","","","","","","","","","","","","","","","","","","","",""
"audio-keyboard-response","78","818042","0.0-4.0-1.0-0.19","1","0","j0e8e9kss88xvs2","","null","","sounds/induction/right_rev/fu_SWS.wav","","null","","","","","","","","","","","","","","","","","","","","","","","","","","","","","","","",""
"html-button-response","79","818597","0.0-4.0-1.0-1.19","1","0","j0e8e9kss88xvs2","","555.0999999642372","","Was the sound coming from the left or the right?","1","","","1","INDUCTION-JUDGMENT","right","1","","","","","","","","","","","","","","","","","","","","","","","","","","",""
"html-keyboard-response","80","819598","0.0-4.0-1.0-2.19","1","0","j0e8e9kss88xvs2","","null","","<p style=""color:#054d00;""><b>Correct!</b></p>","","null","","","","","","","","","","","","","","","","","","","","","","","","","","","","","","","",""
"audio-keyboard-response","81","820399","0.0-4.0-1.0-0.20","1","0","j0e8e9kss88xvs2","","null","","sounds/induction/right_rev/ge_SWS.wav","","null","","","","","","","","","","","","","","","","","","","","","","","","","","","","","","","",""
"html-button-response","82","820919","0.0-4.0-1.0-1.20","1","0","j0e8e9kss88xvs2","","519","","Was the sound coming from the left or the right?","1","","","1","INDUCTION-JUDGMENT","right","1","","","","","","","","","","","","","","","","","","","","","","","","","","",""
"html-keyboard-response","83","821920","0.0-4.0-1.0-2.20","1","0","j0e8e9kss88xvs2","","null","","<p style=""color:#054d00;""><b>Correct!</b></p>","","null","","","","","","","","","","","","","","","","","","","","","","","","","","","","","","","",""
"audio-keyboard-response","84","822724","0.0-4.0-1.0-0.21","1","0","j0e8e9kss88xvs2","","null","","sounds/induction/left_rev/su_SWS.wav","","null","","","","","","","","","","","","","","","","","","","","","","","","","","","","","","","",""
"html-button-response","85","823201","0.0-4.0-1.0-1.21","1","0","j0e8e9kss88xvs2","","475.69999998807907","","Was the sound coming from the left or the right?","0","","","1","INDUCTION-JUDGMENT","left","0","","","","","","","","","","","","","","","","","","","","","","","","","","",""
"html-keyboard-response","86","824202","0.0-4.0-1.0-2.21","1","0","j0e8e9kss88xvs2","","null","","<p style=""color:#054d00;""><b>Correct!</b></p>","","null","","","","","","","","","","","","","","","","","","","","","","","","","","","","","","","",""
"audio-keyboard-response","87","825002","0.0-4.0-1.0-0.22","1","0","j0e8e9kss88xvs2","","null","","sounds/induction/left_rev/ko_SWS.wav","","null","","","","","","","","","","","","","","","","","","","","","","","","","","","","","","","",""
"html-button-response","88","825518","0.0-4.0-1.0-1.22","1","0","j0e8e9kss88xvs2","","515.5","","Was the sound coming from the left or the right?","0","","","1","INDUCTION-JUDGMENT","left","0","","","","","","","","","","","","","","","","","","","","","","","","","","",""
"html-keyboard-response","89","826520","0.0-4.0-1.0-2.22","1","0","j0e8e9kss88xvs2","","null","","<p style=""color:#054d00;""><b>Correct!</b></p>","","null","","","","","","","","","","","","","","","","","","","","","","","","","","","","","","","",""
"audio-keyboard-response","90","827322","0.0-4.0-1.0-0.23","1","0","j0e8e9kss88xvs2","","null","","sounds/induction/right_rev/pu_SWS.wav","","null","","","","","","","","","","","","","","","","","","","","","","","","","","","","","","","",""
"html-button-response","91","827808","0.0-4.0-1.0-1.23","1","0","j0e8e9kss88xvs2","","485.30000001192093","","Was the sound coming from the left or the right?","1","","","1","INDUCTION-JUDGMENT","right","1","","","","","","","","","","","","","","","","","","","","","","","","","","",""
"html-keyboard-response","92","828809","0.0-4.0-1.0-2.23","1","0","j0e8e9kss88xvs2","","null","","<p style=""color:#054d00;""><b>Correct!</b></p>","","null","","","","","","","","","","","","","","","","","","","","","","","","","","","","","","","",""
"audio-keyboard-response","93","829610","0.0-4.0-1.0-0.24","1","0","j0e8e9kss88xvs2","","null","","sounds/induction/left_rev/me_SWS.wav","","null","","","","","","","","","","","","","","","","","","","","","","","","","","","","","","","",""
"html-button-response","94","830330","0.0-4.0-1.0-1.24","1","0","j0e8e9kss88xvs2","","719.6000000238419","","Was the sound coming from the left or the right?","0","","","1","INDUCTION-JUDGMENT","left","0","","","","","","","","","","","","","","","","","","","","","","","","","","",""
"html-keyboard-response","95","831331","0.0-4.0-1.0-2.24","1","0","j0e8e9kss88xvs2","","null","","<p style=""color:#054d00;""><b>Correct!</b></p>","","null","","","","","","","","","","","","","","","","","","","","","","","","","","","","","","","",""
"audio-keyboard-response","96","832132","0.0-4.0-1.0-0.25","1","0","j0e8e9kss88xvs2","","null","","sounds/induction/left_rev/ni_SWS.wav","","null","","","","","","","","","","","","","","","","","","","","","","","","","","","","","","","",""
"html-button-response","97","832719","0.0-4.0-1.0-1.25","1","0","j0e8e9kss88xvs2","","586.2000000476837","","Was the sound coming from the left or the right?","0","","","1","INDUCTION-JUDGMENT","left","0","","","","","","","","","","","","","","","","","","","","","","","","","","",""
"html-keyboard-response","98","833721","0.0-4.0-1.0-2.25","1","0","j0e8e9kss88xvs2","","null","","<p style=""color:#054d00;""><b>Correct!</b></p>","","null","","","","","","","","","","","","","","","","","","","","","","","","","","","","","","","",""
"audio-keyboard-response","99","834522","0.0-4.0-1.0-0.26","1","0","j0e8e9kss88xvs2","","null","","sounds/induction/left_rev/ge_SWS.wav","","null","","","","","","","","","","","","","","","","","","","","","","","","","","","","","","","",""
"html-button-response","100","835010","0.0-4.0-1.0-1.26","1","0","j0e8e9kss88xvs2","","487.69999998807907","","Was the sound coming from the left or the right?","0","","","1","INDUCTION-JUDGMENT","left","0","","","","","","","","","","","","","","","","","","","","","","","","","","",""
"html-keyboard-response","101","836011","0.0-4.0-1.0-2.26","1","0","j0e8e9kss88xvs2","","null","","<p style=""color:#054d00;""><b>Correct!</b></p>","","null","","","","","","","","","","","","","","","","","","","","","","","","","","","","","","","",""
"audio-keyboard-response","102","836815","0.0-4.0-1.0-0.27","1","0","j0e8e9kss88xvs2","","null","","sounds/induction/left_rev/fu_SWS.wav","","null","","","","","","","","","","","","","","","","","","","","","","","","","","","","","","","",""
"html-button-response","103","837303","0.0-4.0-1.0-1.27","1","0","j0e8e9kss88xvs2","","487.30000001192093","","Was the sound coming from the left or the right?","0","","","1","INDUCTION-JUDGMENT","left","0","","","","","","","","","","","","","","","","","","","","","","","","","","",""
"html-keyboard-response","104","838305","0.0-4.0-1.0-2.27","1","0","j0e8e9kss88xvs2","","null","","<p style=""color:#054d00;""><b>Correct!</b></p>","","null","","","","","","","","","","","","","","","","","","","","","","","","","","","","","","","",""
"audio-keyboard-response","105","839108","0.0-4.0-1.0-0.28","1","0","j0e8e9kss88xvs2","","null","","sounds/induction/left_rev/ru_SWS.wav","","null","","","","","","","","","","","","","","","","","","","","","","","","","","","","","","","",""
"html-button-response","106","839696","0.0-4.0-1.0-1.28","1","0","j0e8e9kss88xvs2","","587.2000000476837","","Was the sound coming from the left or the right?","0","","","1","INDUCTION-JUDGMENT","left","0","","","","","","","","","","","","","","","","","","","","","","","","","","",""
"html-keyboard-response","107","840697","0.0-4.0-1.0-2.28","1","0","j0e8e9kss88xvs2","","null","","<p style=""color:#054d00;""><b>Correct!</b></p>","","null","","","","","","","","","","","","","","","","","","","","","","","","","","","","","","","",""
"audio-keyboard-response","108","841498","0.0-4.0-1.0-0.29","1","0","j0e8e9kss88xvs2","","null","","sounds/induction/right_rev/re_SWS.wav","","null","","","","","","","","","","","","","","","","","","","","","","","","","","","","","","","",""
"html-button-response","109","842004","0.0-4.0-1.0-1.29","1","0","j0e8e9kss88xvs2","","505.10000002384186","","Was the sound coming from the left or the right?","1","","","1","INDUCTION-JUDGMENT","right","1","","","","","","","","","","","","","","","","","","","","","","","","","","",""
"html-keyboard-response","110","843005","0.0-4.0-1.0-2.29","1","0","j0e8e9kss88xvs2","","null","","<p style=""color:#054d00;""><b>Correct!</b></p>","","null","","","","","","","","","","","","","","","","","","","","","","","","","","","","","","","",""
"audio-keyboard-response","111","843807","0.0-4.0-1.0-0.30","1","0","j0e8e9kss88xvs2","","null","","sounds/induction/right_rev/re_SWS.wav","","null","","","","","","","","","","","","","","","","","","","","","","","","","","","","","","","",""
"html-button-response","112","844282","0.0-4.0-1.0-1.30","1","0","j0e8e9kss88xvs2","","473.89999997615814","","Was the sound coming from the left or the right?","1","","","1","INDUCTION-JUDGMENT","right","1","","","","","","","","","","","","","","","","","","","","","","","","","","",""
"html-keyboard-response","113","845283","0.0-4.0-1.0-2.30","1","0","j0e8e9kss88xvs2","","null","","<p style=""color:#054d00;""><b>Correct!</b></p>","","null","","","","","","","","","","","","","","","","","","","","","","","","","","","","","","","",""
"audio-keyboard-response","114","846084","0.0-4.0-1.0-0.31","1","0","j0e8e9kss88xvs2","","null","","sounds/induction/right_rev/ko_SWS.wav","","null","","","","","","","","","","","","","","","","","","","","","","","","","","","","","","","",""
"html-button-response","115","846562","0.0-4.0-1.0-1.31","1","0","j0e8e9kss88xvs2","","477","","Was the sound coming from the left or the right?","1","","","1","INDUCTION-JUDGMENT","right","1","","","","","","","","","","","","","","","","","","","","","","","","","","",""
"html-keyboard-response","116","847563","0.0-4.0-1.0-2.31","1","0","j0e8e9kss88xvs2","","null","","<p style=""color:#054d00;""><b>Correct!</b></p>","","null","","","","","","","","","","","","","","","","","","","","","","","","","","","","","","","",""
"audio-keyboard-response","117","848367","0.0-4.0-1.0-0.32","1","0","j0e8e9kss88xvs2","","null","","sounds/induction/left_rev/me_SWS.wav","","null","","","","","","","","","","","","","","","","","","","","","","","","","","","","","","","",""
"html-button-response","118","848804","0.0-4.0-1.0-1.32","1","0","j0e8e9kss88xvs2","","436.2000000476837","","Was the sound coming from the left or the right?","0","","","1","INDUCTION-JUDGMENT","left","0","","","","","","","","","","","","","","","","","","","","","","","","","","",""
"html-keyboard-response","119","849806","0.0-4.0-1.0-2.32","1","0","j0e8e9kss88xvs2","","null","","<p style=""color:#054d00;""><b>Correct!</b></p>","","null","","","","","","","","","","","","","","","","","","","","","","","","","","","","","","","",""
"audio-keyboard-response","120","850607","0.0-4.0-1.0-0.33","1","0","j0e8e9kss88xvs2","","null","","sounds/induction/left_rev/ta_SWS.wav","","null","","","","","","","","","","","","","","","","","","","","","","","","","","","","","","","",""
"html-button-response","121","851466","0.0-4.0-1.0-1.33","1","0","j0e8e9kss88xvs2","","858.3000000119209","","Was the sound coming from the left or the right?","0","","","1","INDUCTION-JUDGMENT","left","0","","","","","","","","","","","","","","","","","","","","","","","","","","",""
"html-keyboard-response","122","852467","0.0-4.0-1.0-2.33","1","0","j0e8e9kss88xvs2","","null","","<p style=""color:#054d00;""><b>Correct!</b></p>","","null","","","","","","","","","","","","","","","","","","","","","","","","","","","","","","","",""
"audio-keyboard-response","123","853268","0.0-4.0-1.0-0.34","1","0","j0e8e9kss88xvs2","","null","","sounds/induction/right_rev/ru_SWS.wav","","null","","","","","","","","","","","","","","","","","","","","","","","","","","","","","","","",""
"html-button-response","124","853808","0.0-4.0-1.0-1.34","1","0","j0e8e9kss88xvs2","","539.1999999880791","","Was the sound coming from the left or the right?","1","","","1","INDUCTION-JUDGMENT","right","1","","","","","","","","","","","","","","","","","","","","","","","","","","",""
"html-keyboard-response","125","854810","0.0-4.0-1.0-2.34","1","0","j0e8e9kss88xvs2","","null","","<p style=""color:#054d00;""><b>Correct!</b></p>","","null","","","","","","","","","","","","","","","","","","","","","","","","","","","","","","","",""
"audio-keyboard-response","126","855610","0.0-4.0-1.0-0.35","1","0","j0e8e9kss88xvs2","","null","","sounds/induction/right_rev/ti_SWS.wav","","null","","","","","","","","","","","","","","","","","","","","","","","","","","","","","","","",""
"html-button-response","127","856249","0.0-4.0-1.0-1.35","1","0","j0e8e9kss88xvs2","","638.7999999523163","","Was the sound coming from the left or the right?","1","","","1","INDUCTION-JUDGMENT","right","1","","","","","","","","","","","","","","","","","","","","","","","","","","",""
"html-keyboard-response","128","857252","0.0-4.0-1.0-2.35","1","0","j0e8e9kss88xvs2","","null","","<p style=""color:#054d00;""><b>Correct!</b></p>","","null","","","","","","","","","","","","","","","","","","","","","","","","","","","","","","","",""
"audio-keyboard-response","129","858052","0.0-4.0-1.0-0.36","1","0","j0e8e9kss88xvs2","","null","","sounds/induction/left_rev/ko_SWS.wav","","null","","","","","","","","","","","","","","","","","","","","","","","","","","","","","","","",""
"html-button-response","130","858572","0.0-4.0-1.0-1.36","1","0","j0e8e9kss88xvs2","","518.3000000119209","","Was the sound coming from the left or the right?","0","","","1","INDUCTION-JUDGMENT","left","0","","","","","","","","","","","","","","","","","","","","","","","","","","",""
"html-keyboard-response","131","859573","0.0-4.0-1.0-2.36","1","0","j0e8e9kss88xvs2","","null","","<p style=""color:#054d00;""><b>Correct!</b></p>","","null","","","","","","","","","","","","","","","","","","","","","","","","","","","","","","","",""
"audio-keyboard-response","132","860378","0.0-4.0-1.0-0.37","1","0","j0e8e9kss88xvs2","","null","","sounds/induction/left_rev/re_SWS.wav","","null","","","","","","","","","","","","","","","","","","","","","","","","","","","","","","","",""
"html-button-response","133","861242","0.0-4.0-1.0-1.37","1","0","j0e8e9kss88xvs2","","863.8000000119209","","Was the sound coming from the left or the right?","0","","","1","INDUCTION-JUDGMENT","left","0","","","","","","","","","","","","","","","","","","","","","","","","","","",""
"html-keyboard-response","134","862244","0.0-4.0-1.0-2.37","1","0","j0e8e9kss88xvs2","","null","","<p style=""color:#054d00;""><b>Correct!</b></p>","","null","","","","","","","","","","","","","","","","","","","","","","","","","","","","","","","",""
"audio-keyboard-response","135","863044","0.0-4.0-1.0-0.38","1","0","j0e8e9kss88xvs2","","null","","sounds/induction/right_rev/fu_SWS.wav","","null","","","","","","","","","","","","","","","","","","","","","","","","","","","","","","","",""
"html-button-response","136","863553","0.0-4.0-1.0-1.38","1","0","j0e8e9kss88xvs2","","507.9000000357628","","Was the sound coming from the left or the right?","1","","","1","INDUCTION-JUDGMENT","right","1","","","","","","","","","","","","","","","","","","","","","","","","","","",""
"html-keyboard-response","137","864555","0.0-4.0-1.0-2.38","1","0","j0e8e9kss88xvs2","","null","","<p style=""color:#054d00;""><b>Correct!</b></p>","","null","","","","","","","","","","","","","","","","","","","","","","","","","","","","","","","",""
"audio-keyboard-response","138","865359","0.0-4.0-1.0-0.39","1","0","j0e8e9kss88xvs2","","null","","sounds/induction/right_rev/ta_SWS.wav","","null","","","","","","","","","","","","","","","","","","","","","","","","","","","","","","","",""
"html-button-response","139","865896","0.0-4.0-1.0-1.39","1","0","j0e8e9kss88xvs2","","536.1999999880791","","Was the sound coming from the left or the right?","1","","","1","INDUCTION-JUDGMENT","right","1","","","","","","","","","","","","","","","","","","","","","","","","","","",""
"html-keyboard-response","140","866897","0.0-4.0-1.0-2.39","1","0","j0e8e9kss88xvs2","","null","","<p style=""color:#054d00;""><b>Correct!</b></p>","","null","","","","","","","","","","","","","","","","","","","","","","","","","","","","","","","",""
"audio-keyboard-response","141","867700","0.0-4.0-1.0-0.40","1","0","j0e8e9kss88xvs2","","null","","sounds/induction/right_rev/fe_SWS.wav","","null","","","","","","","","","","","","","","","","","","","","","","","","","","","","","","","",""
"html-button-response","142","868195","0.0-4.0-1.0-1.40","1","0","j0e8e9kss88xvs2","","493.69999998807907","","Was the sound coming from the left or the right?","1","","","1","INDUCTION-JUDGMENT","right","1","","","","","","","","","","","","","","","","","","","","","","","","","","",""
"html-keyboard-response","143","869196","0.0-4.0-1.0-2.40","1","0","j0e8e9kss88xvs2","","null","","<p style=""color:#054d00;""><b>Correct!</b></p>","","null","","","","","","","","","","","","","","","","","","","","","","","","","","","","","","","",""
"audio-keyboard-response","144","869999","0.0-4.0-1.0-0.41","1","0","j0e8e9kss88xvs2","","null","","sounds/induction/left_rev/pu_SWS.wav","","null","","","","","","","","","","","","","","","","","","","","","","","","","","","","","","","",""
"html-button-response","145","870984","0.0-4.0-1.0-1.41","1","0","j0e8e9kss88xvs2","","984.3000000119209","","Was the sound coming from the left or the right?","0","","","1","INDUCTION-JUDGMENT","left","0","","","","","","","","","","","","","","","","","","","","","","","","","","",""
"html-keyboard-response","146","871986","0.0-4.0-1.0-2.41","1","0","j0e8e9kss88xvs2","","null","","<p style=""color:#054d00;""><b>Correct!</b></p>","","null","","","","","","","","","","","","","","","","","","","","","","","","","","","","","","","",""
"audio-keyboard-response","147","872788","0.0-4.0-1.0-0.42","1","0","j0e8e9kss88xvs2","","null","","sounds/induction/left_rev/ti_SWS.wav","","null","","","","","","","","","","","","","","","","","","","","","","","","","","","","","","","",""
"html-button-response","148","873480","0.0-4.0-1.0-1.42","1","0","j0e8e9kss88xvs2","","691.0999999642372","","Was the sound coming from the left or the right?","0","","","1","INDUCTION-JUDGMENT","left","0","","","","","","","","","","","","","","","","","","","","","","","","","","",""
"html-keyboard-response","149","874482","0.0-4.0-1.0-2.42","1","0","j0e8e9kss88xvs2","","null","","<p style=""color:#054d00;""><b>Correct!</b></p>","","null","","","","","","","","","","","","","","","","","","","","","","","","","","","","","","","",""
"audio-keyboard-response","150","875284","0.0-4.0-1.0-0.43","1","0","j0e8e9kss88xvs2","","null","","sounds/induction/left_rev/fu_SWS.wav","","null","","","","","","","","","","","","","","","","","","","","","","","","","","","","","","","",""
"html-button-response","151","876062","0.0-4.0-1.0-1.43","1","0","j0e8e9kss88xvs2","","776.5999999642372","","Was the sound coming from the left or the right?","0","","","1","INDUCTION-JUDGMENT","left","0","","","","","","","","","","","","","","","","","","","","","","","","","","",""
"html-keyboard-response","152","877063","0.0-4.0-1.0-2.43","1","0","j0e8e9kss88xvs2","","null","","<p style=""color:#054d00;""><b>Correct!</b></p>","","null","","","","","","","","","","","","","","","","","","","","","","","","","","","","","","","",""
"audio-keyboard-response","153","877866","0.0-4.0-1.0-0.44","1","0","j0e8e9kss88xvs2","","null","","sounds/induction/right_rev/ta_SWS.wav","","null","","","","","","","","","","","","","","","","","","","","","","","","","","","","","","","",""
"html-button-response","154","878457","0.0-4.0-1.0-1.44","1","0","j0e8e9kss88xvs2","","590.6000000238419","","Was the sound coming from the left or the right?","1","","","1","INDUCTION-JUDGMENT","right","1","","","","","","","","","","","","","","","","","","","","","","","","","","",""
"html-keyboard-response","155","879463","0.0-4.0-1.0-2.44","1","0","j0e8e9kss88xvs2","","null","","<p style=""color:#054d00;""><b>Correct!</b></p>","","null","","","","","","","","","","","","","","","","","","","","","","","","","","","","","","","",""
"audio-keyboard-response","156","880266","0.0-4.0-1.0-0.45","1","0","j0e8e9kss88xvs2","","null","","sounds/induction/right_rev/me_SWS.wav","","null","","","","","","","","","","","","","","","","","","","","","","","","","","","","","","","",""
"html-button-response","157","880928","0.0-4.0-1.0-1.45","1","0","j0e8e9kss88xvs2","","661.0999999642372","","Was the sound coming from the left or the right?","1","","","1","INDUCTION-JUDGMENT","right","1","","","","","","","","","","","","","","","","","","","","","","","","","","",""
"html-keyboard-response","158","881929","0.0-4.0-1.0-2.45","1","0","j0e8e9kss88xvs2","","null","","<p style=""color:#054d00;""><b>Correct!</b></p>","","null","","","","","","","","","","","","","","","","","","","","","","","","","","","","","","","",""
"audio-keyboard-response","159","882730","0.0-4.0-1.0-0.46","1","0","j0e8e9kss88xvs2","","null","","sounds/induction/left_rev/re_SWS.wav","","null","","","","","","","","","","","","","","","","","","","","","","","","","","","","","","","",""
"html-button-response","160","883526","0.0-4.0-1.0-1.46","1","0","j0e8e9kss88xvs2","","795.5","","Was the sound coming from the left or the right?","1","","","0","INDUCTION-JUDGMENT","left","0","","","","","","","","","","","","","","","","","","","","","","","","","","",""
"html-keyboard-response","161","884527","0.0-4.0-1.0-2.46","1","0","j0e8e9kss88xvs2","","null","","<p style=""color:#690000;""><b>Incorrect!</b></p>","","null","","","","","","","","","","","","","","","","","","","","","","","","","","","","","","","",""
"audio-keyboard-response","162","885327","0.0-4.0-1.0-0.47","1","0","j0e8e9kss88xvs2","","null","","sounds/induction/left_rev/fe_SWS.wav","","null","","","","","","","","","","","","","","","","","","","","","","","","","","","","","","","",""
"html-button-response","163","886326","0.0-4.0-1.0-1.47","1","0","j0e8e9kss88xvs2","","998.1000000238419","","Was the sound coming from the left or the right?","0","","","1","INDUCTION-JUDGMENT","left","0","","","","","","","","","","","","","","","","","","","","","","","","","","",""
"html-keyboard-response","164","887327","0.0-4.0-1.0-2.47","1","0","j0e8e9kss88xvs2","","null","","<p style=""color:#054d00;""><b>Correct!</b></p>","","null","","","","","","","","","","","","","","","","","","","","","","","","","","","","","","","",""
"html-button-response","165","895360","0.0-5.0-0.0","1","0","j0e8e9kss88xvs2","","7530.199999988079","","<p>Thank you for your answers.</p><p>You will now listen to similar sounds. The main difference is that the sounds will be longer.</p><p>Just as before, you will be asked to judge whether the sound was coming from the left or the right.</p><p>There are 10 of these longer sounds in total.","0","","","","","","","","","","","","","","","","","","","","","","","","","","","","","","","","",""
"audio-keyboard-response","166","897946","0.0-5.0-1.0-0.0","1","0","j0e8e9kss88xvs2","","null","","sounds/sentences/left_rev/14_03_cfSWS.wav","","null","","","","","","","","","","","","","","","","","","","","","","","","","","","","","","","",""
"html-button-response","167","898782","0.0-5.0-1.0-1.0","1","0","j0e8e9kss88xvs2","","835.1999999880791","","Was the sound coming from the left or the right?","0","","","1","INDUCTION-JUDGMENT","left","0","","","","","","","","","","","","","","","","","","","","","","","","","","",""
"html-keyboard-response","168","899785","0.0-5.0-1.0-2.0","1","0","j0e8e9kss88xvs2","","null","","<p style=""color:#054d00;""><b>Correct!</b></p>","","null","","","","","","","","","","","","","","","","","","","","","","","","","","","","","","","",""
"html-button-response","169","901485","0.0-5.0-1.0-3.0","1","0","j0e8e9kss88xvs2","","1198.800000011921","","<p>Press the button below when you are ready to continue.</p>","0","","","","","","","","","","","","","","","","","","","","","","","","","","","","","","","","",""
"audio-keyboard-response","170","904228","0.0-5.0-1.0-0.1","1","0","j0e8e9kss88xvs2","","null","","sounds/sentences/right_rev/14_06_cfSWS.wav","","null","","","","","","","","","","","","","","","","","","","","","","","","","","","","","","","",""
"html-button-response","171","904809","0.0-5.0-1.0-1.1","1","0","j0e8e9kss88xvs2","","579.5999999642372","","Was the sound coming from the left or the right?","1","","","1","INDUCTION-JUDGMENT","right","1","","","","","","","","","","","","","","","","","","","","","","","","","","",""
"html-keyboard-response","172","905811","0.0-5.0-1.0-2.1","1","0","j0e8e9kss88xvs2","","null","","<p style=""color:#054d00;""><b>Correct!</b></p>","","null","","","","","","","","","","","","","","","","","","","","","","","","","","","","","","","",""
"html-button-response","173","906930","0.0-5.0-1.0-3.1","1","0","j0e8e9kss88xvs2","","617.8000000119209","","<p>Press the button below when you are ready to continue.</p>","0","","","","","","","","","","","","","","","","","","","","","","","","","","","","","","","","",""
"audio-keyboard-response","174","909818","0.0-5.0-1.0-0.2","1","0","j0e8e9kss88xvs2","","null","","sounds/sentences/right_rev/14_07_cfSWS.wav","","null","","","","","","","","","","","","","","","","","","","","","","","","","","","","","","","",""
"html-button-response","175","910502","0.0-5.0-1.0-1.2","1","0","j0e8e9kss88xvs2","","682.1999999880791","","Was the sound coming from the left or the right?","1","","","1","INDUCTION-JUDGMENT","right","1","","","","","","","","","","","","","","","","","","","","","","","","","","",""
"html-keyboard-response","176","911503","0.0-5.0-1.0-2.2","1","0","j0e8e9kss88xvs2","","null","","<p style=""color:#054d00;""><b>Correct!</b></p>","","null","","","","","","","","","","","","","","","","","","","","","","","","","","","","","","","",""
"html-button-response","177","912421","0.0-5.0-1.0-3.2","1","0","j0e8e9kss88xvs2","","416.5999999642372","","<p>Press the button below when you are ready to continue.</p>","0","","","","","","","","","","","","","","","","","","","","","","","","","","","","","","","","",""
"audio-keyboard-response","178","915178","0.0-5.0-1.0-0.3","1","0","j0e8e9kss88xvs2","","null","","sounds/sentences/right_rev/14_08_cfSWS.wav","","null","","","","","","","","","","","","","","","","","","","","","","","","","","","","","","","",""
"html-button-response","179","915699","0.0-5.0-1.0-1.3","1","0","j0e8e9kss88xvs2","","520.3000000119209","","Was the sound coming from the left or the right?","1","","","1","INDUCTION-JUDGMENT","right","1","","","","","","","","","","","","","","","","","","","","","","","","","","",""
"html-keyboard-response","180","916701","0.0-5.0-1.0-2.3","1","0","j0e8e9kss88xvs2","","null","","<p style=""color:#054d00;""><b>Correct!</b></p>","","null","","","","","","","","","","","","","","","","","","","","","","","","","","","","","","","",""
"html-button-response","181","917676","0.0-5.0-1.0-3.3","1","0","j0e8e9kss88xvs2","","474.80000001192093","","<p>Press the button below when you are ready to continue.</p>","0","","","","","","","","","","","","","","","","","","","","","","","","","","","","","","","","",""
"audio-keyboard-response","182","920405","0.0-5.0-1.0-0.4","1","0","j0e8e9kss88xvs2","","null","","sounds/sentences/right_rev/14_09_cfSWS.wav","","null","","","","","","","","","","","","","","","","","","","","","","","","","","","","","","","",""
"html-button-response","183","921319","0.0-5.0-1.0-1.4","1","0","j0e8e9kss88xvs2","","912","","Was the sound coming from the left or the right?","1","","","1","INDUCTION-JUDGMENT","right","1","","","","","","","","","","","","","","","","","","","","","","","","","","",""
"html-keyboard-response","184","922319","0.0-5.0-1.0-2.4","1","0","j0e8e9kss88xvs2","","null","","<p style=""color:#054d00;""><b>Correct!</b></p>","","null","","","","","","","","","","","","","","","","","","","","","","","","","","","","","","","",""
"html-button-response","185","923479","0.0-5.0-1.0-3.4","1","0","j0e8e9kss88xvs2","","658.8999999761581","","<p>Press the button below when you are ready to continue.</p>","0","","","","","","","","","","","","","","","","","","","","","","","","","","","","","","","","",""
"audio-keyboard-response","186","926031","0.0-5.0-1.0-0.5","1","0","j0e8e9kss88xvs2","","null","","sounds/sentences/left_rev/14_04_cfSWS.wav","","null","","","","","","","","","","","","","","","","","","","","","","","","","","","","","","","",""
"html-button-response","187","926477","0.0-5.0-1.0-1.5","1","0","j0e8e9kss88xvs2","","444.69999998807907","","Was the sound coming from the left or the right?","0","","","1","INDUCTION-JUDGMENT","left","0","","","","","","","","","","","","","","","","","","","","","","","","","","",""
"html-keyboard-response","188","927478","0.0-5.0-1.0-2.5","1","0","j0e8e9kss88xvs2","","null","","<p style=""color:#054d00;""><b>Correct!</b></p>","","null","","","","","","","","","","","","","","","","","","","","","","","","","","","","","","","",""
"html-button-response","189","928424","0.0-5.0-1.0-3.5","1","0","j0e8e9kss88xvs2","","445.5","","<p>Press the button below when you are ready to continue.</p>","0","","","","","","","","","","","","","","","","","","","","","","","","","","","","","","","","",""
"audio-keyboard-response","190","931439","0.0-5.0-1.0-0.6","1","0","j0e8e9kss88xvs2","","null","","sounds/sentences/right_rev/14_10_cfSWS.wav","","null","","","","","","","","","","","","","","","","","","","","","","","","","","","","","","","",""
"html-button-response","191","931955","0.0-5.0-1.0-1.6","1","0","j0e8e9kss88xvs2","","515.1000000238419","","Was the sound coming from the left or the right?","1","","","1","INDUCTION-JUDGMENT","right","1","","","","","","","","","","","","","","","","","","","","","","","","","","",""
"html-keyboard-response","192","932956","0.0-5.0-1.0-2.6","1","0","j0e8e9kss88xvs2","","null","","<p style=""color:#054d00;""><b>Correct!</b></p>","","null","","","","","","","","","","","","","","","","","","","","","","","","","","","","","","","",""
"html-button-response","193","933830","0.0-5.0-1.0-3.6","1","0","j0e8e9kss88xvs2","","373.30000001192093","","<p>Press the button below when you are ready to continue.</p>","0","","","","","","","","","","","","","","","","","","","","","","","","","","","","","","","","",""
"audio-keyboard-response","194","936820","0.0-5.0-1.0-0.7","1","0","j0e8e9kss88xvs2","","null","","sounds/sentences/left_rev/14_05_cfSWS.wav","","null","","","","","","","","","","","","","","","","","","","","","","","","","","","","","","","",""
"html-button-response","195","937395","0.0-5.0-1.0-1.7","1","0","j0e8e9kss88xvs2","","573.6999999880791","","Was the sound coming from the left or the right?","0","","","1","INDUCTION-JUDGMENT","left","0","","","","","","","","","","","","","","","","","","","","","","","","","","",""
"html-keyboard-response","196","938399","0.0-5.0-1.0-2.7","1","0","j0e8e9kss88xvs2","","null","","<p style=""color:#054d00;""><b>Correct!</b></p>","","null","","","","","","","","","","","","","","","","","","","","","","","","","","","","","","","",""
"html-button-response","197","939548","0.0-5.0-1.0-3.7","1","0","j0e8e9kss88xvs2","","645.6000000238419","","<p>Press the button below when you are ready to continue.</p>","0","","","","","","","","","","","","","","","","","","","","","","","","","","","","","","","","",""
"audio-keyboard-response","198","942367","0.0-5.0-1.0-0.8","1","0","j0e8e9kss88xvs2","","null","","sounds/sentences/left_rev/14_02_cfSWS.wav","","null","","","","","","","","","","","","","","","","","","","","","","","","","","","","","","","",""
"html-button-response","199","942951","0.0-5.0-1.0-1.8","1","0","j0e8e9kss88xvs2","","582.3000000119209","","Was the sound coming from the left or the right?","0","","","1","INDUCTION-JUDGMENT","left","0","","","","","","","","","","","","","","","","","","","","","","","","","","",""
"html-keyboard-response","200","943952","0.0-5.0-1.0-2.8","1","0","j0e8e9kss88xvs2","","null","","<p style=""color:#054d00;""><b>Correct!</b></p>","","null","","","","","","","","","","","","","","","","","","","","","","","","","","","","","","","",""
"html-button-response","201","944946","0.0-5.0-1.0-3.8","1","0","j0e8e9kss88xvs2","","492.69999998807907","","<p>Press the button below when you are ready to continue.</p>","0","","","","","","","","","","","","","","","","","","","","","","","","","","","","","","","","",""
"audio-keyboard-response","202","948063","0.0-5.0-1.0-0.9","1","0","j0e8e9kss88xvs2","","null","","sounds/sentences/left_rev/14_01_cfSWS.wav","","null","","","","","","","","","","","","","","","","","","","","","","","","","","","","","","","",""
"html-button-response","203","948563","0.0-5.0-1.0-1.9","1","0","j0e8e9kss88xvs2","","498.7000000476837","","Was the sound coming from the left or the right?","0","","","1","INDUCTION-JUDGMENT","left","0","","","","","","","","","","","","","","","","","","","","","","","","","","",""
"html-keyboard-response","204","949564","0.0-5.0-1.0-2.9","1","0","j0e8e9kss88xvs2","","null","","<p style=""color:#054d00;""><b>Correct!</b></p>","","null","","","","","","","","","","","","","","","","","","","","","","","","","","","","","","","",""
"html-button-response","205","950501","0.0-5.0-1.0-3.9","1","0","j0e8e9kss88xvs2","","435.5","","<p>Press the button below when you are ready to continue.</p>","0","","","","","","","","","","","","","","","","","","","","","","","","","","","","","","","","",""
"html-keyboard-response","206","976036","0.0-6.0-0.0","1","0","j0e8e9kss88xvs2","","25034.19999998808","","<p>In this part of the study, you will hear sounds similar to those you just heard.</p><p>Please focus on these sounds, as you may be asked questions about them later.</p><p>Occasionally, the sounds will pause for up to two seconds. When this happens, please press SPACEBAR as quickly as you can.</br>This helps ensure that you are paying attention to the sounds.</p><p>This part of the study will take about 12 minutes to complete, and you will be given the opportunity to take a couple of short breaks every few minutes.</p><p><strong>Press SPACEBAR to begin</strong></p>","","32","","","","","","","","","","","","","","","","","","","","","","","","","","","","","","","",""
"html-keyboard-response","207","977038","0.0-6.0-1.0-0.0","1","0","j0e8e9kss88xvs2","","null","","<p style=""font-size: 40px;"">+</p>","","null","","","","","","","","","","","","","","","","","","","","","","","","","","","","","","","",""
"html-keyboard-response","208","1162043","0.0-6.0-1.0-1.0","1","0","j0e8e9kss88xvs2","","null","","","","null","","","SL-TRAIN","","","0","733","734.8000000119209","sounds/A/TRAIN/SEQ__01.mp3","504","","","","","","","","","","","","","","","","","","","","","",""
"html-button-response","209","1164435","0.0-6.0-1.0-2.0","1","0","j0e8e9kss88xvs2","","2390.300000011921","","<p>You may take a short break if you wish.</p>","0","","","","","","","","","","","","","","","","","","","","","","","","","","","","","","","","",""
"html-keyboard-response","210","1165440","0.0-6.0-1.0-3.0","1","0","j0e8e9kss88xvs2","","null","","<p style=""font-size: 40px;"">+</p>","","null","","","","","","","","","","","","","","","","","","","","","","","","","","","","","","","",""
"html-keyboard-response","211","1350443","0.0-6.0-1.0-4.0","1","0","j0e8e9kss88xvs2","","null","","","","null","","","SL-TRAIN","","","0","933.8000000119209","603.6000000238419","sounds/A/TRAIN/SEQ__06.mp3","1235","","","","","","","","","","","","","","","","","","","","","",""
"html-button-response","212","1352244","0.0-6.0-1.0-5.0","1","0","j0e8e9kss88xvs2","","1799.9000000357628","","<p>You may take a short break if you wish.</p>","0","","","","","","","","","","","","","","","","","","","","","","","","","","","","","","","","",""
"html-keyboard-response","213","1353246","0.0-6.0-1.0-6.0","1","0","j0e8e9kss88xvs2","","null","","<p style=""font-size: 40px;"">+</p>","","null","","","","","","","","","","","","","","","","","","","","","","","","","","","","","","","",""
"html-keyboard-response","214","1538236","0.0-6.0-1.0-7.0","1","0","j0e8e9kss88xvs2","","null","","","","null","","","SL-TRAIN","","","0","751.5","1972.9000000357628","sounds/A/TRAIN/SEQ__12.mp3","1648","","","","","","","","","","","","","","","","","","","","","",""
"html-button-response","215","1539936","0.0-6.0-1.0-8.0","1","0","j0e8e9kss88xvs2","","1698.699999988079","","<p>You may take a short break if you wish.</p>","0","","","","","","","","","","","","","","","","","","","","","","","","","","","","","","","","",""
"html-keyboard-response","216","1540936","0.0-6.0-1.0-9.0","1","0","j0e8e9kss88xvs2","","null","","<p style=""font-size: 40px;"">+</p>","","null","","","","","","","","","","","","","","","","","","","","","","","","","","","","","","","",""
"html-keyboard-response","217","1725936","0.0-6.0-1.0-10.0","1","0","j0e8e9kss88xvs2","","null","","","","null","","","SL-TRAIN","","","0","1752.5999999642372","1621.800000011921","sounds/A/TRAIN/SEQ__10.mp3","453","","","","","","","","","","","","","","","","","","","","","",""
"html-button-response","218","1729953","0.0-6.0-1.0-11.0","1","0","j0e8e9kss88xvs2","","4015.699999988079","","<p>You may take a short break if you wish.</p>","0","","","","","","","","","","","","","","","","","","","","","","","","","","","","","","","","",""
"html-button-response","219","1737776","0.0-7.0-0.0","1","0","j0e8e9kss88xvs2","","7822.199999988079","","<p>Welcome to the second part of the study. This is a <u>familiarity task</u>.</p><p>You will now hear short sounds and will be asked to rate how familiar they sound to you <b>based on what you heard in the previous part of the study</b>.</p><p>You will rate 12 sounds in total.</p>","0","","","","","","","","","","","","","","","","","","","","","","","","","","","","","","","","",""
"html-keyboard-response","220","1738777","0.0-7.0-1.0-0.0","1","0","j0e8e9kss88xvs2","","null","","","","null","","","","","","","","","","","","","","","","","","","","","","","","","","","","","","","",""
"audio-keyboard-response","221","1739850","0.0-7.0-1.0-1.0","1","0","j0e8e9kss88xvs2","","null","","sounds/A/FAM/N001.mp3","","null","","","","","","","","","","","","","","","","","","","","","","","","","","","","","","","",""
"html-keyboard-response","222","1743973","0.0-7.0-1.0-2.0","1","0","j0e8e9kss88xvs2","","3621","","<p>How familiar did this sound to you?</p><p>1&nbsp;&nbsp;&nbsp;&nbsp;&nbsp;&nbsp;&nbsp;&nbsp;&nbsp;&nbsp;&nbsp;&nbsp;&nbsp;&nbsp;&nbsp;&nbsp;&nbsp;&nbsp;&nbsp;2&nbsp;&nbsp;&nbsp;&nbsp;&nbsp;&nbsp;&nbsp;&nbsp;&nbsp;&nbsp;&nbsp;&nbsp;&nbsp;&nbsp;&nbsp;&nbsp;&nbsp;&nbsp;&nbsp;3&nbsp;&nbsp;&nbsp;&nbsp;&nbsp;&nbsp;&nbsp;&nbsp;&nbsp;&nbsp;&nbsp;&nbsp;&nbsp;&nbsp;&nbsp;&nbsp;&nbsp;&nbsp;&nbsp;4</p><p style=""font-size:14px"">Not at all familiar&nbsp;&nbsp;&nbsp;&nbsp;A little familiar&nbsp;&nbsp;&nbsp;Moderately familiar&nbsp;&nbsp;&nbsp;Extremely familiar</p><p>(press the corresponding number on your keyboard)</p>","","51","","","FAM-RESPONSE","","","","","","","","sounds/A/FAM/N001.mp3","nonword","","","","","","","","","","","","","","","","","","","",""
"html-keyboard-response","223","1745974","0.0-7.0-1.0-0.1","1","0","j0e8e9kss88xvs2","","null","","","","null","","","","","","","","","","","","","","","","","","","","","","","","","","","","","","","",""
"audio-keyboard-response","224","1746917","0.0-7.0-1.0-1.1","1","0","j0e8e9kss88xvs2","","null","","sounds/A/FAM/N002.mp3","","null","","","","","","","","","","","","","","","","","","","","","","","","","","","","","","","",""
"html-keyboard-response","225","1748042","0.0-7.0-1.0-2.1","1","0","j0e8e9kss88xvs2","","623.1999999880791","","<p>How familiar did this sound to you?</p><p>1&nbsp;&nbsp;&nbsp;&nbsp;&nbsp;&nbsp;&nbsp;&nbsp;&nbsp;&nbsp;&nbsp;&nbsp;&nbsp;&nbsp;&nbsp;&nbsp;&nbsp;&nbsp;&nbsp;2&nbsp;&nbsp;&nbsp;&nbsp;&nbsp;&nbsp;&nbsp;&nbsp;&nbsp;&nbsp;&nbsp;&nbsp;&nbsp;&nbsp;&nbsp;&nbsp;&nbsp;&nbsp;&nbsp;3&nbsp;&nbsp;&nbsp;&nbsp;&nbsp;&nbsp;&nbsp;&nbsp;&nbsp;&nbsp;&nbsp;&nbsp;&nbsp;&nbsp;&nbsp;&nbsp;&nbsp;&nbsp;&nbsp;4</p><p style=""font-size:14px"">Not at all familiar&nbsp;&nbsp;&nbsp;&nbsp;A little familiar&nbsp;&nbsp;&nbsp;Moderately familiar&nbsp;&nbsp;&nbsp;Extremely familiar</p><p>(press the corresponding number on your keyboard)</p>","","52","","","FAM-RESPONSE","","","","","","","","sounds/A/FAM/N002.mp3","nonword","","","","","","","","","","","","","","","","","","","",""
"html-keyboard-response","226","1750047","0.0-7.0-1.0-0.2","1","0","j0e8e9kss88xvs2","","null","","","","null","","","","","","","","","","","","","","","","","","","","","","","","","","","","","","","",""
"audio-keyboard-response","227","1750986","0.0-7.0-1.0-1.2","1","0","j0e8e9kss88xvs2","","null","","sounds/A/FAM/N004.mp3","","null","","","","","","","","","","","","","","","","","","","","","","","","","","","","","","","",""
"html-keyboard-response","228","1752302","0.0-7.0-1.0-2.2","1","0","j0e8e9kss88xvs2","","813.5","","<p>How familiar did this sound to you?</p><p>1&nbsp;&nbsp;&nbsp;&nbsp;&nbsp;&nbsp;&nbsp;&nbsp;&nbsp;&nbsp;&nbsp;&nbsp;&nbsp;&nbsp;&nbsp;&nbsp;&nbsp;&nbsp;&nbsp;2&nbsp;&nbsp;&nbsp;&nbsp;&nbsp;&nbsp;&nbsp;&nbsp;&nbsp;&nbsp;&nbsp;&nbsp;&nbsp;&nbsp;&nbsp;&nbsp;&nbsp;&nbsp;&nbsp;3&nbsp;&nbsp;&nbsp;&nbsp;&nbsp;&nbsp;&nbsp;&nbsp;&nbsp;&nbsp;&nbsp;&nbsp;&nbsp;&nbsp;&nbsp;&nbsp;&nbsp;&nbsp;&nbsp;4</p><p style=""font-size:14px"">Not at all familiar&nbsp;&nbsp;&nbsp;&nbsp;A little familiar&nbsp;&nbsp;&nbsp;Moderately familiar&nbsp;&nbsp;&nbsp;Extremely familiar</p><p>(press the corresponding number on your keyboard)</p>","","49","","","FAM-RESPONSE","","","","","","","","sounds/A/FAM/N004.mp3","nonword","","","","","","","","","","","","","","","","","","","",""
"html-keyboard-response","229","1754306","0.0-7.0-1.0-0.3","1","0","j0e8e9kss88xvs2","","null","","","","null","","","","","","","","","","","","","","","","","","","","","","","","","","","","","","","",""
"audio-keyboard-response","230","1755247","0.0-7.0-1.0-1.3","1","0","j0e8e9kss88xvs2","","null","","sounds/A/FAM/W002.mp3","","null","","","","","","","","","","","","","","","","","","","","","","","","","","","","","","","",""
"html-keyboard-response","231","1755928","0.0-7.0-1.0-2.3","1","0","j0e8e9kss88xvs2","","178.19999998807907","","<p>How familiar did this sound to you?</p><p>1&nbsp;&nbsp;&nbsp;&nbsp;&nbsp;&nbsp;&nbsp;&nbsp;&nbsp;&nbsp;&nbsp;&nbsp;&nbsp;&nbsp;&nbsp;&nbsp;&nbsp;&nbsp;&nbsp;2&nbsp;&nbsp;&nbsp;&nbsp;&nbsp;&nbsp;&nbsp;&nbsp;&nbsp;&nbsp;&nbsp;&nbsp;&nbsp;&nbsp;&nbsp;&nbsp;&nbsp;&nbsp;&nbsp;3&nbsp;&nbsp;&nbsp;&nbsp;&nbsp;&nbsp;&nbsp;&nbsp;&nbsp;&nbsp;&nbsp;&nbsp;&nbsp;&nbsp;&nbsp;&nbsp;&nbsp;&nbsp;&nbsp;4</p><p style=""font-size:14px"">Not at all familiar&nbsp;&nbsp;&nbsp;&nbsp;A little familiar&nbsp;&nbsp;&nbsp;Moderately familiar&nbsp;&nbsp;&nbsp;Extremely familiar</p><p>(press the corresponding number on your keyboard)</p>","","51","","","FAM-RESPONSE","","","","","","","","sounds/A/FAM/W002.mp3","word","","","","","","","","","","","","","","","","","","","",""
"html-keyboard-response","232","1757931","0.0-7.0-1.0-0.4","1","0","j0e8e9kss88xvs2","","null","","","","null","","","","","","","","","","","","","","","","","","","","","","","","","","","","","","","",""
"audio-keyboard-response","233","1758875","0.0-7.0-1.0-1.4","1","0","j0e8e9kss88xvs2","","null","","sounds/A/FAM/W003.mp3","","null","","","","","","","","","","","","","","","","","","","","","","","","","","","","","","","",""
"html-keyboard-response","234","1759380","0.0-7.0-1.0-2.4","1","0","j0e8e9kss88xvs2","","4.5","","<p>How familiar did this sound to you?</p><p>1&nbsp;&nbsp;&nbsp;&nbsp;&nbsp;&nbsp;&nbsp;&nbsp;&nbsp;&nbsp;&nbsp;&nbsp;&nbsp;&nbsp;&nbsp;&nbsp;&nbsp;&nbsp;&nbsp;2&nbsp;&nbsp;&nbsp;&nbsp;&nbsp;&nbsp;&nbsp;&nbsp;&nbsp;&nbsp;&nbsp;&nbsp;&nbsp;&nbsp;&nbsp;&nbsp;&nbsp;&nbsp;&nbsp;3&nbsp;&nbsp;&nbsp;&nbsp;&nbsp;&nbsp;&nbsp;&nbsp;&nbsp;&nbsp;&nbsp;&nbsp;&nbsp;&nbsp;&nbsp;&nbsp;&nbsp;&nbsp;&nbsp;4</p><p style=""font-size:14px"">Not at all familiar&nbsp;&nbsp;&nbsp;&nbsp;A little familiar&nbsp;&nbsp;&nbsp;Moderately familiar&nbsp;&nbsp;&nbsp;Extremely familiar</p><p>(press the corresponding number on your keyboard)</p>","","49","","","FAM-RESPONSE","","","","","","","","sounds/A/FAM/W003.mp3","word","","","","","","","","","","","","","","","","","","","",""
"html-keyboard-response","235","1761386","0.0-7.0-1.0-0.5","1","0","j0e8e9kss88xvs2","","null","","","","null","","","","","","","","","","","","","","","","","","","","","","","","","","","","","","","",""
"audio-keyboard-response","236","1762330","0.0-7.0-1.0-1.5","1","0","j0e8e9kss88xvs2","","null","","sounds/A/FAM/N003.mp3","","null","","","","","","","","","","","","","","","","","","","","","","","","","","","","","","","",""
"html-keyboard-response","237","1762915","0.0-7.0-1.0-2.5","1","0","j0e8e9kss88xvs2","","84.09999996423721","","<p>How familiar did this sound to you?</p><p>1&nbsp;&nbsp;&nbsp;&nbsp;&nbsp;&nbsp;&nbsp;&nbsp;&nbsp;&nbsp;&nbsp;&nbsp;&nbsp;&nbsp;&nbsp;&nbsp;&nbsp;&nbsp;&nbsp;2&nbsp;&nbsp;&nbsp;&nbsp;&nbsp;&nbsp;&nbsp;&nbsp;&nbsp;&nbsp;&nbsp;&nbsp;&nbsp;&nbsp;&nbsp;&nbsp;&nbsp;&nbsp;&nbsp;3&nbsp;&nbsp;&nbsp;&nbsp;&nbsp;&nbsp;&nbsp;&nbsp;&nbsp;&nbsp;&nbsp;&nbsp;&nbsp;&nbsp;&nbsp;&nbsp;&nbsp;&nbsp;&nbsp;4</p><p style=""font-size:14px"">Not at all familiar&nbsp;&nbsp;&nbsp;&nbsp;A little familiar&nbsp;&nbsp;&nbsp;Moderately familiar&nbsp;&nbsp;&nbsp;Extremely familiar</p><p>(press the corresponding number on your keyboard)</p>","","49","","","FAM-RESPONSE","","","","","","","","sounds/A/FAM/N003.mp3","nonword","","","","","","","","","","","","","","","","","","","",""
"html-keyboard-response","238","1764917","0.0-7.0-1.0-0.6","1","0","j0e8e9kss88xvs2","","null","","","","null","","","","","","","","","","","","","","","","","","","","","","","","","","","","","","","",""
"audio-keyboard-response","239","1765861","0.0-7.0-1.0-1.6","1","0","j0e8e9kss88xvs2","","null","","sounds/A/FAM/W001.mp3","","null","","","","","","","","","","","","","","","","","","","","","","","","","","","","","","","",""
"html-keyboard-response","240","1766373","0.0-7.0-1.0-2.6","1","0","j0e8e9kss88xvs2","","11.300000011920929","","<p>How familiar did this sound to you?</p><p>1&nbsp;&nbsp;&nbsp;&nbsp;&nbsp;&nbsp;&nbsp;&nbsp;&nbsp;&nbsp;&nbsp;&nbsp;&nbsp;&nbsp;&nbsp;&nbsp;&nbsp;&nbsp;&nbsp;2&nbsp;&nbsp;&nbsp;&nbsp;&nbsp;&nbsp;&nbsp;&nbsp;&nbsp;&nbsp;&nbsp;&nbsp;&nbsp;&nbsp;&nbsp;&nbsp;&nbsp;&nbsp;&nbsp;3&nbsp;&nbsp;&nbsp;&nbsp;&nbsp;&nbsp;&nbsp;&nbsp;&nbsp;&nbsp;&nbsp;&nbsp;&nbsp;&nbsp;&nbsp;&nbsp;&nbsp;&nbsp;&nbsp;4</p><p style=""font-size:14px"">Not at all familiar&nbsp;&nbsp;&nbsp;&nbsp;A little familiar&nbsp;&nbsp;&nbsp;Moderately familiar&nbsp;&nbsp;&nbsp;Extremely familiar</p><p>(press the corresponding number on your keyboard)</p>","","52","","","FAM-RESPONSE","","","","","","","","sounds/A/FAM/W001.mp3","word","","","","","","","","","","","","","","","","","","","",""
"html-keyboard-response","241","1768374","0.0-7.0-1.0-0.7","1","0","j0e8e9kss88xvs2","","null","","","","null","","","","","","","","","","","","","","","","","","","","","","","","","","","","","","","",""
"audio-keyboard-response","242","1769317","0.0-7.0-1.0-1.7","1","0","j0e8e9kss88xvs2","","null","","sounds/A/FAM/P002.mp3","","null","","","","","","","","","","","","","","","","","","","","","","","","","","","","","","","",""
"html-keyboard-response","243","1769905","0.0-7.0-1.0-2.7","1","0","j0e8e9kss88xvs2","","88","","<p>How familiar did this sound to you?</p><p>1&nbsp;&nbsp;&nbsp;&nbsp;&nbsp;&nbsp;&nbsp;&nbsp;&nbsp;&nbsp;&nbsp;&nbsp;&nbsp;&nbsp;&nbsp;&nbsp;&nbsp;&nbsp;&nbsp;2&nbsp;&nbsp;&nbsp;&nbsp;&nbsp;&nbsp;&nbsp;&nbsp;&nbsp;&nbsp;&nbsp;&nbsp;&nbsp;&nbsp;&nbsp;&nbsp;&nbsp;&nbsp;&nbsp;3&nbsp;&nbsp;&nbsp;&nbsp;&nbsp;&nbsp;&nbsp;&nbsp;&nbsp;&nbsp;&nbsp;&nbsp;&nbsp;&nbsp;&nbsp;&nbsp;&nbsp;&nbsp;&nbsp;4</p><p style=""font-size:14px"">Not at all familiar&nbsp;&nbsp;&nbsp;&nbsp;A little familiar&nbsp;&nbsp;&nbsp;Moderately familiar&nbsp;&nbsp;&nbsp;Extremely familiar</p><p>(press the corresponding number on your keyboard)</p>","","52","","","FAM-RESPONSE","","","","","","","","sounds/A/FAM/P002.mp3","partword","","","","","","","","","","","","","","","","","","","",""
"html-keyboard-response","244","1771909","0.0-7.0-1.0-0.8","1","0","j0e8e9kss88xvs2","","null","","","","null","","","","","","","","","","","","","","","","","","","","","","","","","","","","","","","",""
"audio-keyboard-response","245","1772853","0.0-7.0-1.0-1.8","1","0","j0e8e9kss88xvs2","","null","","sounds/A/FAM/P001.mp3","","null","","","","","","","","","","","","","","","","","","","","","","","","","","","","","","","",""
"html-keyboard-response","246","1774702","0.0-7.0-1.0-2.8","1","0","j0e8e9kss88xvs2","","1348.6000000238419","","<p>How familiar did this sound to you?</p><p>1&nbsp;&nbsp;&nbsp;&nbsp;&nbsp;&nbsp;&nbsp;&nbsp;&nbsp;&nbsp;&nbsp;&nbsp;&nbsp;&nbsp;&nbsp;&nbsp;&nbsp;&nbsp;&nbsp;2&nbsp;&nbsp;&nbsp;&nbsp;&nbsp;&nbsp;&nbsp;&nbsp;&nbsp;&nbsp;&nbsp;&nbsp;&nbsp;&nbsp;&nbsp;&nbsp;&nbsp;&nbsp;&nbsp;3&nbsp;&nbsp;&nbsp;&nbsp;&nbsp;&nbsp;&nbsp;&nbsp;&nbsp;&nbsp;&nbsp;&nbsp;&nbsp;&nbsp;&nbsp;&nbsp;&nbsp;&nbsp;&nbsp;4</p><p style=""font-size:14px"">Not at all familiar&nbsp;&nbsp;&nbsp;&nbsp;A little familiar&nbsp;&nbsp;&nbsp;Moderately familiar&nbsp;&nbsp;&nbsp;Extremely familiar</p><p>(press the corresponding number on your keyboard)</p>","","52","","","FAM-RESPONSE","","","","","","","","sounds/A/FAM/P001.mp3","partword","","","","","","","","","","","","","","","","","","","",""
"html-keyboard-response","247","1776704","0.0-7.0-1.0-0.9","1","0","j0e8e9kss88xvs2","","null","","","","null","","","","","","","","","","","","","","","","","","","","","","","","","","","","","","","",""
"audio-keyboard-response","248","1777647","0.0-7.0-1.0-1.9","1","0","j0e8e9kss88xvs2","","null","","sounds/A/FAM/P003.mp3","","null","","","","","","","","","","","","","","","","","","","","","","","","","","","","","","","",""
"html-keyboard-response","249","1778704","0.0-7.0-1.0-2.9","1","0","j0e8e9kss88xvs2","","555","","<p>How familiar did this sound to you?</p><p>1&nbsp;&nbsp;&nbsp;&nbsp;&nbsp;&nbsp;&nbsp;&nbsp;&nbsp;&nbsp;&nbsp;&nbsp;&nbsp;&nbsp;&nbsp;&nbsp;&nbsp;&nbsp;&nbsp;2&nbsp;&nbsp;&nbsp;&nbsp;&nbsp;&nbsp;&nbsp;&nbsp;&nbsp;&nbsp;&nbsp;&nbsp;&nbsp;&nbsp;&nbsp;&nbsp;&nbsp;&nbsp;&nbsp;3&nbsp;&nbsp;&nbsp;&nbsp;&nbsp;&nbsp;&nbsp;&nbsp;&nbsp;&nbsp;&nbsp;&nbsp;&nbsp;&nbsp;&nbsp;&nbsp;&nbsp;&nbsp;&nbsp;4</p><p style=""font-size:14px"">Not at all familiar&nbsp;&nbsp;&nbsp;&nbsp;A little familiar&nbsp;&nbsp;&nbsp;Moderately familiar&nbsp;&nbsp;&nbsp;Extremely familiar</p><p>(press the corresponding number on your keyboard)</p>","","51","","","FAM-RESPONSE","","","","","","","","sounds/A/FAM/P003.mp3","partword","","","","","","","","","","","","","","","","","","","",""
"html-keyboard-response","250","1780709","0.0-7.0-1.0-0.10","1","0","j0e8e9kss88xvs2","","null","","","","null","","","","","","","","","","","","","","","","","","","","","","","","","","","","","","","",""
"audio-keyboard-response","251","1781653","0.0-7.0-1.0-1.10","1","0","j0e8e9kss88xvs2","","null","","sounds/A/FAM/P004.mp3","","null","","","","","","","","","","","","","","","","","","","","","","","","","","","","","","","",""
"html-keyboard-response","252","1782197","0.0-7.0-1.0-2.10","1","0","j0e8e9kss88xvs2","","43","","<p>How familiar did this sound to you?</p><p>1&nbsp;&nbsp;&nbsp;&nbsp;&nbsp;&nbsp;&nbsp;&nbsp;&nbsp;&nbsp;&nbsp;&nbsp;&nbsp;&nbsp;&nbsp;&nbsp;&nbsp;&nbsp;&nbsp;2&nbsp;&nbsp;&nbsp;&nbsp;&nbsp;&nbsp;&nbsp;&nbsp;&nbsp;&nbsp;&nbsp;&nbsp;&nbsp;&nbsp;&nbsp;&nbsp;&nbsp;&nbsp;&nbsp;3&nbsp;&nbsp;&nbsp;&nbsp;&nbsp;&nbsp;&nbsp;&nbsp;&nbsp;&nbsp;&nbsp;&nbsp;&nbsp;&nbsp;&nbsp;&nbsp;&nbsp;&nbsp;&nbsp;4</p><p style=""font-size:14px"">Not at all familiar&nbsp;&nbsp;&nbsp;&nbsp;A little familiar&nbsp;&nbsp;&nbsp;Moderately familiar&nbsp;&nbsp;&nbsp;Extremely familiar</p><p>(press the corresponding number on your keyboard)</p>","","52","","","FAM-RESPONSE","","","","","","","","sounds/A/FAM/P004.mp3","partword","","","","","","","","","","","","","","","","","","","",""
"html-keyboard-response","253","1784202","0.0-7.0-1.0-0.11","1","0","j0e8e9kss88xvs2","","null","","","","null","","","","","","","","","","","","","","","","","","","","","","","","","","","","","","","",""
"audio-keyboard-response","254","1785146","0.0-7.0-1.0-1.11","1","0","j0e8e9kss88xvs2","","null","","sounds/A/FAM/W004.mp3","","null","","","","","","","","","","","","","","","","","","","","","","","","","","","","","","","",""
"html-keyboard-response","255","1786366","0.0-7.0-1.0-2.11","1","0","j0e8e9kss88xvs2","","718.3999999761581","","<p>How familiar did this sound to you?</p><p>1&nbsp;&nbsp;&nbsp;&nbsp;&nbsp;&nbsp;&nbsp;&nbsp;&nbsp;&nbsp;&nbsp;&nbsp;&nbsp;&nbsp;&nbsp;&nbsp;&nbsp;&nbsp;&nbsp;2&nbsp;&nbsp;&nbsp;&nbsp;&nbsp;&nbsp;&nbsp;&nbsp;&nbsp;&nbsp;&nbsp;&nbsp;&nbsp;&nbsp;&nbsp;&nbsp;&nbsp;&nbsp;&nbsp;3&nbsp;&nbsp;&nbsp;&nbsp;&nbsp;&nbsp;&nbsp;&nbsp;&nbsp;&nbsp;&nbsp;&nbsp;&nbsp;&nbsp;&nbsp;&nbsp;&nbsp;&nbsp;&nbsp;4</p><p style=""font-size:14px"">Not at all familiar&nbsp;&nbsp;&nbsp;&nbsp;A little familiar&nbsp;&nbsp;&nbsp;Moderately familiar&nbsp;&nbsp;&nbsp;Extremely familiar</p><p>(press the corresponding number on your keyboard)</p>","","51","","","FAM-RESPONSE","","","","","","","","sounds/A/FAM/W004.mp3","word","","","","","","","","","","","","","","","","","","","",""
"html-button-response","256","1800949","0.0-8.0-0.0","1","0","j0e8e9kss88xvs2","","13578.599999964237","","<p>You will now listen to longer sound sequences.</p><p>Each sound sequence will last about 16 seconds.</p><p>On each trial, you will be given a <u>TARGET SOUND</u>. Your task is to listen very carefully for this sound.</p><p>Every time you hear the <u>TARGET SOUND</u>, you will press the <b>SPACEBAR</b> as quickly and accurately as you can.</p>","0","","","","","","","","","","","","","","","","","","","","","","","","","","","","","","","","",""
"html-button-response","257","1821192","0.0-8.0-1.0","1","0","j0e8e9kss88xvs2","","19990.19999998808","","<p>It is very important that you make your responses as quickly and accurately as possible.</p><p>To help you make your responses, you will be able to listen to the <u>TARGET SOUND</u> at the beginning of each trial.</p><p>There will be 36 total trials.</p><p><b>Note: This is meant to be a difficult task. We simply want you to try your best.</p>","0","","","","","","","","","","","","","","","","","","","","","","","","","","","","","","","","",""
"html-button-response","258","1823187","0.0-8.0-2.0-0.0","1","0","j0e8e9kss88xvs2","","1737.3999999761581","","<p>Trial 1 of 36</p>","0","","","","","","","","","","","","","","ME","sounds/syllables/me_SWS.wav","2400,5100,10500,12300","3","","","","","","","","","","","","","","","",""
"html-keyboard-response","259","1828150","0.0-8.0-2.0-1.0","1","0","j0e8e9kss88xvs2","","4962.699999988079","","","","80","","","","","","","","","","","","","ME","","2400,5100,10500,12300","3","","","","","","","","","","","","","","","",""
"audio-keyboard-response","260","1828931","0.0-8.0-2.0-2.0-0.0","1","0","j0e8e9kss88xvs2","","null","","sounds/syllables/me_SWS.wav","","null","","","","","","","","","","","","","","","","","","","","","","","","","","","","","","","",""
"html-keyboard-response","261","1831462","0.0-8.0-2.0-2.0-1.0","1","0","j0e8e9kss88xvs2","","2529.699999988079","","<p>To replay the <u>TARGET SOUND</u>, press P.</p> When you are ready to begin, press SPACEBAR.","","80","","","","","","","","","","","","","","","","","","","","","","","","","","","","","","","",""
"audio-keyboard-response","262","1832270","0.0-8.0-2.0-2.1-0.1","1","0","j0e8e9kss88xvs2","","null","","sounds/syllables/me_SWS.wav","","null","","","","","","","","","","","","","","","","","","","","","","","","","","","","","","","",""
"html-keyboard-response","263","1833398","0.0-8.0-2.0-2.1-1.1","1","0","j0e8e9kss88xvs2","","1127.4000000357628","","<p>To replay the <u>TARGET SOUND</u>, press P.</p> When you are ready to begin, press SPACEBAR.","","32","","","","","","","","","","","","","","","","","","","","","","","","","","","","","","","",""
"audio-keyboard-response","264","1848344","0.0-8.0-2.0-3.0","1","0","j0e8e9kss88xvs2","","2245","","sounds/A/TD/ME_06_TD.mp3","","32","","","TD_SUMMARY","","","","","","","","","","ME","","2400,5100,10500,12300","3","2400","5100","10500","12300","947.6000000238419","285","1028.4000000357628","null","2241.699999988079_3032.100000023842_3347.600000023842_4232.5_5385_6629.800000011921_7764.400000035763_9044.199999988079_10569.699999988079_11528.400000035763_14328.400000035763","2","","","","","",""
"html-button-response","265","1849574","0.0-8.0-2.0-0.1","1","0","j0e8e9kss88xvs2","","1227.5","","<p>Trial 2 of 36</p>","0","","","","","","","","","","","","","","FE","sounds/syllables/fe_SWS.wav","900,2700,6300,11700","1","","","","","","","","","","","","","","","",""
"html-keyboard-response","266","1851133","0.0-8.0-2.0-1.1","1","0","j0e8e9kss88xvs2","","1557.7999999523163","","","","80","","","","","","","","","","","","","FE","","900,2700,6300,11700","1","","","","","","","","","","","","","","","",""
"audio-keyboard-response","267","1851432","0.0-8.0-2.0-2.2-0.2","1","0","j0e8e9kss88xvs2","","null","","sounds/syllables/fe_SWS.wav","","null","","","","","","","","","","","","","","","","","","","","","","","","","","","","","","","",""
"html-keyboard-response","268","1852783","0.0-8.0-2.0-2.2-1.2","1","0","j0e8e9kss88xvs2","","1350","","<p>To replay the <u>TARGET SOUND</u>, press P.</p> When you are ready to begin, press SPACEBAR.","","32","","","","","","","","","","","","","","","","","","","","","","","","","","","","","","","",""
"audio-keyboard-response","269","1867737","0.0-8.0-2.0-3.1","1","0","j0e8e9kss88xvs2","","661","","sounds/A/TD/FE_01_TD.mp3","","32","","","TD_SUMMARY","","","","","","","","","","FE","","900,2700,6300,11700","1","900","2700","6300","11700","647.9000000357628","null","686.3000000119209","null","___________664.3000000119209_1547.9000000357628_2826_4219.5_5702.5_6986.300000011921_8453_9671.699999988079_10703.5_11751.699999988079_12936.400000035763_14174.300000011921","1","","","","","",""
"html-button-response","270","1869161","0.0-8.0-2.0-0.2","1","0","j0e8e9kss88xvs2","","1420.699999988079","","<p>Trial 3 of 36</p>","0","","","","","","","","","","","","","","FE","sounds/syllables/fe_SWS.wav","900,3600,5400,10800","1","","","","","","","","","","","","","","","",""
"html-keyboard-response","271","1871031","0.0-8.0-2.0-1.2","1","0","j0e8e9kss88xvs2","","1868.5","","","","80","","","","","","","","","","","","","FE","","900,3600,5400,10800","1","","","","","","","","","","","","","","","",""
"audio-keyboard-response","272","1871331","0.0-8.0-2.0-2.3-0.3","1","0","j0e8e9kss88xvs2","","null","","sounds/syllables/fe_SWS.wav","","null","","","","","","","","","","","","","","","","","","","","","","","","","","","","","","","",""
"html-keyboard-response","273","1872433","0.0-8.0-2.0-2.3-1.3","1","0","j0e8e9kss88xvs2","","1102","","<p>To replay the <u>TARGET SOUND</u>, press P.</p> When you are ready to begin, press SPACEBAR.","","32","","","","","","","","","","","","","","","","","","","","","","","","","","","","","","","",""
"audio-keyboard-response","274","1887380","0.0-8.0-2.0-3.2","1","0","j0e8e9kss88xvs2","","976","","sounds/A/TD/FE_06_TD.mp3","","32","","","TD_SUMMARY","","","","","","","","","","FE","","900,3600,5400,10800","1","900","3600","5400","10800","null","617.5","427.39999997615814","991.8999999761581","_______________________977.5999999642372_2153_4217.5_5827.399999976158_7330_8497.099999964237_9380.699999988079_10799.399999976158_11791.899999976158_12862.199999988079_14366.699999988079","1","","","","","",""
"html-button-response","275","1888301","0.0-8.0-2.0-0.3","1","0","j0e8e9kss88xvs2","","918.2000000476837","","<p>Trial 4 of 36</p>","0","","","","","","","","","","","","","","TI","sounds/syllables/ti_SWS.wav","3000,4800,8400,11100","2","","","","","","","","","","","","","","","",""
"html-keyboard-response","276","1889092","0.0-8.0-2.0-1.3","1","0","j0e8e9kss88xvs2","","789","","","","80","","","","","","","","","","","","","TI","","3000,4800,8400,11100","2","","","","","","","","","","","","","","","",""
"audio-keyboard-response","277","1889395","0.0-8.0-2.0-2.4-0.4","1","0","j0e8e9kss88xvs2","","null","","sounds/syllables/ti_SWS.wav","","null","","","","","","","","","","","","","","","","","","","","","","","","","","","","","","","",""
"html-keyboard-response","278","1890302","0.0-8.0-2.0-2.4-1.4","1","0","j0e8e9kss88xvs2","","906.3000000119209","","<p>To replay the <u>TARGET SOUND</u>, press P.</p> When you are ready to begin, press SPACEBAR.","","32","","","","","","","","","","","","","","","","","","","","","","","","","","","","","","","",""
"audio-keyboard-response","279","1905252","0.0-8.0-2.0-3.3","1","0","j0e8e9kss88xvs2","","485","","sounds/A/TD/TI_08_TD.mp3","","32","","","TD_SUMMARY","","","","","","","","","","TI","","3000,4800,8400,11100","2","3000","4800","8400","11100","927.1000000238419","1191.9000000357628","634.6000000238419","570","__________________________________487.80000001192093_850.8000000119209_1574.4000000357628_1638.1000000238419_1875.5_2695.100000023842_3286.600000023842_3927.100000023842_4693.600000023842_5333.600000023842_5991.900000035763_7264.5_7626.100000023842_8302.200000047684_9034.600000023842_9930.800000011921_10876.700000047684_11670_12672.700000047684_13382.200000047684_14015.300000011921","1","","","","","",""
"html-button-response","280","1906347","0.0-8.0-2.0-0.4","1","0","j0e8e9kss88xvs2","","1091.1000000238419","","<p>Trial 5 of 36</p>","0","","","","","","","","","","","","","","TI","sounds/syllables/ti_SWS.wav","1200,5700,9300,12000","2","","","","","","","","","","","","","","","",""
"html-keyboard-response","281","1907853","0.0-8.0-2.0-1.4","1","0","j0e8e9kss88xvs2","","1504.6000000238419","","","","80","","","","","","","","","","","","","TI","","1200,5700,9300,12000","2","","","","","","","","","","","","","","","",""
"audio-keyboard-response","282","1908153","0.0-8.0-2.0-2.5-0.5","1","0","j0e8e9kss88xvs2","","null","","sounds/syllables/ti_SWS.wav","","null","","","","","","","","","","","","","","","","","","","","","","","","","","","","","","","",""
"html-keyboard-response","283","1908821","0.0-8.0-2.0-2.5-1.5","1","0","j0e8e9kss88xvs2","","667.5","","<p>To replay the <u>TARGET SOUND</u>, press P.</p> When you are ready to begin, press SPACEBAR.","","32","","","","","","","","","","","","","","","","","","","","","","","","","","","","","","","",""
"audio-keyboard-response","284","1923769","0.0-8.0-2.0-3.4","1","0","j0e8e9kss88xvs2","","635","","sounds/A/TD/TI_07_TD.mp3","","32","","","TD_SUMMARY","","","","","","","","","","TI","","1200,5700,9300,12000","2","1200","5700","9300","12000","527.8000000119209","591","633.9000000357628","965.4000000357628","_______________________________________________________632.5_1727.800000011921_2440.400000035763_3335.300000011921_4183.400000035763_5262.300000011921_6291_7012.900000035763_7805.600000023842_8687.100000023842_9081.300000011921_9933.900000035763_10637_11398.700000047684_12245_12965.400000035763_14288.300000011921","1","","","","","",""
"html-button-response","285","1924740","0.0-8.0-2.0-0.5","1","0","j0e8e9kss88xvs2","","967.8000000119209","","<p>Trial 6 of 36</p>","0","","","","","","","","","","","","","","TA","sounds/syllables/ta_SWS.wav","900,3600,5400,9900","1","","","","","","","","","","","","","","","",""
"html-keyboard-response","286","1925904","0.0-8.0-2.0-1.5","1","0","j0e8e9kss88xvs2","","1162.9000000357628","","","","80","","","","","","","","","","","","","TA","","900,3600,5400,9900","1","","","","","","","","","","","","","","","",""
"audio-keyboard-response","287","1926206","0.0-8.0-2.0-2.6-0.6","1","0","j0e8e9kss88xvs2","","null","","sounds/syllables/ta_SWS.wav","","null","","","","","","","","","","","","","","","","","","","","","","","","","","","","","","","",""
"html-keyboard-response","288","1926810","0.0-8.0-2.0-2.6-1.6","1","0","j0e8e9kss88xvs2","","602.4000000357628","","<p>To replay the <u>TARGET SOUND</u>, press P.</p> When you are ready to begin, press SPACEBAR.","","32","","","","","","","","","","","","","","","","","","","","","","","","","","","","","","","",""
"audio-keyboard-response","289","1941764","0.0-8.0-2.0-3.5","1","0","j0e8e9kss88xvs2","","1195","","sounds/A/TD/TA_03_TD.mp3","","32","","","TD_SUMMARY","","","","","","","","","","TA","","900,3600,5400,9900","1","900","3600","5400","9900","299.80000001192093","422.80000001192093","null","870.4000000357628","________________________________________________________________________1199.800000011921_2209.900000035763_4022.800000011921_5405.900000035763_6625_7835_9605_10770.400000035763_11790.600000023842_12859.100000023842_13688.600000023842","1","","","","","",""
"html-button-response","290","1943962","0.0-8.0-2.0-0.6","1","0","j0e8e9kss88xvs2","","2194.100000023842","","<p>Trial 7 of 36</p>","0","","","","","","","","","","","","","","RU","sounds/syllables/ru_SWS.wav","900,5400,7200,12600","1","","","","","","","","","","","","","","","",""
"html-keyboard-response","291","1947205","0.0-8.0-2.0-1.6","1","0","j0e8e9kss88xvs2","","3242.300000011921","","","","80","","","","","","","","","","","","","RU","","900,5400,7200,12600","1","","","","","","","","","","","","","","","",""
"audio-keyboard-response","292","1947507","0.0-8.0-2.0-2.7-0.7","1","0","j0e8e9kss88xvs2","","null","","sounds/syllables/ru_SWS.wav","","null","","","","","","","","","","","","","","","","","","","","","","","","","","","","","","","",""
"html-keyboard-response","293","1948627","0.0-8.0-2.0-2.7-1.7","1","0","j0e8e9kss88xvs2","","1118.300000011921","","<p>To replay the <u>TARGET SOUND</u>, press P.</p> When you are ready to begin, press SPACEBAR.","","32","","","","","","","","","","","","","","","","","","","","","","","","","","","","","","","",""
"audio-keyboard-response","294","1963577","0.0-8.0-2.0-3.6","1","0","j0e8e9kss88xvs2","","1115","","sounds/A/TD/RU_10_TD.mp3","","32","","","TD_SUMMARY","","","","","","","","","","RU","","900,5400,7200,12600","1","900","5400","7200","12600","1095.300000011921","1024.5999999642372","1008.5999999642372","662.5","___________________________________________________________________________________1115.699999988079_1995.300000011921_2688.599999964237_2901.800000011921_3478.099999964237_3661.800000011921_5681.399999976158_6424.599999964237_6905.800000011921_7379.300000011921_8208.599999964237_9293.599999964237_9704.800000011921_10103.199999988079_10370.899999976158_10735.5_11481.800000011921_11865.5_12291.800000011921_12674.899999976158_13262.5_13833.599999964237_14231.699999988079","1","","","","","",""
"html-button-response","295","1965553","0.0-8.0-2.0-0.7","1","0","j0e8e9kss88xvs2","","1972.5","","<p>Trial 8 of 36</p>","0","","","","","","","","","","","","","","RU","sounds/syllables/ru_SWS.wav","900,5400,7200,11700","1","","","","","","","","","","","","","","","",""
"html-keyboard-response","296","1966075","0.0-8.0-2.0-1.7","1","0","j0e8e9kss88xvs2","","520","","","","80","","","","","","","","","","","","","RU","","900,5400,7200,11700","1","","","","","","","","","","","","","","","",""
"audio-keyboard-response","297","1966376","0.0-8.0-2.0-2.8-0.8","1","0","j0e8e9kss88xvs2","","null","","sounds/syllables/ru_SWS.wav","","null","","","","","","","","","","","","","","","","","","","","","","","","","","","","","","","",""
"html-keyboard-response","298","1967056","0.0-8.0-2.0-2.8-1.8","1","0","j0e8e9kss88xvs2","","679.1999999880791","","<p>To replay the <u>TARGET SOUND</u>, press P.</p> When you are ready to begin, press SPACEBAR.","","32","","","","","","","","","","","","","","","","","","","","","","","","","","","","","","","",""
"audio-keyboard-response","299","1982004","0.0-8.0-2.0-3.7","1","0","j0e8e9kss88xvs2","","1339","","sounds/A/TD/RU_02_TD.mp3","","32","","","TD_SUMMARY","","","","","","","","","","RU","","900,5400,7200,11700","1","900","5400","7200","11700","831.8999999761581","1082.6000000238419","1078.199999988079","600.1000000238419","__________________________________________________________________________________________________________1337.8999999761581_1731.8999999761581_2153.300000011921_2568.199999988079_2969_3435.5_4420.899999976158_4826.100000023842_5655.800000011921_6057.199999988079_6482.600000023842_7166.699999988079_7800.5_8278.199999988079_8867_9872.100000023842_10260.100000023842_10779.199999988079_11417.899999976158_11797.199999988079_12300.100000023842_13137.300000011921_13547.800000011921_14053.5","1","","","","","",""
"html-button-response","300","1983601","0.0-8.0-2.0-0.8","1","0","j0e8e9kss88xvs2","","1593.5","","<p>Trial 9 of 36</p>","0","","","","","","","","","","","","","","PU","sounds/syllables/pu_SWS.wav","1200,5700,7500,10200","2","","","","","","","","","","","","","","","",""
"html-keyboard-response","301","1984102","0.0-8.0-2.0-1.8","1","0","j0e8e9kss88xvs2","","498.30000001192093","","","","80","","","","","","","","","","","","","PU","","1200,5700,7500,10200","2","","","","","","","","","","","","","","","",""
"audio-keyboard-response","302","1984404","0.0-8.0-2.0-2.9-0.9","1","0","j0e8e9kss88xvs2","","null","","sounds/syllables/pu_SWS.wav","","null","","","","","","","","","","","","","","","","","","","","","","","","","","","","","","","",""
"html-keyboard-response","303","1984919","0.0-8.0-2.0-2.9-1.9","1","0","j0e8e9kss88xvs2","","514.1000000238419","","<p>To replay the <u>TARGET SOUND</u>, press P.</p> When you are ready to begin, press SPACEBAR.","","32","","","","","","","","","","","","","","","","","","","","","","","","","","","","","","","",""
"audio-keyboard-response","304","1999871","0.0-8.0-2.0-3.8","1","0","j0e8e9kss88xvs2","","53","","sounds/A/TD/PU_08_TD.mp3","","32","","","TD_SUMMARY","","","","","","","","","","PU","","1200,5700,7500,10200","2","1200","5700","7500","10200","377.80000001192093","908.9000000357628","null","null","__________________________________________________________________________________________________________________________________53.90000003576279_763.3000000119209_1577.800000011921_2418.300000011921_3218.600000023842_3789_4609.300000011921_5175.900000035763_5639.699999988079_6608.900000035763_7379.100000023842_8828.199999988079_9266.900000035763_9895.199999988079_11698.300000011921_12348.199999988079_12797.100000023842_13115.100000023842_13470.699999988079_13863.800000011921_14234.699999988079","1","","","","","",""
"html-button-response","305","2002151","0.0-8.0-2.0-0.9","1","0","j0e8e9kss88xvs2","","2276.699999988079","","<p>Trial 10 of 36</p>","0","","","","","","","","","","","","","","TI","sounds/syllables/ti_SWS.wav","3000,6600,9300,11100","2","","","","","","","","","","","","","","","",""
"html-keyboard-response","306","2002706","0.0-8.0-2.0-1.9","1","0","j0e8e9kss88xvs2","","554.5999999642372","","","","80","","","","","","","","","","","","","TI","","3000,6600,9300,11100","2","","","","","","","","","","","","","","","",""
"audio-keyboard-response","307","2003006","0.0-8.0-2.0-2.10-0.10","1","0","j0e8e9kss88xvs2","","null","","sounds/syllables/ti_SWS.wav","","null","","","","","","","","","","","","","","","","","","","","","","","","","","","","","","","",""
"html-keyboard-response","308","2003628","0.0-8.0-2.0-2.10-1.10","1","0","j0e8e9kss88xvs2","","622","","<p>To replay the <u>TARGET SOUND</u>, press P.</p> When you are ready to begin, press SPACEBAR.","","32","","","","","","","","","","","","","","","","","","","","","","","","","","","","","","","",""
"audio-keyboard-response","309","2018574","0.0-8.0-2.0-3.9","1","0","j0e8e9kss88xvs2","","597","","sounds/A/TD/TI_10_TD.mp3","","32","","","TD_SUMMARY","","","","","","","","","","TI","","3000,6600,9300,11100","2","3000","6600","9300","11100","null","342.80000001192093","1193.300000011921","715","_______________________________________________________________________________________________________________________________________________________594.5999999642372_1751_2782_4324.300000011921_5198.099999964237_5976.300000011921_6942.800000011921_8713.899999976158_10142.5_10493.300000011921_11146_11815_12606.599999964237_14095.599999964237","1","","","","","",""
"html-button-response","310","2023183","0.0-8.0-2.0-0.10","1","0","j0e8e9kss88xvs2","","4605.900000035763","","<p>Trial 11 of 36</p>","0","","","","","","","","","","","","","","PU","sounds/syllables/pu_SWS.wav","1200,4800,6600,12900","2","","","","","","","","","","","","","","","",""
"html-keyboard-response","311","2023774","0.0-8.0-2.0-1.10","1","0","j0e8e9kss88xvs2","","590","","","","80","","","","","","","","","","","","","PU","","1200,4800,6600,12900","2","","","","","","","","","","","","","","","",""
"audio-keyboard-response","312","2024078","0.0-8.0-2.0-2.11-0.11","1","0","j0e8e9kss88xvs2","","null","","sounds/syllables/pu_SWS.wav","","null","","","","","","","","","","","","","","","","","","","","","","","","","","","","","","","",""
"html-keyboard-response","313","2024620","0.0-8.0-2.0-2.11-1.11","1","0","j0e8e9kss88xvs2","","541.5999999642372","","<p>To replay the <u>TARGET SOUND</u>, press P.</p> When you are ready to begin, press SPACEBAR.","","32","","","","","","","","","","","","","","","","","","","","","","","","","","","","","","","",""
"audio-keyboard-response","314","2039572","0.0-8.0-2.0-3.10","1","0","j0e8e9kss88xvs2","","101","","sounds/A/TD/PU_07_TD.mp3","","32","","","TD_SUMMARY","","","","","","","","","","PU","","1200,4800,6600,12900","2","1200","4800","6600","12900","null","1036.9000000357628","464.9000000357628","880.8000000119209","_____________________________________________________________________________________________________________________________________________________________________101.90000003576279_1329_3421.5_4345.200000047684_4927.100000023842_5836.900000035763_7064.900000035763_8336.800000011921_9267_10122.200000047684_10832.700000047684_11585.200000047684_12587.800000011921_13780.800000011921","1","","","","","",""
"html-button-response","315","2040610","0.0-8.0-2.0-0.11","1","0","j0e8e9kss88xvs2","","1035.6000000238419","","<p>Trial 12 of 36</p>","0","","","","","","","","","","","","","","KO","sounds/syllables/ko_SWS.wav","3300,6900,8700,11400","3","","","","","","","","","","","","","","","",""
"html-keyboard-response","316","2041438","0.0-8.0-2.0-1.11","1","0","j0e8e9kss88xvs2","","826.3999999761581","","","","80","","","","","","","","","","","","","KO","","3300,6900,8700,11400","3","","","","","","","","","","","","","","","",""
"audio-keyboard-response","317","2041742","0.0-8.0-2.0-2.12-0.12","1","0","j0e8e9kss88xvs2","","null","","sounds/syllables/ko_SWS.wav","","null","","","","","","","","","","","","","","","","","","","","","","","","","","","","","","","",""
"html-keyboard-response","318","2042428","0.0-8.0-2.0-2.12-1.12","1","0","j0e8e9kss88xvs2","","684.8000000119209","","<p>To replay the <u>TARGET SOUND</u>, press P.</p> When you are ready to begin, press SPACEBAR.","","32","","","","","","","","","","","","","","","","","","","","","","","","","","","","","","","",""
"audio-keyboard-response","319","2057379","0.0-8.0-2.0-3.11","1","0","j0e8e9kss88xvs2","","640","","sounds/A/TD/KO_07_TD.mp3","","32","","","TD_SUMMARY","","","","","","","","","","KO","","3300,6900,8700,11400","3","3300","6900","8700","11400","573.1000000238419","741.2000000476837","null","1083.1000000238419","___________________________________________________________________________________________________________________________________________________________________________________640.1000000238419_1367.4000000357628_2202.900000035763_2906.600000023842_3873.100000023842_4535.900000035763_5148.400000035763_6169.400000035763_6909.800000011921_7641.200000047684_8504.5_9947.700000047684_10667.800000011921_11846.300000011921_12483.100000023842_13532.700000047684","1","","","","","",""
"html-button-response","320","2060314","0.0-8.0-2.0-0.12","1","0","j0e8e9kss88xvs2","","2933.899999976158","","<p>Trial 13 of 36</p>","0","","","","","","","","","","","","","","ME","sounds/syllables/me_SWS.wav","1500,4200,6000,8700","3","","","","","","","","","","","","","","","",""
"html-keyboard-response","321","2061036","0.0-8.0-2.0-1.12","1","0","j0e8e9kss88xvs2","","721.1999999880791","","","","80","","","","","","","","","","","","","ME","","1500,4200,6000,8700","3","","","","","","","","","","","","","","","",""
"audio-keyboard-response","322","2061336","0.0-8.0-2.0-2.13-0.13","1","0","j0e8e9kss88xvs2","","null","","sounds/syllables/me_SWS.wav","","null","","","","","","","","","","","","","","","","","","","","","","","","","","","","","","","",""
"html-keyboard-response","323","2062122","0.0-8.0-2.0-2.13-1.13","1","0","j0e8e9kss88xvs2","","784.8000000119209","","<p>To replay the <u>TARGET SOUND</u>, press P.</p> When you are ready to begin, press SPACEBAR.","","32","","","","","","","","","","","","","","","","","","","","","","","","","","","","","","","",""
"audio-keyboard-response","324","2077070","0.0-8.0-2.0-3.12","1","0","j0e8e9kss88xvs2","","1227","","sounds/A/TD/ME_05_TD.mp3","","32","","","TD_SUMMARY","","","","","","","","","","ME","","1500,4200,6000,8700","3","1500","4200","6000","8700","null","null","1035.3999999761581","1165","___________________________________________________________________________________________________________________________________________________________________________________________________1229.2999999523163_2819.099999964237_3946.099999964237_5539.199999988079_6279.699999988079_7035.399999976158_7724.299999952316_8444.699999988079_9165.5_9865_10607.799999952316_11373.699999988079_12040_13007.299999952316_13852.699999988079","1","","","","","",""
"html-button-response","325","2079883","0.0-8.0-2.0-0.13","1","0","j0e8e9kss88xvs2","","2809.2999999523163","","<p>Trial 14 of 36</p>","0","","","","","","","","","","","","","","TA","sounds/syllables/ta_SWS.wav","2700,4500,6300,12600","1","","","","","","","","","","","","","","","",""
"html-keyboard-response","326","2080394","0.0-8.0-2.0-1.13","1","0","j0e8e9kss88xvs2","","510","","","","80","","","","","","","","","","","","","TA","","2700,4500,6300,12600","1","","","","","","","","","","","","","","","",""
