"trial_type","trial_index","time_elapsed","internal_node_id","counterbalance","lang_instruct","ParticipantID","view_history","rt","url","stimulus","button_pressed","key_press","correctRESP","correct","designation","location","correctanswer","responses","sentence","keywords","typed_resp","keyword1_acc","keyword2_acc","keyword3_acc","keyword4_acc","keyword5_acc","total_acc","prop_acc","timeouts","pause_rt01","pause_rt02","train_file","numKeyPress","sound","fam_type","SYLLABLE","EXEMPLAR","TD_LOCS","TD_TYPE","TDLOC_01","TDLOC_02","TDLOC_03","TDLOC_04","TD_RT_01","TD_RT_02","TD_RT_03","TD_RT_04","TD_SUBJ_RTs","number_of_plays","slider_start","response","question_order","syllable","syllable_type"
"pavlovia","0","4","0.0-0.0","3","1","dbvt0vjvd1so55p","","","","","","","","","","","","","","","","","","","","","","","","","","","","","","","","","","","","","","","","","","","","","","","",""
"instructions","1","4607","0.0-1.0","3","1","dbvt0vjvd1so55p","[{""page_index"":0,""viewing_time"":2427.699999999255},{""page_index"":1,""viewing_time"":2171}]","4602.39999999851","","","","","","","","","","","","","","","","","","","","","","","","","","","","","","","","","","","","","","","","","","","","","",""
"external-html","2","8015","0.0-2.0","3","1","dbvt0vjvd1so55p","","3384.10000000149","consent/consent.html","","","","","","","","","","","","","","","","","","","","","","","","","","","","","","","","","","","","","","","","","","","","",""
"html-button-response","3","11156","0.0-3.0-0.0-0.0","3","1","dbvt0vjvd1so55p","","3138.300000000745","","<p>Welcome to the study. You will first complete a short volume calibration and headphone check.</p><p>Please make sure you are in a quiet listening environment, that you are wearing headphones, and that your computer's volume is turned on.<p></p>","0","","","","","","","","","","","","","","","","","","","","","","","","","","","","","","","","","","","","","","","","","","",""
"html-button-response","4","11924","0.0-3.0-0.0-1.0","3","1","dbvt0vjvd1so55p","","515.1000000014901","","<p>The volume calibration will be first.</p><p>You will hear a thirty-second noise. Please adjust your computer's volume so that this noise is being presented at a comfortable level.<p></p>","0","","","","","","","","","","","","","","","","","","","","","","","","","","","","","","","","","","","","","","","","","","",""
"audio-button-response","5","13094","0.0-3.0-0.0-2.0","3","1","dbvt0vjvd1so55p","","496","","audCalib/volumetest.mp3","0","","","","","","","","","","","","","","","","","","","","","","","","","","","","","","","","","","","","","","","","","","",""
"html-button-response","6","14684","0.0-3.0-1.0-0.0","3","1","dbvt0vjvd1so55p","","1588.800000000745","","<p>You will now complete a short headphone check.</p><p>On each trial, you will hear three tones. One of these tones will be quieter than the others. Your task is to identify whether the quiet tone occured first, second, or third.</p><p>There are six trials in total.<p></p>","0","","","","","","","","","","","","","","","","","","","","","","","","","","","","","","","","","","","","","","","","","","",""
"html-keyboard-response","7","15437","0.0-3.0-1.0-1.0-0.0","3","1","dbvt0vjvd1so55p","","null","","<div style=""font-size:60px;"">+</div>","","null","","","","","","","","","","","","","","","","","","","","","","","","","","","","","","","","","","","","","","","","","",""
"audio-button-response","8","17717","0.0-3.0-1.0-1.0-1.0","3","1","dbvt0vjvd1so55p","","2277","","audCalib/t2_1.mp3","0","","1","0","headphone-test","","","","","","","","","","","","","","","","","","","","","","","","","","","","","","","","","","","","","","",""
"html-keyboard-response","9","18472","0.0-3.0-1.0-1.0-0.1","3","1","dbvt0vjvd1so55p","","null","","<div style=""font-size:60px;"">+</div>","","null","","","","","","","","","","","","","","","","","","","","","","","","","","","","","","","","","","","","","","","","","",""
"audio-button-response","10","21175","0.0-3.0-1.0-1.0-1.1","3","1","dbvt0vjvd1so55p","","2704","","audCalib/t1_1.mp3","0","","0","1","headphone-test","","","","","","","","","","","","","","","","","","","","","","","","","","","","","","","","","","","","","","",""
"html-keyboard-response","11","21929","0.0-3.0-1.0-1.0-0.2","3","1","dbvt0vjvd1so55p","","null","","<div style=""font-size:60px;"">+</div>","","null","","","","","","","","","","","","","","","","","","","","","","","","","","","","","","","","","","","","","","","","","",""
"audio-button-response","12","24969","0.0-3.0-1.0-1.0-1.2","3","1","dbvt0vjvd1so55p","","3035","","audCalib/t3_2.mp3","2","","2","1","headphone-test","","","","","","","","","","","","","","","","","","","","","","","","","","","","","","","","","","","","","","",""
"html-keyboard-response","13","25723","0.0-3.0-1.0-1.0-0.3","3","1","dbvt0vjvd1so55p","","null","","<div style=""font-size:60px;"">+</div>","","null","","","","","","","","","","","","","","","","","","","","","","","","","","","","","","","","","","","","","","","","","",""
"audio-button-response","14","29381","0.0-3.0-1.0-1.0-1.3","3","1","dbvt0vjvd1so55p","","3653","","audCalib/t3_1.mp3","2","","2","1","headphone-test","","","","","","","","","","","","","","","","","","","","","","","","","","","","","","","","","","","","","","",""
"html-keyboard-response","15","30134","0.0-3.0-1.0-1.0-0.4","3","1","dbvt0vjvd1so55p","","null","","<div style=""font-size:60px;"">+</div>","","null","","","","","","","","","","","","","","","","","","","","","","","","","","","","","","","","","","","","","","","","","",""
"audio-button-response","16","31812","0.0-3.0-1.0-1.0-1.4","3","1","dbvt0vjvd1so55p","","1675","","audCalib/t1_2.mp3","0","","0","1","headphone-test","","","","","","","","","","","","","","","","","","","","","","","","","","","","","","","","","","","","","","",""
"html-keyboard-response","17","32568","0.0-3.0-1.0-1.0-0.5","3","1","dbvt0vjvd1so55p","","null","","<div style=""font-size:60px;"">+</div>","","null","","","","","","","","","","","","","","","","","","","","","","","","","","","","","","","","","","","","","","","","","",""
"audio-button-response","18","35234","0.0-3.0-1.0-1.0-1.5","3","1","dbvt0vjvd1so55p","","2667","","audCalib/t2_2.mp3","1","","1","1","headphone-test","","","","","","","","","","","","","","","","","","","","","","","","","","","","","","","","","","","","","","",""
"html-button-response","19","36332","0.0-3.0-2.0","3","1","dbvt0vjvd1so55p","","843","","<p>The volume calibration and headphone check are now complete.</p>","0","","","","","","","","","","","","","","","","","","","","","","","","","","","","","","","","","","","","","","","","","","",""
"instructions","20","39421","0.0-4.0-0.0","3","1","dbvt0vjvd1so55p","[{""page_index"":0,""viewing_time"":1163.800000000745},{""page_index"":1,""viewing_time"":969.8999999985099},{""page_index"":2,""viewing_time"":953.3999999985099}]","3087.599999997765","","","","","","","","","","","","","","","","","","","","","","","","","","","","","","","","","","","","","","","","","","","","","",""
"audio-keyboard-response","21","39724","0.0-4.0-1.0-0.0","3","1","dbvt0vjvd1so55p","","null","","sounds/induction/left/fe_SWS.wav","","null","","","","","","","","","","","","","","","","","","","","","","","","","","","","","","","","","","","","","","","","","",""
"html-button-response","22","41825","0.0-4.0-1.0-1.0","3","1","dbvt0vjvd1so55p","","2099","","What sound did you hear?","0","","","0","INDUCTION-JUDGMENT","left","1","","","","","","","","","","","","","","","","","","","","","","","","","","","","","","","","","","","","",""
"html-keyboard-response","23","42828","0.0-4.0-1.0-2.0","3","1","dbvt0vjvd1so55p","","null","","<p style=""color:red;""><b>Incorrect!</b></p>","","null","","","","","","","","","","","","","","","","","","","","","","","","","","","","","","","","","","","","","","","","","",""
"audio-keyboard-response","24","43633","0.0-4.0-1.0-0.1","3","1","dbvt0vjvd1so55p","","null","","sounds/induction/left/ru_SWS.wav","","null","","","","","","","","","","","","","","","","","","","","","","","","","","","","","","","","","","","","","","","","","",""
"html-button-response","25","44421","0.0-4.0-1.0-1.1","3","1","dbvt0vjvd1so55p","","786.3999999985099","","What sound did you hear?","0","","","1","INDUCTION-JUDGMENT","left","0","","","","","","","","","","","","","","","","","","","","","","","","","","","","","","","","","","","","",""
"html-keyboard-response","26","45425","0.0-4.0-1.0-2.1","3","1","dbvt0vjvd1so55p","","null","","<p style=""color:green;""><b>Correct!</b></p>","","null","","","","","","","","","","","","","","","","","","","","","","","","","","","","","","","","","","","","","","","","","",""
"audio-keyboard-response","27","46231","0.0-4.0-1.0-0.2","3","1","dbvt0vjvd1so55p","","null","","sounds/induction/right/ti_SWS.wav","","null","","","","","","","","","","","","","","","","","","","","","","","","","","","","","","","","","","","","","","","","","",""
"html-button-response","28","47374","0.0-4.0-1.0-1.2","3","1","dbvt0vjvd1so55p","","1142.1000000014901","","What sound did you hear?","1","","","1","INDUCTION-JUDGMENT","right","1","","","","","","","","","","","","","","","","","","","","","","","","","","","","","","","","","","","","",""
"html-keyboard-response","29","48380","0.0-4.0-1.0-2.2","3","1","dbvt0vjvd1so55p","","null","","<p style=""color:green;""><b>Correct!</b></p>","","null","","","","","","","","","","","","","","","","","","","","","","","","","","","","","","","","","","","","","","","","","",""
"audio-keyboard-response","30","49185","0.0-4.0-1.0-0.3","3","1","dbvt0vjvd1so55p","","null","","sounds/induction/left/fe_SWS.wav","","null","","","","","","","","","","","","","","","","","","","","","","","","","","","","","","","","","","","","","","","","","",""
"html-button-response","31","49934","0.0-4.0-1.0-1.3","3","1","dbvt0vjvd1so55p","","747.8999999985099","","What sound did you hear?","0","","","0","INDUCTION-JUDGMENT","left","1","","","","","","","","","","","","","","","","","","","","","","","","","","","","","","","","","","","","",""
"html-keyboard-response","32","50940","0.0-4.0-1.0-2.3","3","1","dbvt0vjvd1so55p","","null","","<p style=""color:red;""><b>Incorrect!</b></p>","","null","","","","","","","","","","","","","","","","","","","","","","","","","","","","","","","","","","","","","","","","","",""
"audio-keyboard-response","33","51745","0.0-4.0-1.0-0.4","3","1","dbvt0vjvd1so55p","","null","","sounds/induction/left/ta_SWS.wav","","null","","","","","","","","","","","","","","","","","","","","","","","","","","","","","","","","","","","","","","","","","",""
"html-button-response","34","52570","0.0-4.0-1.0-1.4","3","1","dbvt0vjvd1so55p","","823.7000000029802","","What sound did you hear?","0","","","1","INDUCTION-JUDGMENT","left","0","","","","","","","","","","","","","","","","","","","","","","","","","","","","","","","","","","","","",""
"html-keyboard-response","35","53575","0.0-4.0-1.0-2.4","3","1","dbvt0vjvd1so55p","","null","","<p style=""color:green;""><b>Correct!</b></p>","","null","","","","","","","","","","","","","","","","","","","","","","","","","","","","","","","","","","","","","","","","","",""
"audio-keyboard-response","36","54380","0.0-4.0-1.0-0.5","3","1","dbvt0vjvd1so55p","","null","","sounds/induction/left/re_SWS.wav","","null","","","","","","","","","","","","","","","","","","","","","","","","","","","","","","","","","","","","","","","","","",""
"html-button-response","37","54850","0.0-4.0-1.0-1.5","3","1","dbvt0vjvd1so55p","","468.70000000298023","","What sound did you hear?","0","","","1","INDUCTION-JUDGMENT","left","0","","","","","","","","","","","","","","","","","","","","","","","","","","","","","","","","","","","","",""
"html-keyboard-response","38","55854","0.0-4.0-1.0-2.5","3","1","dbvt0vjvd1so55p","","null","","<p style=""color:green;""><b>Correct!</b></p>","","null","","","","","","","","","","","","","","","","","","","","","","","","","","","","","","","","","","","","","","","","","",""
"audio-keyboard-response","39","56663","0.0-4.0-1.0-0.6","3","1","dbvt0vjvd1so55p","","null","","sounds/induction/right/ni_SWS.wav","","null","","","","","","","","","","","","","","","","","","","","","","","","","","","","","","","","","","","","","","","","","",""
"html-button-response","40","57553","0.0-4.0-1.0-1.6","3","1","dbvt0vjvd1so55p","","888.6999999992549","","What sound did you hear?","0","","","1","INDUCTION-JUDGMENT","right","0","","","","","","","","","","","","","","","","","","","","","","","","","","","","","","","","","","","","",""
"html-keyboard-response","41","58556","0.0-4.0-1.0-2.6","3","1","dbvt0vjvd1so55p","","null","","<p style=""color:green;""><b>Correct!</b></p>","","null","","","","","","","","","","","","","","","","","","","","","","","","","","","","","","","","","","","","","","","","","",""
"audio-keyboard-response","42","59362","0.0-4.0-1.0-0.7","3","1","dbvt0vjvd1so55p","","null","","sounds/induction/left/me_SWS.wav","","null","","","","","","","","","","","","","","","","","","","","","","","","","","","","","","","","","","","","","","","","","",""
"html-button-response","43","59680","0.0-4.0-1.0-1.7","3","1","dbvt0vjvd1so55p","","317","","What sound did you hear?","0","","","0","INDUCTION-JUDGMENT","left","1","","","","","","","","","","","","","","","","","","","","","","","","","","","","","","","","","","","","",""
"html-keyboard-response","44","60684","0.0-4.0-1.0-2.7","3","1","dbvt0vjvd1so55p","","null","","<p style=""color:red;""><b>Incorrect!</b></p>","","null","","","","","","","","","","","","","","","","","","","","","","","","","","","","","","","","","","","","","","","","","",""
"audio-keyboard-response","45","61489","0.0-4.0-1.0-0.8","3","1","dbvt0vjvd1so55p","","null","","sounds/induction/right/ru_SWS.wav","","null","","","","","","","","","","","","","","","","","","","","","","","","","","","","","","","","","","","","","","","","","",""
"html-button-response","46","61824","0.0-4.0-1.0-1.8","3","1","dbvt0vjvd1so55p","","333.30000000074506","","What sound did you hear?","0","","","0","INDUCTION-JUDGMENT","right","1","","","","","","","","","","","","","","","","","","","","","","","","","","","","","","","","","","","","",""
"html-keyboard-response","47","62828","0.0-4.0-1.0-2.8","3","1","dbvt0vjvd1so55p","","null","","<p style=""color:red;""><b>Incorrect!</b></p>","","null","","","","","","","","","","","","","","","","","","","","","","","","","","","","","","","","","","","","","","","","","",""
"audio-keyboard-response","48","63634","0.0-4.0-1.0-0.9","3","1","dbvt0vjvd1so55p","","null","","sounds/induction/right/fu_SWS.wav","","null","","","","","","","","","","","","","","","","","","","","","","","","","","","","","","","","","","","","","","","","","",""
"html-button-response","49","64065","0.0-4.0-1.0-1.9","3","1","dbvt0vjvd1so55p","","430.19999999925494","","What sound did you hear?","0","","","1","INDUCTION-JUDGMENT","right","0","","","","","","","","","","","","","","","","","","","","","","","","","","","","","","","","","","","","",""
"html-keyboard-response","50","65068","0.0-4.0-1.0-2.9","3","1","dbvt0vjvd1so55p","","null","","<p style=""color:green;""><b>Correct!</b></p>","","null","","","","","","","","","","","","","","","","","","","","","","","","","","","","","","","","","","","","","","","","","",""
"audio-keyboard-response","51","65874","0.0-4.0-1.0-0.10","3","1","dbvt0vjvd1so55p","","null","","sounds/induction/left/ni_SWS.wav","","null","","","","","","","","","","","","","","","","","","","","","","","","","","","","","","","","","","","","","","","","","",""
"html-button-response","52","66232","0.0-4.0-1.0-1.10","3","1","dbvt0vjvd1so55p","","357.30000000074506","","What sound did you hear?","0","","","0","INDUCTION-JUDGMENT","left","1","","","","","","","","","","","","","","","","","","","","","","","","","","","","","","","","","","","","",""
"html-keyboard-response","53","67234","0.0-4.0-1.0-2.10","3","1","dbvt0vjvd1so55p","","null","","<p style=""color:red;""><b>Incorrect!</b></p>","","null","","","","","","","","","","","","","","","","","","","","","","","","","","","","","","","","","","","","","","","","","",""
"audio-keyboard-response","54","68039","0.0-4.0-1.0-0.11","3","1","dbvt0vjvd1so55p","","null","","sounds/induction/right/su_SWS.wav","","null","","","","","","","","","","","","","","","","","","","","","","","","","","","","","","","","","","","","","","","","","",""
"html-button-response","55","68692","0.0-4.0-1.0-1.11","3","1","dbvt0vjvd1so55p","","651.7999999970198","","What sound did you hear?","1","","","1","INDUCTION-JUDGMENT","right","1","","","","","","","","","","","","","","","","","","","","","","","","","","","","","","","","","","","","",""
"html-keyboard-response","56","69695","0.0-4.0-1.0-2.11","3","1","dbvt0vjvd1so55p","","null","","<p style=""color:green;""><b>Correct!</b></p>","","null","","","","","","","","","","","","","","","","","","","","","","","","","","","","","","","","","","","","","","","","","",""
"audio-keyboard-response","57","70503","0.0-4.0-1.0-0.12","3","1","dbvt0vjvd1so55p","","null","","sounds/induction/left/pu_SWS.wav","","null","","","","","","","","","","","","","","","","","","","","","","","","","","","","","","","","","","","","","","","","","",""
"html-button-response","58","70821","0.0-4.0-1.0-1.12","3","1","dbvt0vjvd1so55p","","317","","What sound did you hear?","0","","","1","INDUCTION-JUDGMENT","left","0","","","","","","","","","","","","","","","","","","","","","","","","","","","","","","","","","","","","",""
"html-keyboard-response","59","71826","0.0-4.0-1.0-2.12","3","1","dbvt0vjvd1so55p","","null","","<p style=""color:green;""><b>Correct!</b></p>","","null","","","","","","","","","","","","","","","","","","","","","","","","","","","","","","","","","","","","","","","","","",""
"audio-keyboard-response","60","72631","0.0-4.0-1.0-0.13","3","1","dbvt0vjvd1so55p","","null","","sounds/induction/right/ge_SWS.wav","","null","","","","","","","","","","","","","","","","","","","","","","","","","","","","","","","","","","","","","","","","","",""
"html-button-response","61","73390","0.0-4.0-1.0-1.13","3","1","dbvt0vjvd1so55p","","757.2999999970198","","What sound did you hear?","1","","","0","INDUCTION-JUDGMENT","right","0","","","","","","","","","","","","","","","","","","","","","","","","","","","","","","","","","","","","",""
"html-keyboard-response","62","74391","0.0-4.0-1.0-2.13","3","1","dbvt0vjvd1so55p","","null","","<p style=""color:red;""><b>Incorrect!</b></p>","","null","","","","","","","","","","","","","","","","","","","","","","","","","","","","","","","","","","","","","","","","","",""
"audio-keyboard-response","63","75197","0.0-4.0-1.0-0.14","3","1","dbvt0vjvd1so55p","","null","","sounds/induction/right/fe_SWS.wav","","null","","","","","","","","","","","","","","","","","","","","","","","","","","","","","","","","","","","","","","","","","",""
"html-button-response","64","75529","0.0-4.0-1.0-1.14","3","1","dbvt0vjvd1so55p","","330.8999999985099","","What sound did you hear?","0","","","1","INDUCTION-JUDGMENT","right","0","","","","","","","","","","","","","","","","","","","","","","","","","","","","","","","","","","","","",""
"html-keyboard-response","65","76533","0.0-4.0-1.0-2.14","3","1","dbvt0vjvd1so55p","","null","","<p style=""color:green;""><b>Correct!</b></p>","","null","","","","","","","","","","","","","","","","","","","","","","","","","","","","","","","","","","","","","","","","","",""
"audio-keyboard-response","66","77341","0.0-4.0-1.0-0.15","3","1","dbvt0vjvd1so55p","","null","","sounds/induction/left/ko_SWS.wav","","null","","","","","","","","","","","","","","","","","","","","","","","","","","","","","","","","","","","","","","","","","",""
"html-button-response","67","77648","0.0-4.0-1.0-1.15","3","1","dbvt0vjvd1so55p","","306.4000000022352","","What sound did you hear?","0","","","0","INDUCTION-JUDGMENT","left","1","","","","","","","","","","","","","","","","","","","","","","","","","","","","","","","","","","","","",""
"html-keyboard-response","68","78652","0.0-4.0-1.0-2.15","3","1","dbvt0vjvd1so55p","","null","","<p style=""color:red;""><b>Incorrect!</b></p>","","null","","","","","","","","","","","","","","","","","","","","","","","","","","","","","","","","","","","","","","","","","",""
"audio-keyboard-response","69","79458","0.0-4.0-1.0-0.16","3","1","dbvt0vjvd1so55p","","null","","sounds/induction/right/ko_SWS.wav","","null","","","","","","","","","","","","","","","","","","","","","","","","","","","","","","","","","","","","","","","","","",""
"html-button-response","70","79531","0.0-4.0-1.0-1.16","3","1","dbvt0vjvd1so55p","","72.19999999925494","","What sound did you hear?","0","","","1","INDUCTION-JUDGMENT","right","0","","","","","","","","","","","","","","","","","","","","","","","","","","","","","","","","","","","","",""
"html-keyboard-response","71","80533","0.0-4.0-1.0-2.16","3","1","dbvt0vjvd1so55p","","null","","<p style=""color:green;""><b>Correct!</b></p>","","null","","","","","","","","","","","","","","","","","","","","","","","","","","","","","","","","","","","","","","","","","",""
"audio-keyboard-response","72","81335","0.0-4.0-1.0-0.17","3","1","dbvt0vjvd1so55p","","null","","sounds/induction/left/ta_SWS.wav","","null","","","","","","","","","","","","","","","","","","","","","","","","","","","","","","","","","","","","","","","","","",""
"html-button-response","73","81691","0.0-4.0-1.0-1.17","3","1","dbvt0vjvd1so55p","","354.3999999985099","","What sound did you hear?","0","","","1","INDUCTION-JUDGMENT","left","0","","","","","","","","","","","","","","","","","","","","","","","","","","","","","","","","","","","","",""
"html-keyboard-response","74","82696","0.0-4.0-1.0-2.17","3","1","dbvt0vjvd1so55p","","null","","<p style=""color:green;""><b>Correct!</b></p>","","null","","","","","","","","","","","","","","","","","","","","","","","","","","","","","","","","","","","","","","","","","",""
"audio-keyboard-response","75","83501","0.0-4.0-1.0-0.18","3","1","dbvt0vjvd1so55p","","null","","sounds/induction/left/ge_SWS.wav","","null","","","","","","","","","","","","","","","","","","","","","","","","","","","","","","","","","","","","","","","","","",""
"html-button-response","76","83678","0.0-4.0-1.0-1.18","3","1","dbvt0vjvd1so55p","","176.09999999776483","","What sound did you hear?","0","","","0","INDUCTION-JUDGMENT","left","1","","","","","","","","","","","","","","","","","","","","","","","","","","","","","","","","","","","","",""
"html-keyboard-response","77","84680","0.0-4.0-1.0-2.18","3","1","dbvt0vjvd1so55p","","null","","<p style=""color:red;""><b>Incorrect!</b></p>","","null","","","","","","","","","","","","","","","","","","","","","","","","","","","","","","","","","","","","","","","","","",""
"audio-keyboard-response","78","85485","0.0-4.0-1.0-0.19","3","1","dbvt0vjvd1so55p","","null","","sounds/induction/left/ti_SWS.wav","","null","","","","","","","","","","","","","","","","","","","","","","","","","","","","","","","","","","","","","","","","","",""
"html-button-response","79","86975","0.0-4.0-1.0-1.19","3","1","dbvt0vjvd1so55p","","1489.199999999255","","What sound did you hear?","0","","","1","INDUCTION-JUDGMENT","left","0","","","","","","","","","","","","","","","","","","","","","","","","","","","","","","","","","","","","",""
"html-keyboard-response","80","87978","0.0-4.0-1.0-2.19","3","1","dbvt0vjvd1so55p","","null","","<p style=""color:green;""><b>Correct!</b></p>","","null","","","","","","","","","","","","","","","","","","","","","","","","","","","","","","","","","","","","","","","","","",""
"audio-keyboard-response","81","88787","0.0-4.0-1.0-0.20","3","1","dbvt0vjvd1so55p","","null","","sounds/induction/left/fu_SWS.wav","","null","","","","","","","","","","","","","","","","","","","","","","","","","","","","","","","","","","","","","","","","","",""
"html-button-response","82","88835","0.0-4.0-1.0-1.20","3","1","dbvt0vjvd1so55p","","47.400000002235174","","What sound did you hear?","0","","","0","INDUCTION-JUDGMENT","left","1","","","","","","","","","","","","","","","","","","","","","","","","","","","","","","","","","","","","",""
"html-keyboard-response","83","89837","0.0-4.0-1.0-2.20","3","1","dbvt0vjvd1so55p","","null","","<p style=""color:red;""><b>Incorrect!</b></p>","","null","","","","","","","","","","","","","","","","","","","","","","","","","","","","","","","","","","","","","","","","","",""
"audio-keyboard-response","84","90642","0.0-4.0-1.0-0.21","3","1","dbvt0vjvd1so55p","","null","","sounds/induction/left/su_SWS.wav","","null","","","","","","","","","","","","","","","","","","","","","","","","","","","","","","","","","","","","","","","","","",""
"html-button-response","85","90723","0.0-4.0-1.0-1.21","3","1","dbvt0vjvd1so55p","","79.60000000149012","","What sound did you hear?","0","","","1","INDUCTION-JUDGMENT","left","0","","","","","","","","","","","","","","","","","","","","","","","","","","","","","","","","","","","","",""
"html-keyboard-response","86","91725","0.0-4.0-1.0-2.21","3","1","dbvt0vjvd1so55p","","null","","<p style=""color:green;""><b>Correct!</b></p>","","null","","","","","","","","","","","","","","","","","","","","","","","","","","","","","","","","","","","","","","","","","",""
"audio-keyboard-response","87","92530","0.0-4.0-1.0-0.22","3","1","dbvt0vjvd1so55p","","null","","sounds/induction/right/ko_SWS.wav","","null","","","","","","","","","","","","","","","","","","","","","","","","","","","","","","","","","","","","","","","","","",""
"html-button-response","88","92597","0.0-4.0-1.0-1.22","3","1","dbvt0vjvd1so55p","","65","","What sound did you hear?","0","","","1","INDUCTION-JUDGMENT","right","0","","","","","","","","","","","","","","","","","","","","","","","","","","","","","","","","","","","","",""
"html-keyboard-response","89","93599","0.0-4.0-1.0-2.22","3","1","dbvt0vjvd1so55p","","null","","<p style=""color:green;""><b>Correct!</b></p>","","null","","","","","","","","","","","","","","","","","","","","","","","","","","","","","","","","","","","","","","","","","",""
"audio-keyboard-response","90","94408","0.0-4.0-1.0-0.23","3","1","dbvt0vjvd1so55p","","null","","sounds/induction/right/ni_SWS.wav","","null","","","","","","","","","","","","","","","","","","","","","","","","","","","","","","","","","","","","","","","","","",""
"html-button-response","91","94580","0.0-4.0-1.0-1.23","3","1","dbvt0vjvd1so55p","","171.5","","What sound did you hear?","0","","","1","INDUCTION-JUDGMENT","right","0","","","","","","","","","","","","","","","","","","","","","","","","","","","","","","","","","","","","",""
"html-keyboard-response","92","95587","0.0-4.0-1.0-2.23","3","1","dbvt0vjvd1so55p","","null","","<p style=""color:green;""><b>Correct!</b></p>","","null","","","","","","","","","","","","","","","","","","","","","","","","","","","","","","","","","","","","","","","","","",""
"audio-keyboard-response","93","96392","0.0-4.0-1.0-0.24","3","1","dbvt0vjvd1so55p","","null","","sounds/induction/left/re_SWS.wav","","null","","","","","","","","","","","","","","","","","","","","","","","","","","","","","","","","","","","","","","","","","",""
"html-button-response","94","96592","0.0-4.0-1.0-1.24","3","1","dbvt0vjvd1so55p","","198.60000000149012","","What sound did you hear?","0","","","1","INDUCTION-JUDGMENT","left","0","","","","","","","","","","","","","","","","","","","","","","","","","","","","","","","","","","","","",""
"html-keyboard-response","95","97597","0.0-4.0-1.0-2.24","3","1","dbvt0vjvd1so55p","","null","","<p style=""color:green;""><b>Correct!</b></p>","","null","","","","","","","","","","","","","","","","","","","","","","","","","","","","","","","","","","","","","","","","","",""
"audio-keyboard-response","96","98403","0.0-4.0-1.0-0.25","3","1","dbvt0vjvd1so55p","","null","","sounds/induction/right/pu_SWS.wav","","null","","","","","","","","","","","","","","","","","","","","","","","","","","","","","","","","","","","","","","","","","",""
"html-button-response","97","99427","0.0-4.0-1.0-1.25","3","1","dbvt0vjvd1so55p","","1022.5","","What sound did you hear?","1","","","1","INDUCTION-JUDGMENT","right","1","","","","","","","","","","","","","","","","","","","","","","","","","","","","","","","","","","","","",""
"html-keyboard-response","98","100429","0.0-4.0-1.0-2.25","3","1","dbvt0vjvd1so55p","","null","","<p style=""color:green;""><b>Correct!</b></p>","","null","","","","","","","","","","","","","","","","","","","","","","","","","","","","","","","","","","","","","","","","","",""
"audio-keyboard-response","99","101235","0.0-4.0-1.0-0.26","3","1","dbvt0vjvd1so55p","","null","","sounds/induction/left/ti_SWS.wav","","null","","","","","","","","","","","","","","","","","","","","","","","","","","","","","","","","","","","","","","","","","",""
"html-button-response","100","101273","0.0-4.0-1.0-1.26","3","1","dbvt0vjvd1so55p","","38.100000001490116","","What sound did you hear?","0","","","1","INDUCTION-JUDGMENT","left","0","","","","","","","","","","","","","","","","","","","","","","","","","","","","","","","","","","","","",""
"html-keyboard-response","101","102275","0.0-4.0-1.0-2.26","3","1","dbvt0vjvd1so55p","","null","","<p style=""color:green;""><b>Correct!</b></p>","","null","","","","","","","","","","","","","","","","","","","","","","","","","","","","","","","","","","","","","","","","","",""
"audio-keyboard-response","102","103081","0.0-4.0-1.0-0.27","3","1","dbvt0vjvd1so55p","","null","","sounds/induction/right/pu_SWS.wav","","null","","","","","","","","","","","","","","","","","","","","","","","","","","","","","","","","","","","","","","","","","",""
"html-button-response","103","103249","0.0-4.0-1.0-1.27","3","1","dbvt0vjvd1so55p","","167.79999999701977","","What sound did you hear?","0","","","0","INDUCTION-JUDGMENT","right","1","","","","","","","","","","","","","","","","","","","","","","","","","","","","","","","","","","","","",""
"html-keyboard-response","104","104253","0.0-4.0-1.0-2.27","3","1","dbvt0vjvd1so55p","","null","","<p style=""color:red;""><b>Incorrect!</b></p>","","null","","","","","","","","","","","","","","","","","","","","","","","","","","","","","","","","","","","","","","","","","",""
"audio-keyboard-response","105","105059","0.0-4.0-1.0-0.28","3","1","dbvt0vjvd1so55p","","null","","sounds/induction/right/su_SWS.wav","","null","","","","","","","","","","","","","","","","","","","","","","","","","","","","","","","","","","","","","","","","","",""
"html-button-response","106","105245","0.0-4.0-1.0-1.28","3","1","dbvt0vjvd1so55p","","184.79999999701977","","What sound did you hear?","0","","","0","INDUCTION-JUDGMENT","right","1","","","","","","","","","","","","","","","","","","","","","","","","","","","","","","","","","","","","",""
"html-keyboard-response","107","106250","0.0-4.0-1.0-2.28","3","1","dbvt0vjvd1so55p","","null","","<p style=""color:red;""><b>Incorrect!</b></p>","","null","","","","","","","","","","","","","","","","","","","","","","","","","","","","","","","","","","","","","","","","","",""
"audio-keyboard-response","108","107059","0.0-4.0-1.0-0.29","3","1","dbvt0vjvd1so55p","","null","","sounds/induction/left/ge_SWS.wav","","null","","","","","","","","","","","","","","","","","","","","","","","","","","","","","","","","","","","","","","","","","",""
"html-button-response","109","107124","0.0-4.0-1.0-1.29","3","1","dbvt0vjvd1so55p","","63.899999998509884","","What sound did you hear?","0","","","0","INDUCTION-JUDGMENT","left","1","","","","","","","","","","","","","","","","","","","","","","","","","","","","","","","","","","","","",""
"html-keyboard-response","110","108125","0.0-4.0-1.0-2.29","3","1","dbvt0vjvd1so55p","","null","","<p style=""color:red;""><b>Incorrect!</b></p>","","null","","","","","","","","","","","","","","","","","","","","","","","","","","","","","","","","","","","","","","","","","",""
"audio-keyboard-response","111","108931","0.0-4.0-1.0-0.30","3","1","dbvt0vjvd1so55p","","null","","sounds/induction/right/ge_SWS.wav","","null","","","","","","","","","","","","","","","","","","","","","","","","","","","","","","","","","","","","","","","","","",""
"html-button-response","112","108983","0.0-4.0-1.0-1.30","3","1","dbvt0vjvd1so55p","","51.30000000074506","","What sound did you hear?","0","","","1","INDUCTION-JUDGMENT","right","0","","","","","","","","","","","","","","","","","","","","","","","","","","","","","","","","","","","","",""
"html-keyboard-response","113","109985","0.0-4.0-1.0-2.30","3","1","dbvt0vjvd1so55p","","null","","<p style=""color:green;""><b>Correct!</b></p>","","null","","","","","","","","","","","","","","","","","","","","","","","","","","","","","","","","","","","","","","","","","",""
"audio-keyboard-response","114","110787","0.0-4.0-1.0-0.31","3","1","dbvt0vjvd1so55p","","null","","sounds/induction/left/fu_SWS.wav","","null","","","","","","","","","","","","","","","","","","","","","","","","","","","","","","","","","","","","","","","","","",""
"html-button-response","115","110967","0.0-4.0-1.0-1.31","3","1","dbvt0vjvd1so55p","","178.39999999850988","","What sound did you hear?","0","","","0","INDUCTION-JUDGMENT","left","1","","","","","","","","","","","","","","","","","","","","","","","","","","","","","","","","","","","","",""
"html-keyboard-response","116","111971","0.0-4.0-1.0-2.31","3","1","dbvt0vjvd1so55p","","null","","<p style=""color:red;""><b>Incorrect!</b></p>","","null","","","","","","","","","","","","","","","","","","","","","","","","","","","","","","","","","","","","","","","","","",""
"audio-keyboard-response","117","112776","0.0-4.0-1.0-0.32","3","1","dbvt0vjvd1so55p","","null","","sounds/induction/left/su_SWS.wav","","null","","","","","","","","","","","","","","","","","","","","","","","","","","","","","","","","","","","","","","","","","",""
"html-button-response","118","112914","0.0-4.0-1.0-1.32","3","1","dbvt0vjvd1so55p","","136.5","","What sound did you hear?","0","","","1","INDUCTION-JUDGMENT","left","0","","","","","","","","","","","","","","","","","","","","","","","","","","","","","","","","","","","","",""
"html-keyboard-response","119","113918","0.0-4.0-1.0-2.32","3","1","dbvt0vjvd1so55p","","null","","<p style=""color:green;""><b>Correct!</b></p>","","null","","","","","","","","","","","","","","","","","","","","","","","","","","","","","","","","","","","","","","","","","",""
"audio-keyboard-response","120","114723","0.0-4.0-1.0-0.33","3","1","dbvt0vjvd1so55p","","null","","sounds/induction/right/ti_SWS.wav","","null","","","","","","","","","","","","","","","","","","","","","","","","","","","","","","","","","","","","","","","","","",""
"html-button-response","121","115669","0.0-4.0-1.0-1.33","3","1","dbvt0vjvd1so55p","","945.0999999977648","","What sound did you hear?","1","","","1","INDUCTION-JUDGMENT","right","1","","","","","","","","","","","","","","","","","","","","","","","","","","","","","","","","","","","","",""
"html-keyboard-response","122","116675","0.0-4.0-1.0-2.33","3","1","dbvt0vjvd1so55p","","null","","<p style=""color:green;""><b>Correct!</b></p>","","null","","","","","","","","","","","","","","","","","","","","","","","","","","","","","","","","","","","","","","","","","",""
"audio-keyboard-response","123","117480","0.0-4.0-1.0-0.34","3","1","dbvt0vjvd1so55p","","null","","sounds/induction/left/me_SWS.wav","","null","","","","","","","","","","","","","","","","","","","","","","","","","","","","","","","","","","","","","","","","","",""
"html-button-response","124","118227","0.0-4.0-1.0-1.34","3","1","dbvt0vjvd1so55p","","746.5","","What sound did you hear?","1","","","1","INDUCTION-JUDGMENT","left","1","","","","","","","","","","","","","","","","","","","","","","","","","","","","","","","","","","","","",""
"html-keyboard-response","125","119230","0.0-4.0-1.0-2.34","3","1","dbvt0vjvd1so55p","","null","","<p style=""color:green;""><b>Correct!</b></p>","","null","","","","","","","","","","","","","","","","","","","","","","","","","","","","","","","","","","","","","","","","","",""
"audio-keyboard-response","126","120035","0.0-4.0-1.0-0.35","3","1","dbvt0vjvd1so55p","","null","","sounds/induction/right/fu_SWS.wav","","null","","","","","","","","","","","","","","","","","","","","","","","","","","","","","","","","","","","","","","","","","",""
"html-button-response","127","122064","0.0-4.0-1.0-1.35","3","1","dbvt0vjvd1so55p","","2027.6000000014901","","What sound did you hear?","0","","","1","INDUCTION-JUDGMENT","right","0","","","","","","","","","","","","","","","","","","","","","","","","","","","","","","","","","","","","",""
"html-keyboard-response","128","123068","0.0-4.0-1.0-2.35","3","1","dbvt0vjvd1so55p","","null","","<p style=""color:green;""><b>Correct!</b></p>","","null","","","","","","","","","","","","","","","","","","","","","","","","","","","","","","","","","","","","","","","","","",""
"audio-keyboard-response","129","123876","0.0-4.0-1.0-0.36","3","1","dbvt0vjvd1so55p","","null","","sounds/induction/right/ta_SWS.wav","","null","","","","","","","","","","","","","","","","","","","","","","","","","","","","","","","","","","","","","","","","","",""
"html-button-response","130","128309","0.0-4.0-1.0-1.36","3","1","dbvt0vjvd1so55p","","4432.400000002235","","What sound did you hear?","1","","","1","INDUCTION-JUDGMENT","right","1","","","","","","","","","","","","","","","","","","","","","","","","","","","","","","","","","","","","",""
"html-keyboard-response","131","129312","0.0-4.0-1.0-2.36","3","1","dbvt0vjvd1so55p","","null","","<p style=""color:green;""><b>Correct!</b></p>","","null","","","","","","","","","","","","","","","","","","","","","","","","","","","","","","","","","","","","","","","","","",""
"audio-keyboard-response","132","130121","0.0-4.0-1.0-0.37","3","1","dbvt0vjvd1so55p","","null","","sounds/induction/right/me_SWS.wav","","null","","","","","","","","","","","","","","","","","","","","","","","","","","","","","","","","","","","","","","","","","",""
"html-button-response","133","131519","0.0-4.0-1.0-1.37","3","1","dbvt0vjvd1so55p","","1396.699999999255","","What sound did you hear?","0","","","1","INDUCTION-JUDGMENT","right","0","","","","","","","","","","","","","","","","","","","","","","","","","","","","","","","","","","","","",""
"html-keyboard-response","134","132521","0.0-4.0-1.0-2.37","3","1","dbvt0vjvd1so55p","","null","","<p style=""color:green;""><b>Correct!</b></p>","","null","","","","","","","","","","","","","","","","","","","","","","","","","","","","","","","","","","","","","","","","","",""
"audio-keyboard-response","135","133326","0.0-4.0-1.0-0.38","3","1","dbvt0vjvd1so55p","","null","","sounds/induction/left/pu_SWS.wav","","null","","","","","","","","","","","","","","","","","","","","","","","","","","","","","","","","","","","","","","","","","",""
"html-button-response","136","134294","0.0-4.0-1.0-1.38","3","1","dbvt0vjvd1so55p","","967","","What sound did you hear?","0","","","1","INDUCTION-JUDGMENT","left","0","","","","","","","","","","","","","","","","","","","","","","","","","","","","","","","","","","","","",""
"html-keyboard-response","137","135297","0.0-4.0-1.0-2.38","3","1","dbvt0vjvd1so55p","","null","","<p style=""color:green;""><b>Correct!</b></p>","","null","","","","","","","","","","","","","","","","","","","","","","","","","","","","","","","","","","","","","","","","","",""
"audio-keyboard-response","138","136105","0.0-4.0-1.0-0.39","3","1","dbvt0vjvd1so55p","","null","","sounds/induction/right/ta_SWS.wav","","null","","","","","","","","","","","","","","","","","","","","","","","","","","","","","","","","","","","","","","","","","",""
"html-button-response","139","137206","0.0-4.0-1.0-1.39","3","1","dbvt0vjvd1so55p","","1099.300000000745","","What sound did you hear?","1","","","1","INDUCTION-JUDGMENT","right","1","","","","","","","","","","","","","","","","","","","","","","","","","","","","","","","","","","","","",""
"html-keyboard-response","140","138212","0.0-4.0-1.0-2.39","3","1","dbvt0vjvd1so55p","","null","","<p style=""color:green;""><b>Correct!</b></p>","","null","","","","","","","","","","","","","","","","","","","","","","","","","","","","","","","","","","","","","","","","","",""
"audio-keyboard-response","141","139017","0.0-4.0-1.0-0.40","3","1","dbvt0vjvd1so55p","","null","","sounds/induction/right/me_SWS.wav","","null","","","","","","","","","","","","","","","","","","","","","","","","","","","","","","","","","","","","","","","","","",""
"html-button-response","142","139922","0.0-4.0-1.0-1.40","3","1","dbvt0vjvd1so55p","","903.6000000014901","","What sound did you hear?","0","","","1","INDUCTION-JUDGMENT","right","0","","","","","","","","","","","","","","","","","","","","","","","","","","","","","","","","","","","","",""
"html-keyboard-response","143","140927","0.0-4.0-1.0-2.40","3","1","dbvt0vjvd1so55p","","null","","<p style=""color:green;""><b>Correct!</b></p>","","null","","","","","","","","","","","","","","","","","","","","","","","","","","","","","","","","","","","","","","","","","",""
"audio-keyboard-response","144","141732","0.0-4.0-1.0-0.41","3","1","dbvt0vjvd1so55p","","null","","sounds/induction/left/ni_SWS.wav","","null","","","","","","","","","","","","","","","","","","","","","","","","","","","","","","","","","","","","","","","","","",""
"html-button-response","145","142793","0.0-4.0-1.0-1.41","3","1","dbvt0vjvd1so55p","","1059.0999999977648","","What sound did you hear?","1","","","1","INDUCTION-JUDGMENT","left","1","","","","","","","","","","","","","","","","","","","","","","","","","","","","","","","","","","","","",""
"html-keyboard-response","146","143796","0.0-4.0-1.0-2.41","3","1","dbvt0vjvd1so55p","","null","","<p style=""color:green;""><b>Correct!</b></p>","","null","","","","","","","","","","","","","","","","","","","","","","","","","","","","","","","","","","","","","","","","","",""
"audio-keyboard-response","147","144601","0.0-4.0-1.0-0.42","3","1","dbvt0vjvd1so55p","","null","","sounds/induction/right/re_SWS.wav","","null","","","","","","","","","","","","","","","","","","","","","","","","","","","","","","","","","","","","","","","","","",""
"html-button-response","148","145453","0.0-4.0-1.0-1.42","3","1","dbvt0vjvd1so55p","","850.8999999985099","","What sound did you hear?","1","","","1","INDUCTION-JUDGMENT","right","1","","","","","","","","","","","","","","","","","","","","","","","","","","","","","","","","","","","","",""
"html-keyboard-response","149","146457","0.0-4.0-1.0-2.42","3","1","dbvt0vjvd1so55p","","null","","<p style=""color:green;""><b>Correct!</b></p>","","null","","","","","","","","","","","","","","","","","","","","","","","","","","","","","","","","","","","","","","","","","",""
"audio-keyboard-response","150","147263","0.0-4.0-1.0-0.43","3","1","dbvt0vjvd1so55p","","null","","sounds/induction/right/re_SWS.wav","","null","","","","","","","","","","","","","","","","","","","","","","","","","","","","","","","","","","","","","","","","","",""
"html-button-response","151","147729","0.0-4.0-1.0-1.43","3","1","dbvt0vjvd1so55p","","465.30000000074506","","What sound did you hear?","1","","","1","INDUCTION-JUDGMENT","right","1","","","","","","","","","","","","","","","","","","","","","","","","","","","","","","","","","","","","",""
"html-keyboard-response","152","148731","0.0-4.0-1.0-2.43","3","1","dbvt0vjvd1so55p","","null","","<p style=""color:green;""><b>Correct!</b></p>","","null","","","","","","","","","","","","","","","","","","","","","","","","","","","","","","","","","","","","","","","","","",""
"audio-keyboard-response","153","149535","0.0-4.0-1.0-0.44","3","1","dbvt0vjvd1so55p","","null","","sounds/induction/right/fe_SWS.wav","","null","","","","","","","","","","","","","","","","","","","","","","","","","","","","","","","","","","","","","","","","","",""
"html-button-response","154","149988","0.0-4.0-1.0-1.44","3","1","dbvt0vjvd1so55p","","452","","What sound did you hear?","1","","","0","INDUCTION-JUDGMENT","right","0","","","","","","","","","","","","","","","","","","","","","","","","","","","","","","","","","","","","",""
"html-keyboard-response","155","150991","0.0-4.0-1.0-2.44","3","1","dbvt0vjvd1so55p","","null","","<p style=""color:red;""><b>Incorrect!</b></p>","","null","","","","","","","","","","","","","","","","","","","","","","","","","","","","","","","","","","","","","","","","","",""
"audio-keyboard-response","156","151796","0.0-4.0-1.0-0.45","3","1","dbvt0vjvd1so55p","","null","","sounds/induction/left/ko_SWS.wav","","null","","","","","","","","","","","","","","","","","","","","","","","","","","","","","","","","","","","","","","","","","",""
"html-button-response","157","152658","0.0-4.0-1.0-1.45","3","1","dbvt0vjvd1so55p","","860.7999999970198","","What sound did you hear?","0","","","0","INDUCTION-JUDGMENT","left","1","","","","","","","","","","","","","","","","","","","","","","","","","","","","","","","","","","","","",""
"html-keyboard-response","158","153663","0.0-4.0-1.0-2.45","3","1","dbvt0vjvd1so55p","","null","","<p style=""color:red;""><b>Incorrect!</b></p>","","null","","","","","","","","","","","","","","","","","","","","","","","","","","","","","","","","","","","","","","","","","",""
"audio-keyboard-response","159","154468","0.0-4.0-1.0-0.46","3","1","dbvt0vjvd1so55p","","null","","sounds/induction/right/ru_SWS.wav","","null","","","","","","","","","","","","","","","","","","","","","","","","","","","","","","","","","","","","","","","","","",""
"html-button-response","160","155249","0.0-4.0-1.0-1.46","3","1","dbvt0vjvd1so55p","","779.5","","What sound did you hear?","1","","","1","INDUCTION-JUDGMENT","right","1","","","","","","","","","","","","","","","","","","","","","","","","","","","","","","","","","","","","",""
"html-keyboard-response","161","156252","0.0-4.0-1.0-2.46","3","1","dbvt0vjvd1so55p","","null","","<p style=""color:green;""><b>Correct!</b></p>","","null","","","","","","","","","","","","","","","","","","","","","","","","","","","","","","","","","","","","","","","","","",""
"audio-keyboard-response","162","157060","0.0-4.0-1.0-0.47","3","1","dbvt0vjvd1so55p","","null","","sounds/induction/left/ru_SWS.wav","","null","","","","","","","","","","","","","","","","","","","","","","","","","","","","","","","","","","","","","","","","","",""
"html-button-response","163","157853","0.0-4.0-1.0-1.47","3","1","dbvt0vjvd1so55p","","790.8000000007451","","What sound did you hear?","0","","","1","INDUCTION-JUDGMENT","left","0","","","","","","","","","","","","","","","","","","","","","","","","","","","","","","","","","","","","",""
"html-keyboard-response","164","158854","0.0-4.0-1.0-2.47","3","1","dbvt0vjvd1so55p","","null","","<p style=""color:green;""><b>Correct!</b></p>","","null","","","","","","","","","","","","","","","","","","","","","","","","","","","","","","","","","","","","","","","","","",""
"html-button-response","165","170577","0.0-5.0-0.0","3","1","dbvt0vjvd1so55p","","11217","","<p>Thank you for your answers.</p><p>You will now listen to similar sounds. The main difference is that the sounds will be longer and will make up complete sentences.</p><p>Please listen carefully to each sentence. After each sentence, you will be asked to type back what you heard to the best of your ability. After you provide your response, you will be given feedback about the correct answer.</p><p>There are 10 sentences in total.","0","","","","","","","","","","","","","","","","","","","","","","","","","","","","","","","","","","","","","","","","","","",""
"audio-keyboard-response","166","173338","0.0-5.0-1.0-0.0","3","1","dbvt0vjvd1so55p","","null","","sounds/sentences/right/14_08_cfSWS.wav","","null","","","","","","","","","","","","","","","","","","","","","","","","","","","","","","","","","","","","","","","","","",""
"sentence-resp","167","179632","0.0-5.0-1.0-1.0","3","1","dbvt0vjvd1so55p","","6291","","","","","","","SWS-SENT-RESPONSE","","","{""Q0"":""for free human""}","Clothes and lodging are free to new men.","clothes,lodging,free,new,men","FOR FREE HUMAN","0","0","1","0","0","1","0.2","","","","","","","","","","","","","","","","","","","","","","","","","",""
"html-keyboard-response","168","180890","0.0-5.0-1.0-2.0","3","1","dbvt0vjvd1so55p","","null","","","","null","","","","","","","","","","","","","","","","","","","","","","","","","","","","","","","","","","","","","","","","","",""
"audio-keyboard-response","169","183147","0.0-5.0-1.0-3.0","3","1","dbvt0vjvd1so55p","","null","","sounds/sentences/right/14_08_cfSWS.wav","","null","","","","","","","","","","","","","","","","","","","","","","","","","","","","","","","","","","","","","","","","","",""
"html-keyboard-response","170","184151","0.0-5.0-1.0-4.0","3","1","dbvt0vjvd1so55p","","null","","","","null","","","","","","","","","","","","","","","","","","","","","","","","","","","","","","","","","","","","","","","","","",""
"html-button-response","171","185484","0.0-5.0-1.0-5.0","3","1","dbvt0vjvd1so55p","","827.9000000022352","","<p>Press the button below when you are ready to continue.</p>","0","","","","","","","","","","","","","","","","","","","","","","","","","","","","","","","","","","","","","","","","","","",""
"audio-keyboard-response","172","188373","0.0-5.0-1.0-0.1","3","1","dbvt0vjvd1so55p","","null","","sounds/sentences/right/14_07_cfSWS.wav","","null","","","","","","","","","","","","","","","","","","","","","","","","","","","","","","","","","","","","","","","","","",""
"sentence-resp","173","197724","0.0-5.0-1.0-1.1","3","1","dbvt0vjvd1so55p","","9350","","","","","","","SWS-SENT-RESPONSE","","","{""Q0"":""is a friend you cherish""}","Write a fond note to the friend you cherish.","write,fond,note,friend,cherish","IS A FRIEND YOU CHERISH","0","0","0","1","1","2","0.4","","","","","","","","","","","","","","","","","","","","","","","","","",""
"html-keyboard-response","174","198982","0.0-5.0-1.0-2.1","3","1","dbvt0vjvd1so55p","","null","","","","null","","","","","","","","","","","","","","","","","","","","","","","","","","","","","","","","","","","","","","","","","",""
"audio-keyboard-response","175","201371","0.0-5.0-1.0-3.1","3","1","dbvt0vjvd1so55p","","null","","sounds/sentences/right/14_07_cfSWS.wav","","null","","","","","","","","","","","","","","","","","","","","","","","","","","","","","","","","","","","","","","","","","",""
"html-keyboard-response","176","202374","0.0-5.0-1.0-4.1","3","1","dbvt0vjvd1so55p","","null","","","","null","","","","","","","","","","","","","","","","","","","","","","","","","","","","","","","","","","","","","","","","","",""
"html-button-response","177","204025","0.0-5.0-1.0-5.1","3","1","dbvt0vjvd1so55p","","1149","","<p>Press the button below when you are ready to continue.</p>","0","","","","","","","","","","","","","","","","","","","","","","","","","","","","","","","","","","","","","","","","","","",""
"audio-keyboard-response","178","206608","0.0-5.0-1.0-0.2","3","1","dbvt0vjvd1so55p","","null","","sounds/sentences/left/14_03_cfSWS.wav","","null","","","","","","","","","","","","","","","","","","","","","","","","","","","","","","","","","","","","","","","","","",""
"sentence-resp","179","216342","0.0-5.0-1.0-1.2","3","1","dbvt0vjvd1so55p","","9731","","","","","","","SWS-SENT-RESPONSE","","","{""Q0"":""lots of trees grow without leaves""}","Pluck the bright rose without leaves.","pluck,bright,rose,without,leaves","LOTS OF TREES GROW WITHOUT LEAVES","0","0","0","1","1","2","0.4","","","","","","","","","","","","","","","","","","","","","","","","","",""
"html-keyboard-response","180","217599","0.0-5.0-1.0-2.2","3","1","dbvt0vjvd1so55p","","null","","","","null","","","","","","","","","","","","","","","","","","","","","","","","","","","","","","","","","","","","","","","","","",""
"audio-keyboard-response","181","219681","0.0-5.0-1.0-3.2","3","1","dbvt0vjvd1so55p","","null","","sounds/sentences/left/14_03_cfSWS.wav","","null","","","","","","","","","","","","","","","","","","","","","","","","","","","","","","","","","","","","","","","","","",""
"html-keyboard-response","182","220686","0.0-5.0-1.0-4.2","3","1","dbvt0vjvd1so55p","","null","","","","null","","","","","","","","","","","","","","","","","","","","","","","","","","","","","","","","","","","","","","","","","",""
"html-button-response","183","222085","0.0-5.0-1.0-5.2","3","1","dbvt0vjvd1so55p","","893.6999999992549","","<p>Press the button below when you are ready to continue.</p>","0","","","","","","","","","","","","","","","","","","","","","","","","","","","","","","","","","","","","","","","","","","",""
"audio-keyboard-response","184","225100","0.0-5.0-1.0-0.3","3","1","dbvt0vjvd1so55p","","null","","sounds/sentences/right/14_10_cfSWS.wav","","null","","","","","","","","","","","","","","","","","","","","","","","","","","","","","","","","","","","","","","","","","",""
"sentence-resp","185","243201","0.0-5.0-1.0-1.3","3","1","dbvt0vjvd1so55p","","18099","","","","","","","SWS-SENT-RESPONSE","","","{""Q0"":""strong line with a smokey taste""}","Port is a strong wine with a smoky taste.","port,strong,wine,smoky,taste","STRONG LINE WITH A SMOKEY TASTE","0","1","0","0","1","2","0.4","","","","","","","","","","","","","","","","","","","","","","","","","",""
"html-keyboard-response","186","244457","0.0-5.0-1.0-2.3","3","1","dbvt0vjvd1so55p","","null","","","","null","","","","","","","","","","","","","","","","","","","","","","","","","","","","","","","","","","","","","","","","","",""
"audio-keyboard-response","187","246972","0.0-5.0-1.0-3.3","3","1","dbvt0vjvd1so55p","","null","","sounds/sentences/right/14_10_cfSWS.wav","","null","","","","","","","","","","","","","","","","","","","","","","","","","","","","","","","","","","","","","","","","","",""
"html-keyboard-response","188","247975","0.0-5.0-1.0-4.3","3","1","dbvt0vjvd1so55p","","null","","","","null","","","","","","","","","","","","","","","","","","","","","","","","","","","","","","","","","","","","","","","","","",""
"html-button-response","189","250541","0.0-5.0-1.0-5.3","3","1","dbvt0vjvd1so55p","","2064.400000002235","","<p>Press the button below when you are ready to continue.</p>","0","","","","","","","","","","","","","","","","","","","","","","","","","","","","","","","","","","","","","","","","","","",""
"audio-keyboard-response","190","253533","0.0-5.0-1.0-0.4","3","1","dbvt0vjvd1so55p","","null","","sounds/sentences/left/14_05_cfSWS.wav","","null","","","","","","","","","","","","","","","","","","","","","","","","","","","","","","","","","","","","","","","","","",""
"sentence-resp","191","267797","0.0-5.0-1.0-1.4","3","1","dbvt0vjvd1so55p","","14263","","","","","","","SWS-SENT-RESPONSE","","","{""Q0"":""deep into the eyes of the sweet girl ""}","The glow deepened in the eyes of the sweet girl.","glow,deepened,eyes,sweet,girl","DEEP INTO THE EYES OF THE SWEET GIRL ","0","0","1","1","1","3","0.6","","","","","","","","","","","","","","","","","","","","","","","","","",""
"html-keyboard-response","192","269053","0.0-5.0-1.0-2.4","3","1","dbvt0vjvd1so55p","","null","","","","null","","","","","","","","","","","","","","","","","","","","","","","","","","","","","","","","","","","","","","","","","",""
"audio-keyboard-response","193","271544","0.0-5.0-1.0-3.4","3","1","dbvt0vjvd1so55p","","null","","sounds/sentences/left/14_05_cfSWS.wav","","null","","","","","","","","","","","","","","","","","","","","","","","","","","","","","","","","","","","","","","","","","",""
"html-keyboard-response","194","272547","0.0-5.0-1.0-4.4","3","1","dbvt0vjvd1so55p","","null","","","","null","","","","","","","","","","","","","","","","","","","","","","","","","","","","","","","","","","","","","","","","","",""
"html-button-response","195","273949","0.0-5.0-1.0-5.4","3","1","dbvt0vjvd1so55p","","899.6999999992549","","<p>Press the button below when you are ready to continue.</p>","0","","","","","","","","","","","","","","","","","","","","","","","","","","","","","","","","","","","","","","","","","","",""
"audio-keyboard-response","196","277069","0.0-5.0-1.0-0.5","3","1","dbvt0vjvd1so55p","","null","","sounds/sentences/left/14_01_cfSWS.wav","","null","","","","","","","","","","","","","","","","","","","","","","","","","","","","","","","","","","","","","","","","","",""
"sentence-resp","197","293312","0.0-5.0-1.0-1.5","3","1","dbvt0vjvd1so55p","","16240","","","","","","","SWS-SENT-RESPONSE","","","{""Q0"":""a cramp is not a small danger on a swim""}","A cramp is no small danger on a swim.","cramp,no,small,danger,swim","A CRAMP IS NOT A SMALL DANGER ON A SWIM","1","0","1","1","1","4","0.8","","","","","","","","","","","","","","","","","","","","","","","","","",""
"html-keyboard-response","198","294571","0.0-5.0-1.0-2.5","3","1","dbvt0vjvd1so55p","","null","","","","null","","","","","","","","","","","","","","","","","","","","","","","","","","","","","","","","","","","","","","","","","",""
"audio-keyboard-response","199","297187","0.0-5.0-1.0-3.5","3","1","dbvt0vjvd1so55p","","null","","sounds/sentences/left/14_01_cfSWS.wav","","null","","","","","","","","","","","","","","","","","","","","","","","","","","","","","","","","","","","","","","","","","",""
"html-keyboard-response","200","298190","0.0-5.0-1.0-4.5","3","1","dbvt0vjvd1so55p","","null","","","","null","","","","","","","","","","","","","","","","","","","","","","","","","","","","","","","","","","","","","","","","","",""
"html-button-response","201","299664","0.0-5.0-1.0-5.5","3","1","dbvt0vjvd1so55p","","972","","<p>Press the button below when you are ready to continue.</p>","0","","","","","","","","","","","","","","","","","","","","","","","","","","","","","","","","","","","","","","","","","","",""
"audio-keyboard-response","202","302414","0.0-5.0-1.0-0.6","3","1","dbvt0vjvd1so55p","","null","","sounds/sentences/right/14_06_cfSWS.wav","","null","","","","","","","","","","","","","","","","","","","","","","","","","","","","","","","","","","","","","","","","","",""
"sentence-resp","203","311435","0.0-5.0-1.0-1.6","3","1","dbvt0vjvd1so55p","","9019","","","","","","","SWS-SENT-RESPONSE","","","{""Q0"":""bring your porblems to the wise cheif ""}","Bring your problems to the wise chief.","bring,your,problems,wise,chief","BRING YOUR PORBLEMS TO THE WISE CHEIF ","1","1","0","1","0","3","0.6","","","","","","","","","","","","","","","","","","","","","","","","","",""
"html-keyboard-response","204","312692","0.0-5.0-1.0-2.6","3","1","dbvt0vjvd1so55p","","null","","","","null","","","","","","","","","","","","","","","","","","","","","","","","","","","","","","","","","","","","","","","","","",""
"audio-keyboard-response","205","314937","0.0-5.0-1.0-3.6","3","1","dbvt0vjvd1so55p","","null","","sounds/sentences/right/14_06_cfSWS.wav","","null","","","","","","","","","","","","","","","","","","","","","","","","","","","","","","","","","","","","","","","","","",""
"html-keyboard-response","206","315940","0.0-5.0-1.0-4.6","3","1","dbvt0vjvd1so55p","","null","","","","null","","","","","","","","","","","","","","","","","","","","","","","","","","","","","","","","","","","","","","","","","",""
"html-button-response","207","318780","0.0-5.0-1.0-5.6","3","1","dbvt0vjvd1so55p","","2337.7000000029802","","<p>Press the button below when you are ready to continue.</p>","0","","","","","","","","","","","","","","","","","","","","","","","","","","","","","","","","","","","","","","","","","","",""
"audio-keyboard-response","208","321332","0.0-5.0-1.0-0.7","3","1","dbvt0vjvd1so55p","","null","","sounds/sentences/left/14_04_cfSWS.wav","","null","","","","","","","","","","","","","","","","","","","","","","","","","","","","","","","","","","","","","","","","","",""
"sentence-resp","209","329438","0.0-5.0-1.0-1.7","3","1","dbvt0vjvd1so55p","","8105","","","","","","","SWS-SENT-RESPONSE","","","{""Q0"":""two plus seven is less than ten \n""}","Two plus seven is less than ten.","two,plus,seven,less,ten","TWO PLUS SEVEN IS LESS THAN TEN  ","1","1","1","1","1","5","1","","","","","","","","","","","","","","","","","","","","","","","","","",""
"html-keyboard-response","210","330692","0.0-5.0-1.0-2.7","3","1","dbvt0vjvd1so55p","","null","","","","null","","","","","","","","","","","","","","","","","","","","","","","","","","","","","","","","","","","","","","","","","",""
"audio-keyboard-response","211","332746","0.0-5.0-1.0-3.7","3","1","dbvt0vjvd1so55p","","null","","sounds/sentences/left/14_04_cfSWS.wav","","null","","","","","","","","","","","","","","","","","","","","","","","","","","","","","","","","","","","","","","","","","",""
"html-keyboard-response","212","333747","0.0-5.0-1.0-4.7","3","1","dbvt0vjvd1so55p","","null","","","","null","","","","","","","","","","","","","","","","","","","","","","","","","","","","","","","","","","","","","","","","","",""
"html-button-response","213","336199","0.0-5.0-1.0-5.7","3","1","dbvt0vjvd1so55p","","1948.300000000745","","<p>Press the button below when you are ready to continue.</p>","0","","","","","","","","","","","","","","","","","","","","","","","","","","","","","","","","","","","","","","","","","","",""
"audio-keyboard-response","214","338932","0.0-5.0-1.0-0.8","3","1","dbvt0vjvd1so55p","","null","","sounds/sentences/right/14_09_cfSWS.wav","","null","","","","","","","","","","","","","","","","","","","","","","","","","","","","","","","","","","","","","","","","","",""
"sentence-resp","215","348089","0.0-5.0-1.0-1.8","3","1","dbvt0vjvd1so55p","","9154","","","","","","","SWS-SENT-RESPONSE","","","{""Q0"":""chain of events ""}","We frown when events take a bad turn.","frown,events,take,bad,turn","CHAIN OF EVENTS ","0","1","0","0","0","1","0.2","","","","","","","","","","","","","","","","","","","","","","","","","",""
"html-keyboard-response","216","349347","0.0-5.0-1.0-2.8","3","1","dbvt0vjvd1so55p","","null","","","","null","","","","","","","","","","","","","","","","","","","","","","","","","","","","","","","","","","","","","","","","","",""
"audio-keyboard-response","217","351573","0.0-5.0-1.0-3.8","3","1","dbvt0vjvd1so55p","","null","","sounds/sentences/right/14_09_cfSWS.wav","","null","","","","","","","","","","","","","","","","","","","","","","","","","","","","","","","","","","","","","","","","","",""
"html-keyboard-response","218","352578","0.0-5.0-1.0-4.8","3","1","dbvt0vjvd1so55p","","null","","","","null","","","","","","","","","","","","","","","","","","","","","","","","","","","","","","","","","","","","","","","","","",""
"html-button-response","219","354806","0.0-5.0-1.0-5.8","3","1","dbvt0vjvd1so55p","","1722.6000000014901","","<p>Press the button below when you are ready to continue.</p>","0","","","","","","","","","","","","","","","","","","","","","","","","","","","","","","","","","","","","","","","","","","",""
"audio-keyboard-response","220","357626","0.0-5.0-1.0-0.9","3","1","dbvt0vjvd1so55p","","null","","sounds/sentences/left/14_02_cfSWS.wav","","null","","","","","","","","","","","","","","","","","","","","","","","","","","","","","","","","","","","","","","","","","",""
"sentence-resp","221","367584","0.0-5.0-1.0-1.9","3","1","dbvt0vjvd1so55p","","9952","","","","","","","SWS-SENT-RESPONSE","","","{""Q0"":""he said the same phrase thrity times""}","He said the same phrase thirty times.","said,same,phrase,thirty,times","HE SAID THE SAME PHRASE THRITY TIMES","1","1","1","0","1","4","0.8","","","","","","","","","","","","","","","","","","","","","","","","","",""
"html-keyboard-response","222","368844","0.0-5.0-1.0-2.9","3","1","dbvt0vjvd1so55p","","null","","","","null","","","","","","","","","","","","","","","","","","","","","","","","","","","","","","","","","","","","","","","","","",""
"audio-keyboard-response","223","371163","0.0-5.0-1.0-3.9","3","1","dbvt0vjvd1so55p","","null","","sounds/sentences/left/14_02_cfSWS.wav","","null","","","","","","","","","","","","","","","","","","","","","","","","","","","","","","","","","","","","","","","","","",""
"html-keyboard-response","224","372165","0.0-5.0-1.0-4.9","3","1","dbvt0vjvd1so55p","","null","","","","null","","","","","","","","","","","","","","","","","","","","","","","","","","","","","","","","","","","","","","","","","",""
"html-button-response","225","374569","0.0-5.0-1.0-5.9","3","1","dbvt0vjvd1so55p","","1900.699999999255","","<p>Press the button below when you are ready to continue.</p>","0","","","","","","","","","","","","","","","","","","","","","","","","","","","","","","","","","","","","","","","","","","",""
"html-keyboard-response","226","394693","0.0-6.0-0.0","3","1","dbvt0vjvd1so55p","","19619.39999999851","","<p>In this part of the study, you will hear sounds similar to those you just heard.</p><p>Please focus on these sounds, as you may be asked questions about them later.</p><p>Occasionally, the sounds will pause for up to two seconds. When this happens, please press SPACEBAR as quickly as you can.</br>This helps ensure that you are paying attention to the sounds.</p><p>This part of the study will take about 12 minutes to complete, and you will be given the opportunity to take a couple of short breaks every few minutes.</p><p><strong>Press SPACEBAR to begin</strong></p>","","32","","","","","","","","","","","","","","","","","","","","","","","","","","","","","","","","","","","","","","","","","",""
"html-keyboard-response","227","395697","0.0-6.0-1.0-0.0","3","1","dbvt0vjvd1so55p","","null","","<p style=""font-size: 40px;"">+</p>","","null","","","","","","","","","","","","","","","","","","","","","","","","","","","","","","","","","","","","","","","","","",""
"html-keyboard-response","228","580710","0.0-6.0-1.0-1.0","3","1","dbvt0vjvd1so55p","","null","","","","null","","","SL-TRAIN","","","","","","","","","","","","","","1","null","1505.199999999255","sounds/C/TRAIN/SEQ__05.mp3","4","","","","","","","","","","","","","","","","","","","","",""
"html-button-response","229","584707","0.0-6.0-1.0-2.0","3","1","dbvt0vjvd1so55p","","3994.10000000149","","<p>You may take a short break if you wish.</p>","0","","","","","","","","","","","","","","","","","","","","","","","","","","","","","","","","","","","","","","","","","","",""
"html-keyboard-response","230","585709","0.0-6.0-1.0-3.0","3","1","dbvt0vjvd1so55p","","null","","<p style=""font-size: 40px;"">+</p>","","null","","","","","","","","","","","","","","","","","","","","","","","","","","","","","","","","","","","","","","","","","",""
"html-keyboard-response","231","770722","0.0-6.0-1.0-4.0","3","1","dbvt0vjvd1so55p","","null","","","","null","","","SL-TRAIN","","","","","","","","","","","","","","2","null","null","sounds/C/TRAIN/SEQ__01.mp3","7","","","","","","","","","","","","","","","","","","","","",""
"html-button-response","232","773802","0.0-6.0-1.0-5.0","3","1","dbvt0vjvd1so55p","","3077.2999999970198","","<p>You may take a short break if you wish.</p>","0","","","","","","","","","","","","","","","","","","","","","","","","","","","","","","","","","","","","","","","","","","",""
"html-keyboard-response","233","774807","0.0-6.0-1.0-6.0","3","1","dbvt0vjvd1so55p","","null","","<p style=""font-size: 40px;"">+</p>","","null","","","","","","","","","","","","","","","","","","","","","","","","","","","","","","","","","","","","","","","","","",""
"html-keyboard-response","234","959816","0.0-6.0-1.0-7.0","3","1","dbvt0vjvd1so55p","","null","","","","null","","","SL-TRAIN","","","","","","","","","","","","","","2","null","null","sounds/C/TRAIN/SEQ__03.mp3","23","","","","","","","","","","","","","","","","","","","","",""
"html-button-response","235","963455","0.0-6.0-1.0-8.0","3","1","dbvt0vjvd1so55p","","3637.89999999851","","<p>You may take a short break if you wish.</p>","0","","","","","","","","","","","","","","","","","","","","","","","","","","","","","","","","","","","","","","","","","","",""
"html-keyboard-response","236","964456","0.0-6.0-1.0-9.0","3","1","dbvt0vjvd1so55p","","null","","<p style=""font-size: 40px;"">+</p>","","null","","","","","","","","","","","","","","","","","","","","","","","","","","","","","","","","","","","","","","","","","",""
"html-keyboard-response","237","1149483","0.0-6.0-1.0-10.0","3","1","dbvt0vjvd1so55p","","null","","","","null","","","SL-TRAIN","","","","","","","","","","","","","","1","null","1700.5","sounds/C/TRAIN/SEQ__06.mp3","11","","","","","","","","","","","","","","","","","","","","",""
"html-button-response","238","1161253","0.0-6.0-1.0-11.0","3","1","dbvt0vjvd1so55p","","11768.300000000745","","<p>You may take a short break if you wish.</p>","0","","","","","","","","","","","","","","","","","","","","","","","","","","","","","","","","","","","","","","","","","","",""
"html-button-response","239","1167042","0.0-7.0-0.0","3","1","dbvt0vjvd1so55p","","5787.39999999851","","<p>Welcome to the second part of the study. This is a <u>familiarity task</u>.</p><p>You will now hear short sounds and will be asked to rate how familiar they sound to you <b>based on what you heard in the previous part of the study</b>.</p><p>You will rate 12 sounds in total.</p>","0","","","","","","","","","","","","","","","","","","","","","","","","","","","","","","","","","","","","","","","","","","",""
"html-keyboard-response","240","1168044","0.0-7.0-1.0-0.0","3","1","dbvt0vjvd1so55p","","null","","","","null","","","","","","","","","","","","","","","","","","","","","","","","","","","","","","","","","","","","","","","","","",""
"audio-keyboard-response","241","1169012","0.0-7.0-1.0-1.0","3","1","dbvt0vjvd1so55p","","null","","sounds/C/FAM/P003.mp3","","null","","","","","","","","","","","","","","","","","","","","","","","","","","","","","","","","","","","","","","","","","",""
"html-keyboard-response","242","1176877","0.0-7.0-1.0-2.0","3","1","dbvt0vjvd1so55p","","7361.60000000149","","<p>How familiar did this sound to you?</p><p>1&nbsp;&nbsp;&nbsp;&nbsp;&nbsp;&nbsp;&nbsp;&nbsp;&nbsp;&nbsp;&nbsp;&nbsp;&nbsp;&nbsp;&nbsp;&nbsp;&nbsp;&nbsp;&nbsp;2&nbsp;&nbsp;&nbsp;&nbsp;&nbsp;&nbsp;&nbsp;&nbsp;&nbsp;&nbsp;&nbsp;&nbsp;&nbsp;&nbsp;&nbsp;&nbsp;&nbsp;&nbsp;&nbsp;3&nbsp;&nbsp;&nbsp;&nbsp;&nbsp;&nbsp;&nbsp;&nbsp;&nbsp;&nbsp;&nbsp;&nbsp;&nbsp;&nbsp;&nbsp;&nbsp;&nbsp;&nbsp;&nbsp;4</p><p style=""font-size:14px"">Not at all familiar&nbsp;&nbsp;&nbsp;&nbsp;A little familiar&nbsp;&nbsp;&nbsp;Moderately familiar&nbsp;&nbsp;&nbsp;Extremely familiar</p><p>(press the corresponding number on your keyboard)</p>","","52","","","FAM-RESPONSE","","","","","","","","","","","","","","","","","","","sounds/C/FAM/P003.mp3","partword","","","","","","","","","","","","","","","","","","",""
"html-keyboard-response","243","1178884","0.0-7.0-1.0-0.1","3","1","dbvt0vjvd1so55p","","null","","","","null","","","","","","","","","","","","","","","","","","","","","","","","","","","","","","","","","","","","","","","","","",""
"audio-keyboard-response","244","1179829","0.0-7.0-1.0-1.1","3","1","dbvt0vjvd1so55p","","null","","sounds/C/FAM/W004.mp3","","null","","","","","","","","","","","","","","","","","","","","","","","","","","","","","","","","","","","","","","","","","",""
"html-keyboard-response","245","1181507","0.0-7.0-1.0-2.1","3","1","dbvt0vjvd1so55p","","1175.300000000745","","<p>How familiar did this sound to you?</p><p>1&nbsp;&nbsp;&nbsp;&nbsp;&nbsp;&nbsp;&nbsp;&nbsp;&nbsp;&nbsp;&nbsp;&nbsp;&nbsp;&nbsp;&nbsp;&nbsp;&nbsp;&nbsp;&nbsp;2&nbsp;&nbsp;&nbsp;&nbsp;&nbsp;&nbsp;&nbsp;&nbsp;&nbsp;&nbsp;&nbsp;&nbsp;&nbsp;&nbsp;&nbsp;&nbsp;&nbsp;&nbsp;&nbsp;3&nbsp;&nbsp;&nbsp;&nbsp;&nbsp;&nbsp;&nbsp;&nbsp;&nbsp;&nbsp;&nbsp;&nbsp;&nbsp;&nbsp;&nbsp;&nbsp;&nbsp;&nbsp;&nbsp;4</p><p style=""font-size:14px"">Not at all familiar&nbsp;&nbsp;&nbsp;&nbsp;A little familiar&nbsp;&nbsp;&nbsp;Moderately familiar&nbsp;&nbsp;&nbsp;Extremely familiar</p><p>(press the corresponding number on your keyboard)</p>","","52","","","FAM-RESPONSE","","","","","","","","","","","","","","","","","","","sounds/C/FAM/W004.mp3","word","","","","","","","","","","","","","","","","","","",""
"html-keyboard-response","246","1183514","0.0-7.0-1.0-0.2","3","1","dbvt0vjvd1so55p","","null","","","","null","","","","","","","","","","","","","","","","","","","","","","","","","","","","","","","","","","","","","","","","","",""
"audio-keyboard-response","247","1184458","0.0-7.0-1.0-1.2","3","1","dbvt0vjvd1so55p","","null","","sounds/C/FAM/N002.mp3","","null","","","","","","","","","","","","","","","","","","","","","","","","","","","","","","","","","","","","","","","","","",""
"html-keyboard-response","248","1186171","0.0-7.0-1.0-2.2","3","1","dbvt0vjvd1so55p","","1211.3999999985099","","<p>How familiar did this sound to you?</p><p>1&nbsp;&nbsp;&nbsp;&nbsp;&nbsp;&nbsp;&nbsp;&nbsp;&nbsp;&nbsp;&nbsp;&nbsp;&nbsp;&nbsp;&nbsp;&nbsp;&nbsp;&nbsp;&nbsp;2&nbsp;&nbsp;&nbsp;&nbsp;&nbsp;&nbsp;&nbsp;&nbsp;&nbsp;&nbsp;&nbsp;&nbsp;&nbsp;&nbsp;&nbsp;&nbsp;&nbsp;&nbsp;&nbsp;3&nbsp;&nbsp;&nbsp;&nbsp;&nbsp;&nbsp;&nbsp;&nbsp;&nbsp;&nbsp;&nbsp;&nbsp;&nbsp;&nbsp;&nbsp;&nbsp;&nbsp;&nbsp;&nbsp;4</p><p style=""font-size:14px"">Not at all familiar&nbsp;&nbsp;&nbsp;&nbsp;A little familiar&nbsp;&nbsp;&nbsp;Moderately familiar&nbsp;&nbsp;&nbsp;Extremely familiar</p><p>(press the corresponding number on your keyboard)</p>","","50","","","FAM-RESPONSE","","","","","","","","","","","","","","","","","","","sounds/C/FAM/N002.mp3","nonword","","","","","","","","","","","","","","","","","","",""
"html-keyboard-response","249","1188176","0.0-7.0-1.0-0.3","3","1","dbvt0vjvd1so55p","","null","","","","null","","","","","","","","","","","","","","","","","","","","","","","","","","","","","","","","","","","","","","","","","",""
"audio-keyboard-response","250","1189120","0.0-7.0-1.0-1.3","3","1","dbvt0vjvd1so55p","","null","","sounds/C/FAM/W002.mp3","","null","","","","","","","","","","","","","","","","","","","","","","","","","","","","","","","","","","","","","","","","","",""
"html-keyboard-response","251","1191219","0.0-7.0-1.0-2.3","3","1","dbvt0vjvd1so55p","","1597.199999999255","","<p>How familiar did this sound to you?</p><p>1&nbsp;&nbsp;&nbsp;&nbsp;&nbsp;&nbsp;&nbsp;&nbsp;&nbsp;&nbsp;&nbsp;&nbsp;&nbsp;&nbsp;&nbsp;&nbsp;&nbsp;&nbsp;&nbsp;2&nbsp;&nbsp;&nbsp;&nbsp;&nbsp;&nbsp;&nbsp;&nbsp;&nbsp;&nbsp;&nbsp;&nbsp;&nbsp;&nbsp;&nbsp;&nbsp;&nbsp;&nbsp;&nbsp;3&nbsp;&nbsp;&nbsp;&nbsp;&nbsp;&nbsp;&nbsp;&nbsp;&nbsp;&nbsp;&nbsp;&nbsp;&nbsp;&nbsp;&nbsp;&nbsp;&nbsp;&nbsp;&nbsp;4</p><p style=""font-size:14px"">Not at all familiar&nbsp;&nbsp;&nbsp;&nbsp;A little familiar&nbsp;&nbsp;&nbsp;Moderately familiar&nbsp;&nbsp;&nbsp;Extremely familiar</p><p>(press the corresponding number on your keyboard)</p>","","52","","","FAM-RESPONSE","","","","","","","","","","","","","","","","","","","sounds/C/FAM/W002.mp3","word","","","","","","","","","","","","","","","","","","",""
"html-keyboard-response","252","1193226","0.0-7.0-1.0-0.4","3","1","dbvt0vjvd1so55p","","null","","","","null","","","","","","","","","","","","","","","","","","","","","","","","","","","","","","","","","","","","","","","","","",""
"audio-keyboard-response","253","1194170","0.0-7.0-1.0-1.4","3","1","dbvt0vjvd1so55p","","null","","sounds/C/FAM/W003.mp3","","null","","","","","","","","","","","","","","","","","","","","","","","","","","","","","","","","","","","","","","","","","",""
"html-keyboard-response","254","1196093","0.0-7.0-1.0-2.4","3","1","dbvt0vjvd1so55p","","1420.699999999255","","<p>How familiar did this sound to you?</p><p>1&nbsp;&nbsp;&nbsp;&nbsp;&nbsp;&nbsp;&nbsp;&nbsp;&nbsp;&nbsp;&nbsp;&nbsp;&nbsp;&nbsp;&nbsp;&nbsp;&nbsp;&nbsp;&nbsp;2&nbsp;&nbsp;&nbsp;&nbsp;&nbsp;&nbsp;&nbsp;&nbsp;&nbsp;&nbsp;&nbsp;&nbsp;&nbsp;&nbsp;&nbsp;&nbsp;&nbsp;&nbsp;&nbsp;3&nbsp;&nbsp;&nbsp;&nbsp;&nbsp;&nbsp;&nbsp;&nbsp;&nbsp;&nbsp;&nbsp;&nbsp;&nbsp;&nbsp;&nbsp;&nbsp;&nbsp;&nbsp;&nbsp;4</p><p style=""font-size:14px"">Not at all familiar&nbsp;&nbsp;&nbsp;&nbsp;A little familiar&nbsp;&nbsp;&nbsp;Moderately familiar&nbsp;&nbsp;&nbsp;Extremely familiar</p><p>(press the corresponding number on your keyboard)</p>","","51","","","FAM-RESPONSE","","","","","","","","","","","","","","","","","","","sounds/C/FAM/W003.mp3","word","","","","","","","","","","","","","","","","","","",""
"html-keyboard-response","255","1198096","0.0-7.0-1.0-0.5","3","1","dbvt0vjvd1so55p","","null","","","","null","","","","","","","","","","","","","","","","","","","","","","","","","","","","","","","","","","","","","","","","","",""
"audio-keyboard-response","256","1199041","0.0-7.0-1.0-1.5","3","1","dbvt0vjvd1so55p","","null","","sounds/C/FAM/P001.mp3","","null","","","","","","","","","","","","","","","","","","","","","","","","","","","","","","","","","","","","","","","","","",""
"html-keyboard-response","257","1200053","0.0-7.0-1.0-2.5","3","1","dbvt0vjvd1so55p","","506.3999999985099","","<p>How familiar did this sound to you?</p><p>1&nbsp;&nbsp;&nbsp;&nbsp;&nbsp;&nbsp;&nbsp;&nbsp;&nbsp;&nbsp;&nbsp;&nbsp;&nbsp;&nbsp;&nbsp;&nbsp;&nbsp;&nbsp;&nbsp;2&nbsp;&nbsp;&nbsp;&nbsp;&nbsp;&nbsp;&nbsp;&nbsp;&nbsp;&nbsp;&nbsp;&nbsp;&nbsp;&nbsp;&nbsp;&nbsp;&nbsp;&nbsp;&nbsp;3&nbsp;&nbsp;&nbsp;&nbsp;&nbsp;&nbsp;&nbsp;&nbsp;&nbsp;&nbsp;&nbsp;&nbsp;&nbsp;&nbsp;&nbsp;&nbsp;&nbsp;&nbsp;&nbsp;4</p><p style=""font-size:14px"">Not at all familiar&nbsp;&nbsp;&nbsp;&nbsp;A little familiar&nbsp;&nbsp;&nbsp;Moderately familiar&nbsp;&nbsp;&nbsp;Extremely familiar</p><p>(press the corresponding number on your keyboard)</p>","","50","","","FAM-RESPONSE","","","","","","","","","","","","","","","","","","","sounds/C/FAM/P001.mp3","partword","","","","","","","","","","","","","","","","","","",""
"html-keyboard-response","258","1202060","0.0-7.0-1.0-0.6","3","1","dbvt0vjvd1so55p","","null","","","","null","","","","","","","","","","","","","","","","","","","","","","","","","","","","","","","","","","","","","","","","","",""
"audio-keyboard-response","259","1203003","0.0-7.0-1.0-1.6","3","1","dbvt0vjvd1so55p","","null","","sounds/C/FAM/P002.mp3","","null","","","","","","","","","","","","","","","","","","","","","","","","","","","","","","","","","","","","","","","","","",""
"html-keyboard-response","260","1203809","0.0-7.0-1.0-2.6","3","1","dbvt0vjvd1so55p","","304.3999999985099","","<p>How familiar did this sound to you?</p><p>1&nbsp;&nbsp;&nbsp;&nbsp;&nbsp;&nbsp;&nbsp;&nbsp;&nbsp;&nbsp;&nbsp;&nbsp;&nbsp;&nbsp;&nbsp;&nbsp;&nbsp;&nbsp;&nbsp;2&nbsp;&nbsp;&nbsp;&nbsp;&nbsp;&nbsp;&nbsp;&nbsp;&nbsp;&nbsp;&nbsp;&nbsp;&nbsp;&nbsp;&nbsp;&nbsp;&nbsp;&nbsp;&nbsp;3&nbsp;&nbsp;&nbsp;&nbsp;&nbsp;&nbsp;&nbsp;&nbsp;&nbsp;&nbsp;&nbsp;&nbsp;&nbsp;&nbsp;&nbsp;&nbsp;&nbsp;&nbsp;&nbsp;4</p><p style=""font-size:14px"">Not at all familiar&nbsp;&nbsp;&nbsp;&nbsp;A little familiar&nbsp;&nbsp;&nbsp;Moderately familiar&nbsp;&nbsp;&nbsp;Extremely familiar</p><p>(press the corresponding number on your keyboard)</p>","","52","","","FAM-RESPONSE","","","","","","","","","","","","","","","","","","","sounds/C/FAM/P002.mp3","partword","","","","","","","","","","","","","","","","","","",""
"html-keyboard-response","261","1205811","0.0-7.0-1.0-0.7","3","1","dbvt0vjvd1so55p","","null","","","","null","","","","","","","","","","","","","","","","","","","","","","","","","","","","","","","","","","","","","","","","","",""
"audio-keyboard-response","262","1206752","0.0-7.0-1.0-1.7","3","1","dbvt0vjvd1so55p","","null","","sounds/C/FAM/N004.mp3","","null","","","","","","","","","","","","","","","","","","","","","","","","","","","","","","","","","","","","","","","","","",""
"html-keyboard-response","263","1208031","0.0-7.0-1.0-2.7","3","1","dbvt0vjvd1so55p","","776.6999999992549","","<p>How familiar did this sound to you?</p><p>1&nbsp;&nbsp;&nbsp;&nbsp;&nbsp;&nbsp;&nbsp;&nbsp;&nbsp;&nbsp;&nbsp;&nbsp;&nbsp;&nbsp;&nbsp;&nbsp;&nbsp;&nbsp;&nbsp;2&nbsp;&nbsp;&nbsp;&nbsp;&nbsp;&nbsp;&nbsp;&nbsp;&nbsp;&nbsp;&nbsp;&nbsp;&nbsp;&nbsp;&nbsp;&nbsp;&nbsp;&nbsp;&nbsp;3&nbsp;&nbsp;&nbsp;&nbsp;&nbsp;&nbsp;&nbsp;&nbsp;&nbsp;&nbsp;&nbsp;&nbsp;&nbsp;&nbsp;&nbsp;&nbsp;&nbsp;&nbsp;&nbsp;4</p><p style=""font-size:14px"">Not at all familiar&nbsp;&nbsp;&nbsp;&nbsp;A little familiar&nbsp;&nbsp;&nbsp;Moderately familiar&nbsp;&nbsp;&nbsp;Extremely familiar</p><p>(press the corresponding number on your keyboard)</p>","","50","","","FAM-RESPONSE","","","","","","","","","","","","","","","","","","","sounds/C/FAM/N004.mp3","nonword","","","","","","","","","","","","","","","","","","",""
"html-keyboard-response","264","1210039","0.0-7.0-1.0-0.8","3","1","dbvt0vjvd1so55p","","null","","","","null","","","","","","","","","","","","","","","","","","","","","","","","","","","","","","","","","","","","","","","","","",""
"audio-keyboard-response","265","1210982","0.0-7.0-1.0-1.8","3","1","dbvt0vjvd1so55p","","null","","sounds/C/FAM/N001.mp3","","null","","","","","","","","","","","","","","","","","","","","","","","","","","","","","","","","","","","","","","","","","",""
"html-keyboard-response","266","1212260","0.0-7.0-1.0-2.8","3","1","dbvt0vjvd1so55p","","776.1999999992549","","<p>How familiar did this sound to you?</p><p>1&nbsp;&nbsp;&nbsp;&nbsp;&nbsp;&nbsp;&nbsp;&nbsp;&nbsp;&nbsp;&nbsp;&nbsp;&nbsp;&nbsp;&nbsp;&nbsp;&nbsp;&nbsp;&nbsp;2&nbsp;&nbsp;&nbsp;&nbsp;&nbsp;&nbsp;&nbsp;&nbsp;&nbsp;&nbsp;&nbsp;&nbsp;&nbsp;&nbsp;&nbsp;&nbsp;&nbsp;&nbsp;&nbsp;3&nbsp;&nbsp;&nbsp;&nbsp;&nbsp;&nbsp;&nbsp;&nbsp;&nbsp;&nbsp;&nbsp;&nbsp;&nbsp;&nbsp;&nbsp;&nbsp;&nbsp;&nbsp;&nbsp;4</p><p style=""font-size:14px"">Not at all familiar&nbsp;&nbsp;&nbsp;&nbsp;A little familiar&nbsp;&nbsp;&nbsp;Moderately familiar&nbsp;&nbsp;&nbsp;Extremely familiar</p><p>(press the corresponding number on your keyboard)</p>","","50","","","FAM-RESPONSE","","","","","","","","","","","","","","","","","","","sounds/C/FAM/N001.mp3","nonword","","","","","","","","","","","","","","","","","","",""
"html-keyboard-response","267","1214265","0.0-7.0-1.0-0.9","3","1","dbvt0vjvd1so55p","","null","","","","null","","","","","","","","","","","","","","","","","","","","","","","","","","","","","","","","","","","","","","","","","",""
"audio-keyboard-response","268","1215206","0.0-7.0-1.0-1.9","3","1","dbvt0vjvd1so55p","","null","","sounds/C/FAM/N003.mp3","","null","","","","","","","","","","","","","","","","","","","","","","","","","","","","","","","","","","","","","","","","","",""
"html-keyboard-response","269","1216381","0.0-7.0-1.0-2.9","3","1","dbvt0vjvd1so55p","","668.1999999992549","","<p>How familiar did this sound to you?</p><p>1&nbsp;&nbsp;&nbsp;&nbsp;&nbsp;&nbsp;&nbsp;&nbsp;&nbsp;&nbsp;&nbsp;&nbsp;&nbsp;&nbsp;&nbsp;&nbsp;&nbsp;&nbsp;&nbsp;2&nbsp;&nbsp;&nbsp;&nbsp;&nbsp;&nbsp;&nbsp;&nbsp;&nbsp;&nbsp;&nbsp;&nbsp;&nbsp;&nbsp;&nbsp;&nbsp;&nbsp;&nbsp;&nbsp;3&nbsp;&nbsp;&nbsp;&nbsp;&nbsp;&nbsp;&nbsp;&nbsp;&nbsp;&nbsp;&nbsp;&nbsp;&nbsp;&nbsp;&nbsp;&nbsp;&nbsp;&nbsp;&nbsp;4</p><p style=""font-size:14px"">Not at all familiar&nbsp;&nbsp;&nbsp;&nbsp;A little familiar&nbsp;&nbsp;&nbsp;Moderately familiar&nbsp;&nbsp;&nbsp;Extremely familiar</p><p>(press the corresponding number on your keyboard)</p>","","50","","","FAM-RESPONSE","","","","","","","","","","","","","","","","","","","sounds/C/FAM/N003.mp3","nonword","","","","","","","","","","","","","","","","","","",""
"html-keyboard-response","270","1218384","0.0-7.0-1.0-0.10","3","1","dbvt0vjvd1so55p","","null","","","","null","","","","","","","","","","","","","","","","","","","","","","","","","","","","","","","","","","","","","","","","","",""
"audio-keyboard-response","271","1219329","0.0-7.0-1.0-1.10","3","1","dbvt0vjvd1so55p","","null","","sounds/C/FAM/W001.mp3","","null","","","","","","","","","","","","","","","","","","","","","","","","","","","","","","","","","","","","","","","","","",""
"html-keyboard-response","272","1220757","0.0-7.0-1.0-2.10","3","1","dbvt0vjvd1so55p","","926.5999999977648","","<p>How familiar did this sound to you?</p><p>1&nbsp;&nbsp;&nbsp;&nbsp;&nbsp;&nbsp;&nbsp;&nbsp;&nbsp;&nbsp;&nbsp;&nbsp;&nbsp;&nbsp;&nbsp;&nbsp;&nbsp;&nbsp;&nbsp;2&nbsp;&nbsp;&nbsp;&nbsp;&nbsp;&nbsp;&nbsp;&nbsp;&nbsp;&nbsp;&nbsp;&nbsp;&nbsp;&nbsp;&nbsp;&nbsp;&nbsp;&nbsp;&nbsp;3&nbsp;&nbsp;&nbsp;&nbsp;&nbsp;&nbsp;&nbsp;&nbsp;&nbsp;&nbsp;&nbsp;&nbsp;&nbsp;&nbsp;&nbsp;&nbsp;&nbsp;&nbsp;&nbsp;4</p><p style=""font-size:14px"">Not at all familiar&nbsp;&nbsp;&nbsp;&nbsp;A little familiar&nbsp;&nbsp;&nbsp;Moderately familiar&nbsp;&nbsp;&nbsp;Extremely familiar</p><p>(press the corresponding number on your keyboard)</p>","","52","","","FAM-RESPONSE","","","","","","","","","","","","","","","","","","","sounds/C/FAM/W001.mp3","word","","","","","","","","","","","","","","","","","","",""
"html-keyboard-response","273","1222764","0.0-7.0-1.0-0.11","3","1","dbvt0vjvd1so55p","","null","","","","null","","","","","","","","","","","","","","","","","","","","","","","","","","","","","","","","","","","","","","","","","",""
"audio-keyboard-response","274","1223707","0.0-7.0-1.0-1.11","3","1","dbvt0vjvd1so55p","","null","","sounds/C/FAM/P004.mp3","","null","","","","","","","","","","","","","","","","","","","","","","","","","","","","","","","","","","","","","","","","","",""
"html-keyboard-response","275","1224469","0.0-7.0-1.0-2.11","3","1","dbvt0vjvd1so55p","","260.19999999925494","","<p>How familiar did this sound to you?</p><p>1&nbsp;&nbsp;&nbsp;&nbsp;&nbsp;&nbsp;&nbsp;&nbsp;&nbsp;&nbsp;&nbsp;&nbsp;&nbsp;&nbsp;&nbsp;&nbsp;&nbsp;&nbsp;&nbsp;2&nbsp;&nbsp;&nbsp;&nbsp;&nbsp;&nbsp;&nbsp;&nbsp;&nbsp;&nbsp;&nbsp;&nbsp;&nbsp;&nbsp;&nbsp;&nbsp;&nbsp;&nbsp;&nbsp;3&nbsp;&nbsp;&nbsp;&nbsp;&nbsp;&nbsp;&nbsp;&nbsp;&nbsp;&nbsp;&nbsp;&nbsp;&nbsp;&nbsp;&nbsp;&nbsp;&nbsp;&nbsp;&nbsp;4</p><p style=""font-size:14px"">Not at all familiar&nbsp;&nbsp;&nbsp;&nbsp;A little familiar&nbsp;&nbsp;&nbsp;Moderately familiar&nbsp;&nbsp;&nbsp;Extremely familiar</p><p>(press the corresponding number on your keyboard)</p>","","51","","","FAM-RESPONSE","","","","","","","","","","","","","","","","","","","sounds/C/FAM/P004.mp3","partword","","","","","","","","","","","","","","","","","","",""
"html-button-response","276","1232822","0.0-8.0-0.0","3","1","dbvt0vjvd1so55p","","7347.300000000745","","<p>You will now listen to longer sound sequences.</p><p>Each sound sequence will last about 16 seconds.</p><p>On each trial, you will be given a <u>TARGET SOUND</u>. Your task is to listen very carefully for this sound.</p><p>Every time you hear the <u>TARGET SOUND</u>, you will press the <b>SPACEBAR</b> as quickly and accurately as you can.</p>","0","","","","","","","","","","","","","","","","","","","","","","","","","","","","","","","","","","","","","","","","","","",""
"html-button-response","277","1243213","0.0-8.0-1.0","3","1","dbvt0vjvd1so55p","","10133.099999997765","","<p>It is very important that you make your responses as quickly and accurately as possible.</p><p>To help you make your responses, you will be able to listen to the <u>TARGET SOUND</u> at the beginning of each trial.</p><p>There will be 36 total trials.</p><p><b>Note: This is meant to be a difficult task. We simply want you to try your best.</p>","0","","","","","","","","","","","","","","","","","","","","","","","","","","","","","","","","","","","","","","","","","","",""
"html-button-response","278","1245021","0.0-8.0-2.0-0.0","3","1","dbvt0vjvd1so55p","","1550.800000000745","","<p>Trial 1 of 36</p>","0","","","","","","","","","","","","","","","","","","","","","","","","","GE","sounds/syllables/ge_SWS.wav","1500,3300,6900,13200","3","","","","","","","","","","","","","","",""
"html-keyboard-response","279","1247612","0.0-8.0-2.0-1.0","3","1","dbvt0vjvd1so55p","","2589.39999999851","","","","80","","","","","","","","","","","","","","","","","","","","","","","","GE","","1500,3300,6900,13200","3","","","","","","","","","","","","","","",""
"audio-keyboard-response","280","1247917","0.0-8.0-2.0-2.0-0.0","3","1","dbvt0vjvd1so55p","","null","","sounds/syllables/ge_SWS.wav","","null","","","","","","","","","","","","","","","","","","","","","","","","","","","","","","","","","","","","","","","","","",""
"html-keyboard-response","281","1249807","0.0-8.0-2.0-2.0-1.0","3","1","dbvt0vjvd1so55p","","1889.9000000022352","","<p>To replay the <u>TARGET SOUND</u>, press P.</p> When you are ready to begin, press SPACEBAR.","","80","","","","","","","","","","","","","","","","","","","","","","","","","","","","","","","","","","","","","","","","","",""
"audio-keyboard-response","282","1250609","0.0-8.0-2.0-2.1-0.1","3","1","dbvt0vjvd1so55p","","null","","sounds/syllables/ge_SWS.wav","","null","","","","","","","","","","","","","","","","","","","","","","","","","","","","","","","","","","","","","","","","","",""
"html-keyboard-response","283","1251192","0.0-8.0-2.0-2.1-1.1","3","1","dbvt0vjvd1so55p","","582.5","","<p>To replay the <u>TARGET SOUND</u>, press P.</p> When you are ready to begin, press SPACEBAR.","","80","","","","","","","","","","","","","","","","","","","","","","","","","","","","","","","","","","","","","","","","","",""
"audio-keyboard-response","284","1251996","0.0-8.0-2.0-2.2-0.2","3","1","dbvt0vjvd1so55p","","null","","sounds/syllables/ge_SWS.wav","","null","","","","","","","","","","","","","","","","","","","","","","","","","","","","","","","","","","","","","","","","","",""
"html-keyboard-response","285","1252453","0.0-8.0-2.0-2.2-1.2","3","1","dbvt0vjvd1so55p","","456.5","","<p>To replay the <u>TARGET SOUND</u>, press P.</p> When you are ready to begin, press SPACEBAR.","","32","","","","","","","","","","","","","","","","","","","","","","","","","","","","","","","","","","","","","","","","","",""
"audio-keyboard-response","286","1267405","0.0-8.0-2.0-3.0","3","1","dbvt0vjvd1so55p","","1563","","sounds/C/TD/GE_05_TD.mp3","","32","","","TD_SUMMARY","","","","","","","","","","","","","","","","","","","","","GE","","1500,3300,6900,13200","3","1500","3300","6900","13200","811.4000000022352","572","1057.9000000022352","597.8000000007451","1562.4000000022352_2311.400000002235_3872_4903.400000002235_5762.10000000149_6948.699999999255_7957.900000002235_10343.699999999255_13159_13797.800000000745","3","","","","",""
"html-button-response","287","1268615","0.0-8.0-2.0-0.1","3","1","dbvt0vjvd1so55p","","1207.3999999985099","","<p>Trial 2 of 36</p>","0","","","","","","","","","","","","","","","","","","","","","","","","","PU","sounds/syllables/pu_SWS.wav","1500,6000,7800,13200","3","","","","","","","","","","","","","","",""
"html-keyboard-response","288","1271139","0.0-8.0-2.0-1.1","3","1","dbvt0vjvd1so55p","","2523.5","","","","80","","","","","","","","","","","","","","","","","","","","","","","","PU","","1500,6000,7800,13200","3","","","","","","","","","","","","","","",""
"audio-keyboard-response","289","1271442","0.0-8.0-2.0-2.3-0.3","3","1","dbvt0vjvd1so55p","","null","","sounds/syllables/pu_SWS.wav","","null","","","","","","","","","","","","","","","","","","","","","","","","","","","","","","","","","","","","","","","","","",""
"html-keyboard-response","290","1272655","0.0-8.0-2.0-2.3-1.3","3","1","dbvt0vjvd1so55p","","1212.5","","<p>To replay the <u>TARGET SOUND</u>, press P.</p> When you are ready to begin, press SPACEBAR.","","32","","","","","","","","","","","","","","","","","","","","","","","","","","","","","","","","","","","","","","","","","",""
"audio-keyboard-response","291","1287603","0.0-8.0-2.0-3.1","3","1","dbvt0vjvd1so55p","","1813","","sounds/C/TD/PU_04_TD.mp3","","32","","","TD_SUMMARY","","","","","","","","","","","","","","","","","","","","","PU","","1500,6000,7800,13200","3","1500","6000","7800","13200","902.6999999992549","919.6999999992549","609.1000000014901","1163.699999999255","__________1813.1000000014901_2136.900000002235_2402.699999999255_4107.900000002235_4279.699999999255_6593.10000000149_6756.300000000745_6919.699999999255_8031.300000000745_8213.5_8409.10000000149_9325.900000002235_12095.800000000745_12285.5_12532.800000000745_12793.699999999255_13131_13941.699999999255_14130.300000000745_14363.699999999255","1","","","","",""
"html-button-response","292","1288583","0.0-8.0-2.0-0.2","3","1","dbvt0vjvd1so55p","","977.6999999992549","","<p>Trial 3 of 36</p>","0","","","","","","","","","","","","","","","","","","","","","","","","","RE","sounds/syllables/re_SWS.wav","3000,4800,10200,12900","2","","","","","","","","","","","","","","",""
"html-keyboard-response","293","1290080","0.0-8.0-2.0-1.2","3","1","dbvt0vjvd1so55p","","1496.1000000014901","","","","80","","","","","","","","","","","","","","","","","","","","","","","","RE","","3000,4800,10200,12900","2","","","","","","","","","","","","","","",""
"audio-keyboard-response","294","1290381","0.0-8.0-2.0-2.4-0.4","3","1","dbvt0vjvd1so55p","","null","","sounds/syllables/re_SWS.wav","","null","","","","","","","","","","","","","","","","","","","","","","","","","","","","","","","","","","","","","","","","","",""
"html-keyboard-response","295","1291113","0.0-8.0-2.0-2.4-1.4","3","1","dbvt0vjvd1so55p","","731.3000000007451","","<p>To replay the <u>TARGET SOUND</u>, press P.</p> When you are ready to begin, press SPACEBAR.","","32","","","","","","","","","","","","","","","","","","","","","","","","","","","","","","","","","","","","","","","","","",""
"audio-keyboard-response","296","1306062","0.0-8.0-2.0-3.2","3","1","dbvt0vjvd1so55p","","949","","sounds/C/TD/RE_09_TD.mp3","","32","","","TD_SUMMARY","","","","","","","","","","","","","","","","","","","","","RE","","3000,4800,10200,12900","2","3000","4800","10200","12900","870.5","453.69999999925494","612.6999999992549","885.7999999970198","______________________________949.7999999970198_1403.199999999255_2786_2988.89999999851_3631.89999999851_3870.5_5009.599999997765_5253.699999999255_6602.099999997765_9062.79999999702_10548.5_10812.699999999255_13220.39999999851_13460.5_13785.79999999702","1","","","","",""
"html-button-response","297","1307093","0.0-8.0-2.0-0.3","3","1","dbvt0vjvd1so55p","","1028.300000000745","","<p>Trial 4 of 36</p>","0","","","","","","","","","","","","","","","","","","","","","","","","","KO","sounds/syllables/ko_SWS.wav","1800,3600,8100,10800","1","","","","","","","","","","","","","","",""
"html-keyboard-response","298","1307680","0.0-8.0-2.0-1.3","3","1","dbvt0vjvd1so55p","","586","","","","80","","","","","","","","","","","","","","","","","","","","","","","","KO","","1800,3600,8100,10800","1","","","","","","","","","","","","","","",""
"audio-keyboard-response","299","1307982","0.0-8.0-2.0-2.5-0.5","3","1","dbvt0vjvd1so55p","","null","","sounds/syllables/ko_SWS.wav","","null","","","","","","","","","","","","","","","","","","","","","","","","","","","","","","","","","","","","","","","","","",""
"html-keyboard-response","300","1308734","0.0-8.0-2.0-2.5-1.5","3","1","dbvt0vjvd1so55p","","751.6000000014901","","<p>To replay the <u>TARGET SOUND</u>, press P.</p> When you are ready to begin, press SPACEBAR.","","80","","","","","","","","","","","","","","","","","","","","","","","","","","","","","","","","","","","","","","","","","",""
"audio-keyboard-response","301","1309539","0.0-8.0-2.0-2.6-0.6","3","1","dbvt0vjvd1so55p","","null","","sounds/syllables/ko_SWS.wav","","null","","","","","","","","","","","","","","","","","","","","","","","","","","","","","","","","","","","","","","","","","",""
"html-keyboard-response","302","1309816","0.0-8.0-2.0-2.6-1.6","3","1","dbvt0vjvd1so55p","","275.8999999985099","","<p>To replay the <u>TARGET SOUND</u>, press P.</p> When you are ready to begin, press SPACEBAR.","","80","","","","","","","","","","","","","","","","","","","","","","","","","","","","","","","","","","","","","","","","","",""
"audio-keyboard-response","303","1310622","0.0-8.0-2.0-2.7-0.7","3","1","dbvt0vjvd1so55p","","null","","sounds/syllables/ko_SWS.wav","","null","","","","","","","","","","","","","","","","","","","","","","","","","","","","","","","","","","","","","","","","","",""
"html-keyboard-response","304","1310701","0.0-8.0-2.0-2.7-1.7","3","1","dbvt0vjvd1so55p","","78.09999999776483","","<p>To replay the <u>TARGET SOUND</u>, press P.</p> When you are ready to begin, press SPACEBAR.","","32","","","","","","","","","","","","","","","","","","","","","","","","","","","","","","","","","","","","","","","","","",""
"audio-keyboard-response","305","1325652","0.0-8.0-2.0-3.3","3","1","dbvt0vjvd1so55p","","1019","","sounds/C/TD/KO_02_TD.mp3","","32","","","TD_SUMMARY","","","","","","","","","","","","","","","","","","","","","KO","","1800,3600,8100,10800","1","1800","3600","8100","10800","773.2999999970198","764.3999999985099","852.6999999992549","210.19999999925494","_____________________________________________1019_2573.2999999970198_4104.699999999255_4364.39999999851_5358.599999997765_5641_6584.89999999851_8671.39999999851_8952.699999999255_10485.39999999851_10718.199999999255_11010.199999999255_12991.29999999702_13371.89999999851_13676.099999997765_13995.199999999255","3","","","","",""
"html-button-response","306","1326516","0.0-8.0-2.0-0.4","3","1","dbvt0vjvd1so55p","","861.5","","<p>Trial 5 of 36</p>","0","","","","","","","","","","","","","","","","","","","","","","","","","PU","sounds/syllables/pu_SWS.wav","1500,3300,5100,7800","3","","","","","","","","","","","","","","",""
"html-keyboard-response","307","1327146","0.0-8.0-2.0-1.4","3","1","dbvt0vjvd1so55p","","629.1999999992549","","","","80","","","","","","","","","","","","","","","","","","","","","","","","PU","","1500,3300,5100,7800","3","","","","","","","","","","","","","","",""
"audio-keyboard-response","308","1327449","0.0-8.0-2.0-2.8-0.8","3","1","dbvt0vjvd1so55p","","null","","sounds/syllables/pu_SWS.wav","","null","","","","","","","","","","","","","","","","","","","","","","","","","","","","","","","","","","","","","","","","","",""
"html-keyboard-response","309","1328394","0.0-8.0-2.0-2.8-1.8","3","1","dbvt0vjvd1so55p","","944.3000000007451","","<p>To replay the <u>TARGET SOUND</u>, press P.</p> When you are ready to begin, press SPACEBAR.","","32","","","","","","","","","","","","","","","","","","","","","","","","","","","","","","","","","","","","","","","","","",""
"audio-keyboard-response","310","1343343","0.0-8.0-2.0-3.4","3","1","dbvt0vjvd1so55p","","1813","","sounds/C/TD/PU_10_TD.mp3","","32","","","TD_SUMMARY","","","","","","","","","","","","","","","","","","","","","PU","","1500,3300,5100,7800","3","1500","3300","5100","7800","1137.3999999985099","null","787.6000000014901","652.1999999992549","_____________________________________________________________1813.300000000745_2091.699999999255_2314.89999999851_2637.39999999851_2952.89999999851_5043.300000000745_5887.60000000149_6339.699999999255_6806.60000000149_8452.199999999255_9902.39999999851_10200.5_12239.800000000745_14109.89999999851","1","","","","",""
"html-button-response","311","1345033","0.0-8.0-2.0-0.5","3","1","dbvt0vjvd1so55p","","1686.5","","<p>Trial 6 of 36</p>","0","","","","","","","","","","","","","","","","","","","","","","","","","FU","sounds/syllables/fu_SWS.wav","2400,6000,7800,10500","3","","","","","","","","","","","","","","",""
