"trial_type","trial_index","time_elapsed","internal_node_id","counterbalance","lang_instruct","ParticipantID","view_history","rt","url","stimulus","button_pressed","key_press","correctRESP","correct","designation","location","correctanswer","timeouts","pause_rt01","pause_rt02","train_file","numKeyPress","sound","fam_type","SYLLABLE","EXEMPLAR","TD_LOCS","TD_TYPE","TDLOC_01","TDLOC_02","TDLOC_03","TDLOC_04","TD_RT_01","TD_RT_02","TD_RT_03","TD_RT_04","TD_SUBJ_RTs","number_of_plays","responses","slider_start","response","question_order","syllable","syllable_type"
"pavlovia","0","2","0.0-0.0","2","0","q5zt6us26ozganm","","","","","","","","","","","","","","","","","","","","","","","","","","","","","","","","","","","","","",""
"instructions","1","47978","0.0-1.0","2","0","q5zt6us26ozganm","[{""page_index"":0,""viewing_time"":20732.599999997765},{""page_index"":1,""viewing_time"":27241.5}]","47977.39999999851","","","","","","","","","","","","","","","","","","","","","","","","","","","","","","","","","","","",""
"external-html","2","51290","0.0-2.0","2","0","q5zt6us26ozganm","","3185.099999997765","consent/consent.html","","","","","","","","","","","","","","","","","","","","","","","","","","","","","","","","","","",""
"html-button-response","3","53080","0.0-3.0-0.0-0.0","2","0","q5zt6us26ozganm","","1787.5999999977648","","<p>Welcome to the study. You will first complete a short volume calibration and headphone check.</p><p>Please make sure you are in a quiet listening environment, that you are wearing headphones, and that your computer's volume is turned on.<p></p>","0","","","","","","","","","","","","","","","","","","","","","","","","","","","","","","","","",""
"html-button-response","4","54225","0.0-3.0-0.0-1.0","2","0","q5zt6us26ozganm","","892.4000000022352","","<p>The volume calibration will be first.</p><p>You will hear a thirty-second noise. Please adjust your computer's volume so that this noise is being presented at a comfortable level.<p></p>","0","","","","","","","","","","","","","","","","","","","","","","","","","","","","","","","","",""
"audio-button-response","5","55740","0.0-3.0-0.0-2.0","2","0","q5zt6us26ozganm","","1216","","audCalib/volumetest.mp3","0","","","","","","","","","","","","","","","","","","","","","","","","","","","","","","","","",""
"html-button-response","6","56861","0.0-3.0-1.0-0.0","2","0","q5zt6us26ozganm","","1119.2999999970198","","<p>You will now complete a short headphone check.</p><p>On each trial, you will hear three tones. One of these tones will be quieter than the others. Your task is to identify whether the quiet tone occured first, second, or third.</p><p>There are six trials in total.<p></p>","0","","","","","","","","","","","","","","","","","","","","","","","","","","","","","","","","",""
"html-keyboard-response","7","57619","0.0-3.0-1.0-1.0-0.0","2","0","q5zt6us26ozganm","","null","","<div style=""font-size:60px;"">+</div>","","null","","","","","","","","","","","","","","","","","","","","","","","","","","","","","","","",""
"audio-button-response","8","64393","0.0-3.0-1.0-1.0-1.0","2","0","q5zt6us26ozganm","","6773","","audCalib/t3_2.mp3","1","","2","0","headphone-test","","","","","","","","","","","","","","","","","","","","","","","","","","","","",""
"html-keyboard-response","9","65155","0.0-3.0-1.0-1.0-0.1","2","0","q5zt6us26ozganm","","null","","<div style=""font-size:60px;"">+</div>","","null","","","","","","","","","","","","","","","","","","","","","","","","","","","","","","","",""
"audio-button-response","10","70395","0.0-3.0-1.0-1.0-1.1","2","0","q5zt6us26ozganm","","5237","","audCalib/t3_1.mp3","2","","2","1","headphone-test","","","","","","","","","","","","","","","","","","","","","","","","","","","","",""
"html-keyboard-response","11","71150","0.0-3.0-1.0-1.0-0.2","2","0","q5zt6us26ozganm","","null","","<div style=""font-size:60px;"">+</div>","","null","","","","","","","","","","","","","","","","","","","","","","","","","","","","","","","",""
"audio-button-response","12","75510","0.0-3.0-1.0-1.0-1.2","2","0","q5zt6us26ozganm","","4357","","audCalib/t2_2.mp3","2","","1","0","headphone-test","","","","","","","","","","","","","","","","","","","","","","","","","","","","",""
"html-keyboard-response","13","76269","0.0-3.0-1.0-1.0-0.3","2","0","q5zt6us26ozganm","","null","","<div style=""font-size:60px;"">+</div>","","null","","","","","","","","","","","","","","","","","","","","","","","","","","","","","","","",""
"audio-button-response","14","81326","0.0-3.0-1.0-1.0-1.3","2","0","q5zt6us26ozganm","","5056","","audCalib/t1_1.mp3","0","","0","1","headphone-test","","","","","","","","","","","","","","","","","","","","","","","","","","","","",""
"html-keyboard-response","15","82086","0.0-3.0-1.0-1.0-0.4","2","0","q5zt6us26ozganm","","null","","<div style=""font-size:60px;"">+</div>","","null","","","","","","","","","","","","","","","","","","","","","","","","","","","","","","","",""
"audio-button-response","16","86644","0.0-3.0-1.0-1.0-1.4","2","0","q5zt6us26ozganm","","4555","","audCalib/t1_2.mp3","2","","0","0","headphone-test","","","","","","","","","","","","","","","","","","","","","","","","","","","","",""
"html-keyboard-response","17","87402","0.0-3.0-1.0-1.0-0.5","2","0","q5zt6us26ozganm","","null","","<div style=""font-size:60px;"">+</div>","","null","","","","","","","","","","","","","","","","","","","","","","","","","","","","","","","",""
"audio-button-response","18","92431","0.0-3.0-1.0-1.0-1.5","2","0","q5zt6us26ozganm","","5024","","audCalib/t2_1.mp3","0","","1","0","headphone-test","","","","","","","","","","","","","","","","","","","","","","","","","","","","",""
"html-button-response","19","126583","0.0-3.0-2.0","2","0","q5zt6us26ozganm","","33896.699999999255","","<p>The volume calibration and headphone check are now complete.</p>","0","","","","","","","","","","","","","","","","","","","","","","","","","","","","","","","","",""
"instructions","20","138956","0.0-4.0-0.0","2","0","q5zt6us26ozganm","[{""page_index"":0,""viewing_time"":3118.800000000745},{""page_index"":1,""viewing_time"":1751.5},{""page_index"":2,""viewing_time"":7501.199999999255}]","12372.5","","","","","","","","","","","","","","","","","","","","","","","","","","","","","","","","","","","",""
"audio-keyboard-response","21","139506","0.0-4.0-1.0-0.0","2","0","q5zt6us26ozganm","","null","","sounds/induction/left_rev/ni_SWS.wav","","null","","","","","","","","","","","","","","","","","","","","","","","","","","","","","","","",""
"html-button-response","22","141425","0.0-4.0-1.0-1.0","2","0","q5zt6us26ozganm","","1916.3999999985099","","Was the sound coming from the left or the right?","0","","","1","INDUCTION-JUDGMENT","left","0","","","","","","","","","","","","","","","","","","","","","","","","","","",""
"html-keyboard-response","23","142427","0.0-4.0-1.0-2.0","2","0","q5zt6us26ozganm","","null","","<p style=""color:#054d00;""><b>Correct!</b></p>","","null","","","","","","","","","","","","","","","","","","","","","","","","","","","","","","","",""
"audio-keyboard-response","24","143228","0.0-4.0-1.0-0.1","2","0","q5zt6us26ozganm","","null","","sounds/induction/right_rev/ge_SWS.wav","","null","","","","","","","","","","","","","","","","","","","","","","","","","","","","","","","",""
"html-button-response","25","145174","0.0-4.0-1.0-1.1","2","0","q5zt6us26ozganm","","1943.5","","Was the sound coming from the left or the right?","1","","","1","INDUCTION-JUDGMENT","right","1","","","","","","","","","","","","","","","","","","","","","","","","","","",""
"html-keyboard-response","26","146177","0.0-4.0-1.0-2.1","2","0","q5zt6us26ozganm","","null","","<p style=""color:#054d00;""><b>Correct!</b></p>","","null","","","","","","","","","","","","","","","","","","","","","","","","","","","","","","","",""
"audio-keyboard-response","27","146977","0.0-4.0-1.0-0.2","2","0","q5zt6us26ozganm","","null","","sounds/induction/right_rev/ti_SWS.wav","","null","","","","","","","","","","","","","","","","","","","","","","","","","","","","","","","",""
"html-button-response","28","148669","0.0-4.0-1.0-1.2","2","0","q5zt6us26ozganm","","1689.4000000022352","","Was the sound coming from the left or the right?","1","","","1","INDUCTION-JUDGMENT","right","1","","","","","","","","","","","","","","","","","","","","","","","","","","",""
"html-keyboard-response","29","149675","0.0-4.0-1.0-2.2","2","0","q5zt6us26ozganm","","null","","<p style=""color:#054d00;""><b>Correct!</b></p>","","null","","","","","","","","","","","","","","","","","","","","","","","","","","","","","","","",""
"audio-keyboard-response","30","150476","0.0-4.0-1.0-0.3","2","0","q5zt6us26ozganm","","null","","sounds/induction/left_rev/ti_SWS.wav","","null","","","","","","","","","","","","","","","","","","","","","","","","","","","","","","","",""
"html-button-response","31","151559","0.0-4.0-1.0-1.3","2","0","q5zt6us26ozganm","","1080.3999999985099","","Was the sound coming from the left or the right?","0","","","1","INDUCTION-JUDGMENT","left","0","","","","","","","","","","","","","","","","","","","","","","","","","","",""
"html-keyboard-response","32","152563","0.0-4.0-1.0-2.3","2","0","q5zt6us26ozganm","","null","","<p style=""color:#054d00;""><b>Correct!</b></p>","","null","","","","","","","","","","","","","","","","","","","","","","","","","","","","","","","",""
"audio-keyboard-response","33","153366","0.0-4.0-1.0-0.4","2","0","q5zt6us26ozganm","","null","","sounds/induction/right_rev/re_SWS.wav","","null","","","","","","","","","","","","","","","","","","","","","","","","","","","","","","","",""
"html-button-response","34","154721","0.0-4.0-1.0-1.4","2","0","q5zt6us26ozganm","","1350.1000000014901","","Was the sound coming from the left or the right?","1","","","1","INDUCTION-JUDGMENT","right","1","","","","","","","","","","","","","","","","","","","","","","","","","","",""
"html-keyboard-response","35","155728","0.0-4.0-1.0-2.4","2","0","q5zt6us26ozganm","","null","","<p style=""color:#054d00;""><b>Correct!</b></p>","","null","","","","","","","","","","","","","","","","","","","","","","","","","","","","","","","",""
"audio-keyboard-response","36","156529","0.0-4.0-1.0-0.5","2","0","q5zt6us26ozganm","","null","","sounds/induction/right_rev/ta_SWS.wav","","null","","","","","","","","","","","","","","","","","","","","","","","","","","","","","","","",""
"html-button-response","37","157672","0.0-4.0-1.0-1.5","2","0","q5zt6us26ozganm","","1140.5999999977648","","Was the sound coming from the left or the right?","1","","","1","INDUCTION-JUDGMENT","right","1","","","","","","","","","","","","","","","","","","","","","","","","","","",""
"html-keyboard-response","38","158678","0.0-4.0-1.0-2.5","2","0","q5zt6us26ozganm","","null","","<p style=""color:#054d00;""><b>Correct!</b></p>","","null","","","","","","","","","","","","","","","","","","","","","","","","","","","","","","","",""
"audio-keyboard-response","39","159484","0.0-4.0-1.0-0.6","2","0","q5zt6us26ozganm","","null","","sounds/induction/right_rev/ti_SWS.wav","","null","","","","","","","","","","","","","","","","","","","","","","","","","","","","","","","",""
"html-button-response","40","160763","0.0-4.0-1.0-1.6","2","0","q5zt6us26ozganm","","1276.6000000014901","","Was the sound coming from the left or the right?","1","","","1","INDUCTION-JUDGMENT","right","1","","","","","","","","","","","","","","","","","","","","","","","","","","",""
"html-keyboard-response","41","161766","0.0-4.0-1.0-2.6","2","0","q5zt6us26ozganm","","null","","<p style=""color:#054d00;""><b>Correct!</b></p>","","null","","","","","","","","","","","","","","","","","","","","","","","","","","","","","","","",""
"audio-keyboard-response","42","162566","0.0-4.0-1.0-0.7","2","0","q5zt6us26ozganm","","null","","sounds/induction/left_rev/ti_SWS.wav","","null","","","","","","","","","","","","","","","","","","","","","","","","","","","","","","","",""
"html-button-response","43","163423","0.0-4.0-1.0-1.7","2","0","q5zt6us26ozganm","","854.9000000022352","","Was the sound coming from the left or the right?","0","","","1","INDUCTION-JUDGMENT","left","0","","","","","","","","","","","","","","","","","","","","","","","","","","",""
"html-keyboard-response","44","164426","0.0-4.0-1.0-2.7","2","0","q5zt6us26ozganm","","null","","<p style=""color:#054d00;""><b>Correct!</b></p>","","null","","","","","","","","","","","","","","","","","","","","","","","","","","","","","","","",""
"audio-keyboard-response","45","165227","0.0-4.0-1.0-0.8","2","0","q5zt6us26ozganm","","null","","sounds/induction/left_rev/me_SWS.wav","","null","","","","","","","","","","","","","","","","","","","","","","","","","","","","","","","",""
"html-button-response","46","165978","0.0-4.0-1.0-1.8","2","0","q5zt6us26ozganm","","749.6000000014901","","Was the sound coming from the left or the right?","0","","","1","INDUCTION-JUDGMENT","left","0","","","","","","","","","","","","","","","","","","","","","","","","","","",""
"html-keyboard-response","47","166981","0.0-4.0-1.0-2.8","2","0","q5zt6us26ozganm","","null","","<p style=""color:#054d00;""><b>Correct!</b></p>","","null","","","","","","","","","","","","","","","","","","","","","","","","","","","","","","","",""
"audio-keyboard-response","48","167787","0.0-4.0-1.0-0.9","2","0","q5zt6us26ozganm","","null","","sounds/induction/right_rev/su_SWS.wav","","null","","","","","","","","","","","","","","","","","","","","","","","","","","","","","","","",""
"html-button-response","49","169307","0.0-4.0-1.0-1.9","2","0","q5zt6us26ozganm","","1517.699999999255","","Was the sound coming from the left or the right?","1","","","1","INDUCTION-JUDGMENT","right","1","","","","","","","","","","","","","","","","","","","","","","","","","","",""
"html-keyboard-response","50","170310","0.0-4.0-1.0-2.9","2","0","q5zt6us26ozganm","","null","","<p style=""color:#054d00;""><b>Correct!</b></p>","","null","","","","","","","","","","","","","","","","","","","","","","","","","","","","","","","",""
"audio-keyboard-response","51","171115","0.0-4.0-1.0-0.10","2","0","q5zt6us26ozganm","","null","","sounds/induction/right_rev/me_SWS.wav","","null","","","","","","","","","","","","","","","","","","","","","","","","","","","","","","","",""
"html-button-response","52","172912","0.0-4.0-1.0-1.10","2","0","q5zt6us26ozganm","","1795.6000000014901","","Was the sound coming from the left or the right?","1","","","1","INDUCTION-JUDGMENT","right","1","","","","","","","","","","","","","","","","","","","","","","","","","","",""
"html-keyboard-response","53","173919","0.0-4.0-1.0-2.10","2","0","q5zt6us26ozganm","","null","","<p style=""color:#054d00;""><b>Correct!</b></p>","","null","","","","","","","","","","","","","","","","","","","","","","","","","","","","","","","",""
"audio-keyboard-response","54","174720","0.0-4.0-1.0-0.11","2","0","q5zt6us26ozganm","","null","","sounds/induction/left_rev/ru_SWS.wav","","null","","","","","","","","","","","","","","","","","","","","","","","","","","","","","","","",""
"html-button-response","55","175484","0.0-4.0-1.0-1.11","2","0","q5zt6us26ozganm","","762","","Was the sound coming from the left or the right?","0","","","1","INDUCTION-JUDGMENT","left","0","","","","","","","","","","","","","","","","","","","","","","","","","","",""
"html-keyboard-response","56","176490","0.0-4.0-1.0-2.11","2","0","q5zt6us26ozganm","","null","","<p style=""color:#054d00;""><b>Correct!</b></p>","","null","","","","","","","","","","","","","","","","","","","","","","","","","","","","","","","",""
"audio-keyboard-response","57","177296","0.0-4.0-1.0-0.12","2","0","q5zt6us26ozganm","","null","","sounds/induction/left_rev/fu_SWS.wav","","null","","","","","","","","","","","","","","","","","","","","","","","","","","","","","","","",""
"html-button-response","58","178016","0.0-4.0-1.0-1.12","2","0","q5zt6us26ozganm","","717.6000000014901","","Was the sound coming from the left or the right?","0","","","1","INDUCTION-JUDGMENT","left","0","","","","","","","","","","","","","","","","","","","","","","","","","","",""
"html-keyboard-response","59","179018","0.0-4.0-1.0-2.12","2","0","q5zt6us26ozganm","","null","","<p style=""color:#054d00;""><b>Correct!</b></p>","","null","","","","","","","","","","","","","","","","","","","","","","","","","","","","","","","",""
"audio-keyboard-response","60","179819","0.0-4.0-1.0-0.13","2","0","q5zt6us26ozganm","","null","","sounds/induction/right_rev/ko_SWS.wav","","null","","","","","","","","","","","","","","","","","","","","","","","","","","","","","","","",""
"html-button-response","61","180412","0.0-4.0-1.0-1.13","2","0","q5zt6us26ozganm","","591.1000000014901","","Was the sound coming from the left or the right?","1","","","1","INDUCTION-JUDGMENT","right","1","","","","","","","","","","","","","","","","","","","","","","","","","","",""
"html-keyboard-response","62","181418","0.0-4.0-1.0-2.13","2","0","q5zt6us26ozganm","","null","","<p style=""color:#054d00;""><b>Correct!</b></p>","","null","","","","","","","","","","","","","","","","","","","","","","","","","","","","","","","",""
"audio-keyboard-response","63","182219","0.0-4.0-1.0-0.14","2","0","q5zt6us26ozganm","","null","","sounds/induction/left_rev/fu_SWS.wav","","null","","","","","","","","","","","","","","","","","","","","","","","","","","","","","","","",""
"html-button-response","64","182761","0.0-4.0-1.0-1.14","2","0","q5zt6us26ozganm","","540.3999999985099","","Was the sound coming from the left or the right?","0","","","1","INDUCTION-JUDGMENT","left","0","","","","","","","","","","","","","","","","","","","","","","","","","","",""
"html-keyboard-response","65","183764","0.0-4.0-1.0-2.14","2","0","q5zt6us26ozganm","","null","","<p style=""color:#054d00;""><b>Correct!</b></p>","","null","","","","","","","","","","","","","","","","","","","","","","","","","","","","","","","",""
"audio-keyboard-response","66","184565","0.0-4.0-1.0-0.15","2","0","q5zt6us26ozganm","","null","","sounds/induction/right_rev/me_SWS.wav","","null","","","","","","","","","","","","","","","","","","","","","","","","","","","","","","","",""
"html-button-response","67","185244","0.0-4.0-1.0-1.15","2","0","q5zt6us26ozganm","","677.2000000029802","","Was the sound coming from the left or the right?","1","","","1","INDUCTION-JUDGMENT","right","1","","","","","","","","","","","","","","","","","","","","","","","","","","",""
"html-keyboard-response","68","186250","0.0-4.0-1.0-2.15","2","0","q5zt6us26ozganm","","null","","<p style=""color:#054d00;""><b>Correct!</b></p>","","null","","","","","","","","","","","","","","","","","","","","","","","","","","","","","","","",""
"audio-keyboard-response","69","187056","0.0-4.0-1.0-0.16","2","0","q5zt6us26ozganm","","null","","sounds/induction/left_rev/ko_SWS.wav","","null","","","","","","","","","","","","","","","","","","","","","","","","","","","","","","","",""
"html-button-response","70","187633","0.0-4.0-1.0-1.16","2","0","q5zt6us26ozganm","","575","","Was the sound coming from the left or the right?","0","","","1","INDUCTION-JUDGMENT","left","0","","","","","","","","","","","","","","","","","","","","","","","","","","",""
"html-keyboard-response","71","188635","0.0-4.0-1.0-2.16","2","0","q5zt6us26ozganm","","null","","<p style=""color:#054d00;""><b>Correct!</b></p>","","null","","","","","","","","","","","","","","","","","","","","","","","","","","","","","","","",""
"audio-keyboard-response","72","189440","0.0-4.0-1.0-0.17","2","0","q5zt6us26ozganm","","null","","sounds/induction/right_rev/ge_SWS.wav","","null","","","","","","","","","","","","","","","","","","","","","","","","","","","","","","","",""
"html-button-response","73","189839","0.0-4.0-1.0-1.17","2","0","q5zt6us26ozganm","","396.8999999985099","","Was the sound coming from the left or the right?","1","","","1","INDUCTION-JUDGMENT","right","1","","","","","","","","","","","","","","","","","","","","","","","","","","",""
"html-keyboard-response","74","190841","0.0-4.0-1.0-2.17","2","0","q5zt6us26ozganm","","null","","<p style=""color:#054d00;""><b>Correct!</b></p>","","null","","","","","","","","","","","","","","","","","","","","","","","","","","","","","","","",""
"audio-keyboard-response","75","191642","0.0-4.0-1.0-0.18","2","0","q5zt6us26ozganm","","null","","sounds/induction/right_rev/pu_SWS.wav","","null","","","","","","","","","","","","","","","","","","","","","","","","","","","","","","","",""
"html-button-response","76","192417","0.0-4.0-1.0-1.18","2","0","q5zt6us26ozganm","","773.1999999992549","","Was the sound coming from the left or the right?","0","","","0","INDUCTION-JUDGMENT","right","1","","","","","","","","","","","","","","","","","","","","","","","","","","",""
"html-keyboard-response","77","193423","0.0-4.0-1.0-2.18","2","0","q5zt6us26ozganm","","null","","<p style=""color:#690000;""><b>Incorrect!</b></p>","","null","","","","","","","","","","","","","","","","","","","","","","","","","","","","","","","",""
"audio-keyboard-response","78","194224","0.0-4.0-1.0-0.19","2","0","q5zt6us26ozganm","","null","","sounds/induction/left_rev/ni_SWS.wav","","null","","","","","","","","","","","","","","","","","","","","","","","","","","","","","","","",""
"html-button-response","79","194862","0.0-4.0-1.0-1.19","2","0","q5zt6us26ozganm","","636","","Was the sound coming from the left or the right?","0","","","1","INDUCTION-JUDGMENT","left","0","","","","","","","","","","","","","","","","","","","","","","","","","","",""
"html-keyboard-response","80","195865","0.0-4.0-1.0-2.19","2","0","q5zt6us26ozganm","","null","","<p style=""color:#054d00;""><b>Correct!</b></p>","","null","","","","","","","","","","","","","","","","","","","","","","","","","","","","","","","",""
"audio-keyboard-response","81","196671","0.0-4.0-1.0-0.20","2","0","q5zt6us26ozganm","","null","","sounds/induction/right_rev/fu_SWS.wav","","null","","","","","","","","","","","","","","","","","","","","","","","","","","","","","","","",""
"html-button-response","82","197377","0.0-4.0-1.0-1.20","2","0","q5zt6us26ozganm","","703.6999999992549","","Was the sound coming from the left or the right?","1","","","1","INDUCTION-JUDGMENT","right","1","","","","","","","","","","","","","","","","","","","","","","","","","","",""
"html-keyboard-response","83","198383","0.0-4.0-1.0-2.20","2","0","q5zt6us26ozganm","","null","","<p style=""color:#054d00;""><b>Correct!</b></p>","","null","","","","","","","","","","","","","","","","","","","","","","","","","","","","","","","",""
"audio-keyboard-response","84","199183","0.0-4.0-1.0-0.21","2","0","q5zt6us26ozganm","","null","","sounds/induction/left_rev/fe_SWS.wav","","null","","","","","","","","","","","","","","","","","","","","","","","","","","","","","","","",""
"html-button-response","85","199861","0.0-4.0-1.0-1.21","2","0","q5zt6us26ozganm","","675.5999999977648","","Was the sound coming from the left or the right?","0","","","1","INDUCTION-JUDGMENT","left","0","","","","","","","","","","","","","","","","","","","","","","","","","","",""
"html-keyboard-response","86","200863","0.0-4.0-1.0-2.21","2","0","q5zt6us26ozganm","","null","","<p style=""color:#054d00;""><b>Correct!</b></p>","","null","","","","","","","","","","","","","","","","","","","","","","","","","","","","","","","",""
"audio-keyboard-response","87","201663","0.0-4.0-1.0-0.22","2","0","q5zt6us26ozganm","","null","","sounds/induction/left_rev/ru_SWS.wav","","null","","","","","","","","","","","","","","","","","","","","","","","","","","","","","","","",""
"html-button-response","88","202424","0.0-4.0-1.0-1.22","2","0","q5zt6us26ozganm","","758.6999999992549","","Was the sound coming from the left or the right?","1","","","0","INDUCTION-JUDGMENT","left","0","","","","","","","","","","","","","","","","","","","","","","","","","","",""
"html-keyboard-response","89","203428","0.0-4.0-1.0-2.22","2","0","q5zt6us26ozganm","","null","","<p style=""color:#690000;""><b>Incorrect!</b></p>","","null","","","","","","","","","","","","","","","","","","","","","","","","","","","","","","","",""
"audio-keyboard-response","90","204229","0.0-4.0-1.0-0.23","2","0","q5zt6us26ozganm","","null","","sounds/induction/right_rev/ru_SWS.wav","","null","","","","","","","","","","","","","","","","","","","","","","","","","","","","","","","",""
"html-button-response","91","204901","0.0-4.0-1.0-1.23","2","0","q5zt6us26ozganm","","669.8000000007451","","Was the sound coming from the left or the right?","1","","","1","INDUCTION-JUDGMENT","right","1","","","","","","","","","","","","","","","","","","","","","","","","","","",""
"html-keyboard-response","92","205903","0.0-4.0-1.0-2.23","2","0","q5zt6us26ozganm","","null","","<p style=""color:#054d00;""><b>Correct!</b></p>","","null","","","","","","","","","","","","","","","","","","","","","","","","","","","","","","","",""
"audio-keyboard-response","93","206703","0.0-4.0-1.0-0.24","2","0","q5zt6us26ozganm","","null","","sounds/induction/right_rev/fe_SWS.wav","","null","","","","","","","","","","","","","","","","","","","","","","","","","","","","","","","",""
"html-button-response","94","207703","0.0-4.0-1.0-1.24","2","0","q5zt6us26ozganm","","997.6000000014901","","Was the sound coming from the left or the right?","1","","","1","INDUCTION-JUDGMENT","right","1","","","","","","","","","","","","","","","","","","","","","","","","","","",""
"html-keyboard-response","95","208708","0.0-4.0-1.0-2.24","2","0","q5zt6us26ozganm","","null","","<p style=""color:#054d00;""><b>Correct!</b></p>","","null","","","","","","","","","","","","","","","","","","","","","","","","","","","","","","","",""
"audio-keyboard-response","96","209508","0.0-4.0-1.0-0.25","2","0","q5zt6us26ozganm","","null","","sounds/induction/right_rev/ru_SWS.wav","","null","","","","","","","","","","","","","","","","","","","","","","","","","","","","","","","",""
"html-button-response","97","210314","0.0-4.0-1.0-1.25","2","0","q5zt6us26ozganm","","803.6000000014901","","Was the sound coming from the left or the right?","1","","","1","INDUCTION-JUDGMENT","right","1","","","","","","","","","","","","","","","","","","","","","","","","","","",""
"html-keyboard-response","98","211321","0.0-4.0-1.0-2.25","2","0","q5zt6us26ozganm","","null","","<p style=""color:#054d00;""><b>Correct!</b></p>","","null","","","","","","","","","","","","","","","","","","","","","","","","","","","","","","","",""
"audio-keyboard-response","99","212122","0.0-4.0-1.0-0.26","2","0","q5zt6us26ozganm","","null","","sounds/induction/right_rev/fe_SWS.wav","","null","","","","","","","","","","","","","","","","","","","","","","","","","","","","","","","",""
"html-button-response","100","212990","0.0-4.0-1.0-1.26","2","0","q5zt6us26ozganm","","865.8000000007451","","Was the sound coming from the left or the right?","1","","","1","INDUCTION-JUDGMENT","right","1","","","","","","","","","","","","","","","","","","","","","","","","","","",""
"html-keyboard-response","101","213993","0.0-4.0-1.0-2.26","2","0","q5zt6us26ozganm","","null","","<p style=""color:#054d00;""><b>Correct!</b></p>","","null","","","","","","","","","","","","","","","","","","","","","","","","","","","","","","","",""
"audio-keyboard-response","102","214794","0.0-4.0-1.0-0.27","2","0","q5zt6us26ozganm","","null","","sounds/induction/left_rev/ko_SWS.wav","","null","","","","","","","","","","","","","","","","","","","","","","","","","","","","","","","",""
"html-button-response","103","215435","0.0-4.0-1.0-1.27","2","0","q5zt6us26ozganm","","638.7999999970198","","Was the sound coming from the left or the right?","0","","","1","INDUCTION-JUDGMENT","left","0","","","","","","","","","","","","","","","","","","","","","","","","","","",""
"html-keyboard-response","104","216441","0.0-4.0-1.0-2.27","2","0","q5zt6us26ozganm","","null","","<p style=""color:#054d00;""><b>Correct!</b></p>","","null","","","","","","","","","","","","","","","","","","","","","","","","","","","","","","","",""
"audio-keyboard-response","105","217241","0.0-4.0-1.0-0.28","2","0","q5zt6us26ozganm","","null","","sounds/induction/left_rev/ta_SWS.wav","","null","","","","","","","","","","","","","","","","","","","","","","","","","","","","","","","",""
"html-button-response","106","218286","0.0-4.0-1.0-1.28","2","0","q5zt6us26ozganm","","1042.3999999985099","","Was the sound coming from the left or the right?","0","","","1","INDUCTION-JUDGMENT","left","0","","","","","","","","","","","","","","","","","","","","","","","","","","",""
"html-keyboard-response","107","219289","0.0-4.0-1.0-2.28","2","0","q5zt6us26ozganm","","null","","<p style=""color:#054d00;""><b>Correct!</b></p>","","null","","","","","","","","","","","","","","","","","","","","","","","","","","","","","","","",""
"audio-keyboard-response","108","220095","0.0-4.0-1.0-0.29","2","0","q5zt6us26ozganm","","null","","sounds/induction/right_rev/ta_SWS.wav","","null","","","","","","","","","","","","","","","","","","","","","","","","","","","","","","","",""
"html-button-response","109","220739","0.0-4.0-1.0-1.29","2","0","q5zt6us26ozganm","","641.5","","Was the sound coming from the left or the right?","1","","","1","INDUCTION-JUDGMENT","right","1","","","","","","","","","","","","","","","","","","","","","","","","","","",""
"html-keyboard-response","110","221742","0.0-4.0-1.0-2.29","2","0","q5zt6us26ozganm","","null","","<p style=""color:#054d00;""><b>Correct!</b></p>","","null","","","","","","","","","","","","","","","","","","","","","","","","","","","","","","","",""
"audio-keyboard-response","111","222543","0.0-4.0-1.0-0.30","2","0","q5zt6us26ozganm","","null","","sounds/induction/left_rev/ge_SWS.wav","","null","","","","","","","","","","","","","","","","","","","","","","","","","","","","","","","",""
"html-button-response","112","223086","0.0-4.0-1.0-1.30","2","0","q5zt6us26ozganm","","541.3000000007451","","Was the sound coming from the left or the right?","0","","","1","INDUCTION-JUDGMENT","left","0","","","","","","","","","","","","","","","","","","","","","","","","","","",""
"html-keyboard-response","113","224093","0.0-4.0-1.0-2.30","2","0","q5zt6us26ozganm","","null","","<p style=""color:#054d00;""><b>Correct!</b></p>","","null","","","","","","","","","","","","","","","","","","","","","","","","","","","","","","","",""
"audio-keyboard-response","114","224894","0.0-4.0-1.0-0.31","2","0","q5zt6us26ozganm","","null","","sounds/induction/left_rev/su_SWS.wav","","null","","","","","","","","","","","","","","","","","","","","","","","","","","","","","","","",""
"html-button-response","115","225475","0.0-4.0-1.0-1.31","2","0","q5zt6us26ozganm","","577.8999999985099","","Was the sound coming from the left or the right?","0","","","1","INDUCTION-JUDGMENT","left","0","","","","","","","","","","","","","","","","","","","","","","","","","","",""
"html-keyboard-response","116","226478","0.0-4.0-1.0-2.31","2","0","q5zt6us26ozganm","","null","","<p style=""color:#054d00;""><b>Correct!</b></p>","","null","","","","","","","","","","","","","","","","","","","","","","","","","","","","","","","",""
"audio-keyboard-response","117","227284","0.0-4.0-1.0-0.32","2","0","q5zt6us26ozganm","","null","","sounds/induction/left_rev/fe_SWS.wav","","null","","","","","","","","","","","","","","","","","","","","","","","","","","","","","","","",""
"html-button-response","118","227815","0.0-4.0-1.0-1.32","2","0","q5zt6us26ozganm","","528.8999999985099","","Was the sound coming from the left or the right?","0","","","1","INDUCTION-JUDGMENT","left","0","","","","","","","","","","","","","","","","","","","","","","","","","","",""
"html-keyboard-response","119","228821","0.0-4.0-1.0-2.32","2","0","q5zt6us26ozganm","","null","","<p style=""color:#054d00;""><b>Correct!</b></p>","","null","","","","","","","","","","","","","","","","","","","","","","","","","","","","","","","",""
"audio-keyboard-response","120","229625","0.0-4.0-1.0-0.33","2","0","q5zt6us26ozganm","","null","","sounds/induction/left_rev/pu_SWS.wav","","null","","","","","","","","","","","","","","","","","","","","","","","","","","","","","","","",""
"html-button-response","121","230163","0.0-4.0-1.0-1.33","2","0","q5zt6us26ozganm","","536.1999999992549","","Was the sound coming from the left or the right?","0","","","1","INDUCTION-JUDGMENT","left","0","","","","","","","","","","","","","","","","","","","","","","","","","","",""
"html-keyboard-response","122","231166","0.0-4.0-1.0-2.33","2","0","q5zt6us26ozganm","","null","","<p style=""color:#054d00;""><b>Correct!</b></p>","","null","","","","","","","","","","","","","","","","","","","","","","","","","","","","","","","",""
"audio-keyboard-response","123","231966","0.0-4.0-1.0-0.34","2","0","q5zt6us26ozganm","","null","","sounds/induction/right_rev/pu_SWS.wav","","null","","","","","","","","","","","","","","","","","","","","","","","","","","","","","","","",""
"html-button-response","124","232481","0.0-4.0-1.0-1.34","2","0","q5zt6us26ozganm","","512.4000000022352","","Was the sound coming from the left or the right?","1","","","1","INDUCTION-JUDGMENT","right","1","","","","","","","","","","","","","","","","","","","","","","","","","","",""
"html-keyboard-response","125","233485","0.0-4.0-1.0-2.34","2","0","q5zt6us26ozganm","","null","","<p style=""color:#054d00;""><b>Correct!</b></p>","","null","","","","","","","","","","","","","","","","","","","","","","","","","","","","","","","",""
"audio-keyboard-response","126","234286","0.0-4.0-1.0-0.35","2","0","q5zt6us26ozganm","","null","","sounds/induction/right_rev/fu_SWS.wav","","null","","","","","","","","","","","","","","","","","","","","","","","","","","","","","","","",""
"html-button-response","127","234981","0.0-4.0-1.0-1.35","2","0","q5zt6us26ozganm","","692","","Was the sound coming from the left or the right?","1","","","1","INDUCTION-JUDGMENT","right","1","","","","","","","","","","","","","","","","","","","","","","","","","","",""
"html-keyboard-response","128","235987","0.0-4.0-1.0-2.35","2","0","q5zt6us26ozganm","","null","","<p style=""color:#054d00;""><b>Correct!</b></p>","","null","","","","","","","","","","","","","","","","","","","","","","","","","","","","","","","",""
"audio-keyboard-response","129","236787","0.0-4.0-1.0-0.36","2","0","q5zt6us26ozganm","","null","","sounds/induction/left_rev/re_SWS.wav","","null","","","","","","","","","","","","","","","","","","","","","","","","","","","","","","","",""
"html-button-response","130","237417","0.0-4.0-1.0-1.36","2","0","q5zt6us26ozganm","","627","","Was the sound coming from the left or the right?","0","","","1","INDUCTION-JUDGMENT","left","0","","","","","","","","","","","","","","","","","","","","","","","","","","",""
"html-keyboard-response","131","238421","0.0-4.0-1.0-2.36","2","0","q5zt6us26ozganm","","null","","<p style=""color:#054d00;""><b>Correct!</b></p>","","null","","","","","","","","","","","","","","","","","","","","","","","","","","","","","","","",""
"audio-keyboard-response","132","239225","0.0-4.0-1.0-0.37","2","0","q5zt6us26ozganm","","null","","sounds/induction/right_rev/su_SWS.wav","","null","","","","","","","","","","","","","","","","","","","","","","","","","","","","","","","",""
"html-button-response","133","240260","0.0-4.0-1.0-1.37","2","0","q5zt6us26ozganm","","1032.300000000745","","Was the sound coming from the left or the right?","1","","","1","INDUCTION-JUDGMENT","right","1","","","","","","","","","","","","","","","","","","","","","","","","","","",""
"html-keyboard-response","134","241266","0.0-4.0-1.0-2.37","2","0","q5zt6us26ozganm","","null","","<p style=""color:#054d00;""><b>Correct!</b></p>","","null","","","","","","","","","","","","","","","","","","","","","","","","","","","","","","","",""
"audio-keyboard-response","135","242067","0.0-4.0-1.0-0.38","2","0","q5zt6us26ozganm","","null","","sounds/induction/left_rev/re_SWS.wav","","null","","","","","","","","","","","","","","","","","","","","","","","","","","","","","","","",""
"html-button-response","136","242600","0.0-4.0-1.0-1.38","2","0","q5zt6us26ozganm","","530","","Was the sound coming from the left or the right?","0","","","1","INDUCTION-JUDGMENT","left","0","","","","","","","","","","","","","","","","","","","","","","","","","","",""
"html-keyboard-response","137","243603","0.0-4.0-1.0-2.38","2","0","q5zt6us26ozganm","","null","","<p style=""color:#054d00;""><b>Correct!</b></p>","","null","","","","","","","","","","","","","","","","","","","","","","","","","","","","","","","",""
"audio-keyboard-response","138","244408","0.0-4.0-1.0-0.39","2","0","q5zt6us26ozganm","","null","","sounds/induction/right_rev/ni_SWS.wav","","null","","","","","","","","","","","","","","","","","","","","","","","","","","","","","","","",""
"html-button-response","139","245027","0.0-4.0-1.0-1.39","2","0","q5zt6us26ozganm","","616.1999999992549","","Was the sound coming from the left or the right?","1","","","1","INDUCTION-JUDGMENT","right","1","","","","","","","","","","","","","","","","","","","","","","","","","","",""
"html-keyboard-response","140","246034","0.0-4.0-1.0-2.39","2","0","q5zt6us26ozganm","","null","","<p style=""color:#054d00;""><b>Correct!</b></p>","","null","","","","","","","","","","","","","","","","","","","","","","","","","","","","","","","",""
"audio-keyboard-response","141","246835","0.0-4.0-1.0-0.40","2","0","q5zt6us26ozganm","","null","","sounds/induction/right_rev/ni_SWS.wav","","null","","","","","","","","","","","","","","","","","","","","","","","","","","","","","","","",""
"html-button-response","142","247559","0.0-4.0-1.0-1.40","2","0","q5zt6us26ozganm","","721.8000000007451","","Was the sound coming from the left or the right?","1","","","1","INDUCTION-JUDGMENT","right","1","","","","","","","","","","","","","","","","","","","","","","","","","","",""
"html-keyboard-response","143","248563","0.0-4.0-1.0-2.40","2","0","q5zt6us26ozganm","","null","","<p style=""color:#054d00;""><b>Correct!</b></p>","","null","","","","","","","","","","","","","","","","","","","","","","","","","","","","","","","",""
"audio-keyboard-response","144","249368","0.0-4.0-1.0-0.41","2","0","q5zt6us26ozganm","","null","","sounds/induction/left_rev/su_SWS.wav","","null","","","","","","","","","","","","","","","","","","","","","","","","","","","","","","","",""
"html-button-response","145","249852","0.0-4.0-1.0-1.41","2","0","q5zt6us26ozganm","","480.5999999977648","","Was the sound coming from the left or the right?","0","","","1","INDUCTION-JUDGMENT","left","0","","","","","","","","","","","","","","","","","","","","","","","","","","",""
"html-keyboard-response","146","250856","0.0-4.0-1.0-2.41","2","0","q5zt6us26ozganm","","null","","<p style=""color:#054d00;""><b>Correct!</b></p>","","null","","","","","","","","","","","","","","","","","","","","","","","","","","","","","","","",""
"audio-keyboard-response","147","251656","0.0-4.0-1.0-0.42","2","0","q5zt6us26ozganm","","null","","sounds/induction/left_rev/me_SWS.wav","","null","","","","","","","","","","","","","","","","","","","","","","","","","","","","","","","",""
"html-button-response","148","252120","0.0-4.0-1.0-1.42","2","0","q5zt6us26ozganm","","461.80000000074506","","Was the sound coming from the left or the right?","0","","","1","INDUCTION-JUDGMENT","left","0","","","","","","","","","","","","","","","","","","","","","","","","","","",""
"html-keyboard-response","149","253122","0.0-4.0-1.0-2.42","2","0","q5zt6us26ozganm","","null","","<p style=""color:#054d00;""><b>Correct!</b></p>","","null","","","","","","","","","","","","","","","","","","","","","","","","","","","","","","","",""
"audio-keyboard-response","150","253928","0.0-4.0-1.0-0.43","2","0","q5zt6us26ozganm","","null","","sounds/induction/right_rev/re_SWS.wav","","null","","","","","","","","","","","","","","","","","","","","","","","","","","","","","","","",""
"html-button-response","151","254422","0.0-4.0-1.0-1.43","2","0","q5zt6us26ozganm","","490.5999999977648","","Was the sound coming from the left or the right?","1","","","1","INDUCTION-JUDGMENT","right","1","","","","","","","","","","","","","","","","","","","","","","","","","","",""
"html-keyboard-response","152","255426","0.0-4.0-1.0-2.43","2","0","q5zt6us26ozganm","","null","","<p style=""color:#054d00;""><b>Correct!</b></p>","","null","","","","","","","","","","","","","","","","","","","","","","","","","","","","","","","",""
"audio-keyboard-response","153","256232","0.0-4.0-1.0-0.44","2","0","q5zt6us26ozganm","","null","","sounds/induction/left_rev/pu_SWS.wav","","null","","","","","","","","","","","","","","","","","","","","","","","","","","","","","","","",""
"html-button-response","154","257337","0.0-4.0-1.0-1.44","2","0","q5zt6us26ozganm","","1101.9000000022352","","Was the sound coming from the left or the right?","0","","","1","INDUCTION-JUDGMENT","left","0","","","","","","","","","","","","","","","","","","","","","","","","","","",""
"html-keyboard-response","155","258343","0.0-4.0-1.0-2.44","2","0","q5zt6us26ozganm","","null","","<p style=""color:#054d00;""><b>Correct!</b></p>","","null","","","","","","","","","","","","","","","","","","","","","","","","","","","","","","","",""
"audio-keyboard-response","156","259144","0.0-4.0-1.0-0.45","2","0","q5zt6us26ozganm","","null","","sounds/induction/left_rev/ge_SWS.wav","","null","","","","","","","","","","","","","","","","","","","","","","","","","","","","","","","",""
"html-button-response","157","261315","0.0-4.0-1.0-1.45","2","0","q5zt6us26ozganm","","2168.800000000745","","Was the sound coming from the left or the right?","0","","","1","INDUCTION-JUDGMENT","left","0","","","","","","","","","","","","","","","","","","","","","","","","","","",""
"html-keyboard-response","158","262322","0.0-4.0-1.0-2.45","2","0","q5zt6us26ozganm","","null","","<p style=""color:#054d00;""><b>Correct!</b></p>","","null","","","","","","","","","","","","","","","","","","","","","","","","","","","","","","","",""
"audio-keyboard-response","159","263122","0.0-4.0-1.0-0.46","2","0","q5zt6us26ozganm","","null","","sounds/induction/left_rev/ta_SWS.wav","","null","","","","","","","","","","","","","","","","","","","","","","","","","","","","","","","",""
"html-button-response","160","264301","0.0-4.0-1.0-1.46","2","0","q5zt6us26ozganm","","1175.800000000745","","Was the sound coming from the left or the right?","1","","","0","INDUCTION-JUDGMENT","left","0","","","","","","","","","","","","","","","","","","","","","","","","","","",""
"html-keyboard-response","161","265308","0.0-4.0-1.0-2.46","2","0","q5zt6us26ozganm","","null","","<p style=""color:#690000;""><b>Incorrect!</b></p>","","null","","","","","","","","","","","","","","","","","","","","","","","","","","","","","","","",""
"audio-keyboard-response","162","266113","0.0-4.0-1.0-0.47","2","0","q5zt6us26ozganm","","null","","sounds/induction/right_rev/ko_SWS.wav","","null","","","","","","","","","","","","","","","","","","","","","","","","","","","","","","","",""
"html-button-response","163","272125","0.0-4.0-1.0-1.47","2","0","q5zt6us26ozganm","","6008.79999999702","","Was the sound coming from the left or the right?","1","","","1","INDUCTION-JUDGMENT","right","1","","","","","","","","","","","","","","","","","","","","","","","","","","",""
"html-keyboard-response","164","273126","0.0-4.0-1.0-2.47","2","0","q5zt6us26ozganm","","null","","<p style=""color:#054d00;""><b>Correct!</b></p>","","null","","","","","","","","","","","","","","","","","","","","","","","","","","","","","","","",""
"html-button-response","165","275229","0.0-5.0-0.0","2","0","q5zt6us26ozganm","","1600","","<p>Thank you for your answers.</p><p>You will now listen to similar sounds. The main difference is that the sounds will be longer.</p><p>Just as before, you will be asked to judge whether the sound was coming from the left or the right.</p><p>There are 10 of these longer sounds in total.","0","","","","","","","","","","","","","","","","","","","","","","","","","","","","","","","","",""
"audio-keyboard-response","166","277783","0.0-5.0-1.0-0.0","2","0","q5zt6us26ozganm","","null","","sounds/sentences/left_rev/14_04_cfSWS.wav","","null","","","","","","","","","","","","","","","","","","","","","","","","","","","","","","","",""
"html-button-response","167","279089","0.0-5.0-1.0-1.0","2","0","q5zt6us26ozganm","","1305.199999999255","","Was the sound coming from the left or the right?","0","","","1","INDUCTION-JUDGMENT","left","0","","","","","","","","","","","","","","","","","","","","","","","","","","",""
"html-keyboard-response","168","280095","0.0-5.0-1.0-2.0","2","0","q5zt6us26ozganm","","null","","<p style=""color:#054d00;""><b>Correct!</b></p>","","null","","","","","","","","","","","","","","","","","","","","","","","","","","","","","","","",""
"html-button-response","169","281781","0.0-5.0-1.0-3.0","2","0","q5zt6us26ozganm","","1181.699999999255","","<p>Press the button below when you are ready to continue.</p>","0","","","","","","","","","","","","","","","","","","","","","","","","","","","","","","","","",""
"audio-keyboard-response","170","284540","0.0-5.0-1.0-0.1","2","0","q5zt6us26ozganm","","null","","sounds/sentences/right_rev/14_08_cfSWS.wav","","null","","","","","","","","","","","","","","","","","","","","","","","","","","","","","","","",""
"html-button-response","171","285301","0.0-5.0-1.0-1.1","2","0","q5zt6us26ozganm","","759.8000000007451","","Was the sound coming from the left or the right?","1","","","1","INDUCTION-JUDGMENT","right","1","","","","","","","","","","","","","","","","","","","","","","","","","","",""
"html-keyboard-response","172","286305","0.0-5.0-1.0-2.1","2","0","q5zt6us26ozganm","","null","","<p style=""color:#054d00;""><b>Correct!</b></p>","","null","","","","","","","","","","","","","","","","","","","","","","","","","","","","","","","",""
"html-button-response","173","287593","0.0-5.0-1.0-3.1","2","0","q5zt6us26ozganm","","786.3999999985099","","<p>Press the button below when you are ready to continue.</p>","0","","","","","","","","","","","","","","","","","","","","","","","","","","","","","","","","",""
"audio-keyboard-response","174","290614","0.0-5.0-1.0-0.2","2","0","q5zt6us26ozganm","","null","","sounds/sentences/right_rev/14_10_cfSWS.wav","","null","","","","","","","","","","","","","","","","","","","","","","","","","","","","","","","",""
"html-button-response","175","291452","0.0-5.0-1.0-1.2","2","0","q5zt6us26ozganm","","836","","Was the sound coming from the left or the right?","1","","","1","INDUCTION-JUDGMENT","right","1","","","","","","","","","","","","","","","","","","","","","","","","","","",""
"html-keyboard-response","176","292454","0.0-5.0-1.0-2.2","2","0","q5zt6us26ozganm","","null","","<p style=""color:#054d00;""><b>Correct!</b></p>","","null","","","","","","","","","","","","","","","","","","","","","","","","","","","","","","","",""
"html-button-response","177","293569","0.0-5.0-1.0-3.2","2","0","q5zt6us26ozganm","","613.1000000014901","","<p>Press the button below when you are ready to continue.</p>","0","","","","","","","","","","","","","","","","","","","","","","","","","","","","","","","","",""
"audio-keyboard-response","178","296155","0.0-5.0-1.0-0.3","2","0","q5zt6us26ozganm","","null","","sounds/sentences/left_rev/14_03_cfSWS.wav","","null","","","","","","","","","","","","","","","","","","","","","","","","","","","","","","","",""
"html-button-response","179","297662","0.0-5.0-1.0-1.3","2","0","q5zt6us26ozganm","","1504.699999999255","","Was the sound coming from the left or the right?","0","","","1","INDUCTION-JUDGMENT","left","0","","","","","","","","","","","","","","","","","","","","","","","","","","",""
"html-keyboard-response","180","298668","0.0-5.0-1.0-2.3","2","0","q5zt6us26ozganm","","null","","<p style=""color:#054d00;""><b>Correct!</b></p>","","null","","","","","","","","","","","","","","","","","","","","","","","","","","","","","","","",""
"html-button-response","181","299756","0.0-5.0-1.0-3.3","2","0","q5zt6us26ozganm","","585.3999999985099","","<p>Press the button below when you are ready to continue.</p>","0","","","","","","","","","","","","","","","","","","","","","","","","","","","","","","","","",""
"audio-keyboard-response","182","302502","0.0-5.0-1.0-0.4","2","0","q5zt6us26ozganm","","null","","sounds/sentences/right_rev/14_06_cfSWS.wav","","null","","","","","","","","","","","","","","","","","","","","","","","","","","","","","","","",""
"html-button-response","183","303036","0.0-5.0-1.0-1.4","2","0","q5zt6us26ozganm","","531.6999999992549","","Was the sound coming from the left or the right?","1","","","1","INDUCTION-JUDGMENT","right","1","","","","","","","","","","","","","","","","","","","","","","","","","","",""
"html-keyboard-response","184","304042","0.0-5.0-1.0-2.4","2","0","q5zt6us26ozganm","","null","","<p style=""color:#054d00;""><b>Correct!</b></p>","","null","","","","","","","","","","","","","","","","","","","","","","","","","","","","","","","",""
"html-button-response","185","305240","0.0-5.0-1.0-3.4","2","0","q5zt6us26ozganm","","693.1999999992549","","<p>Press the button below when you are ready to continue.</p>","0","","","","","","","","","","","","","","","","","","","","","","","","","","","","","","","","",""
"audio-keyboard-response","186","307974","0.0-5.0-1.0-0.5","2","0","q5zt6us26ozganm","","null","","sounds/sentences/right_rev/14_09_cfSWS.wav","","null","","","","","","","","","","","","","","","","","","","","","","","","","","","","","","","",""
"html-button-response","187","309309","0.0-5.0-1.0-1.5","2","0","q5zt6us26ozganm","","1333.4000000022352","","Was the sound coming from the left or the right?","1","","","1","INDUCTION-JUDGMENT","right","1","","","","","","","","","","","","","","","","","","","","","","","","","","",""
"html-keyboard-response","188","310311","0.0-5.0-1.0-2.5","2","0","q5zt6us26ozganm","","null","","<p style=""color:#054d00;""><b>Correct!</b></p>","","null","","","","","","","","","","","","","","","","","","","","","","","","","","","","","","","",""
"html-button-response","189","311570","0.0-5.0-1.0-3.5","2","0","q5zt6us26ozganm","","752.5","","<p>Press the button below when you are ready to continue.</p>","0","","","","","","","","","","","","","","","","","","","","","","","","","","","","","","","","",""
"audio-keyboard-response","190","314389","0.0-5.0-1.0-0.6","2","0","q5zt6us26ozganm","","null","","sounds/sentences/left_rev/14_02_cfSWS.wav","","null","","","","","","","","","","","","","","","","","","","","","","","","","","","","","","","",""
"html-button-response","191","315049","0.0-5.0-1.0-1.6","2","0","q5zt6us26ozganm","","657.6999999992549","","Was the sound coming from the left or the right?","0","","","1","INDUCTION-JUDGMENT","left","0","","","","","","","","","","","","","","","","","","","","","","","","","","",""
"html-keyboard-response","192","316053","0.0-5.0-1.0-2.6","2","0","q5zt6us26ozganm","","null","","<p style=""color:#054d00;""><b>Correct!</b></p>","","null","","","","","","","","","","","","","","","","","","","","","","","","","","","","","","","",""
"html-button-response","193","317175","0.0-5.0-1.0-3.6","2","0","q5zt6us26ozganm","","619","","<p>Press the button below when you are ready to continue.</p>","0","","","","","","","","","","","","","","","","","","","","","","","","","","","","","","","","",""
"audio-keyboard-response","194","320064","0.0-5.0-1.0-0.7","2","0","q5zt6us26ozganm","","null","","sounds/sentences/right_rev/14_07_cfSWS.wav","","null","","","","","","","","","","","","","","","","","","","","","","","","","","","","","","","",""
"html-button-response","195","320933","0.0-5.0-1.0-1.7","2","0","q5zt6us26ozganm","","866.7999999970198","","Was the sound coming from the left or the right?","1","","","1","INDUCTION-JUDGMENT","right","1","","","","","","","","","","","","","","","","","","","","","","","","","","",""
"html-keyboard-response","196","321936","0.0-5.0-1.0-2.7","2","0","q5zt6us26ozganm","","null","","<p style=""color:#054d00;""><b>Correct!</b></p>","","null","","","","","","","","","","","","","","","","","","","","","","","","","","","","","","","",""
"html-button-response","197","323010","0.0-5.0-1.0-3.7","2","0","q5zt6us26ozganm","","570.4000000022352","","<p>Press the button below when you are ready to continue.</p>","0","","","","","","","","","","","","","","","","","","","","","","","","","","","","","","","","",""
"audio-keyboard-response","198","326133","0.0-5.0-1.0-0.8","2","0","q5zt6us26ozganm","","null","","sounds/sentences/left_rev/14_01_cfSWS.wav","","null","","","","","","","","","","","","","","","","","","","","","","","","","","","","","","","",""
"html-button-response","199","326927","0.0-5.0-1.0-1.8","2","0","q5zt6us26ozganm","","792.1999999992549","","Was the sound coming from the left or the right?","0","","","1","INDUCTION-JUDGMENT","left","0","","","","","","","","","","","","","","","","","","","","","","","","","","",""
"html-keyboard-response","200","327930","0.0-5.0-1.0-2.8","2","0","q5zt6us26ozganm","","null","","<p style=""color:#054d00;""><b>Correct!</b></p>","","null","","","","","","","","","","","","","","","","","","","","","","","","","","","","","","","",""
"html-button-response","201","329085","0.0-5.0-1.0-3.8","2","0","q5zt6us26ozganm","","651.6000000014901","","<p>Press the button below when you are ready to continue.</p>","0","","","","","","","","","","","","","","","","","","","","","","","","","","","","","","","","",""
"audio-keyboard-response","202","332079","0.0-5.0-1.0-0.9","2","0","q5zt6us26ozganm","","null","","sounds/sentences/left_rev/14_05_cfSWS.wav","","null","","","","","","","","","","","","","","","","","","","","","","","","","","","","","","","",""
"html-button-response","203","333021","0.0-5.0-1.0-1.9","2","0","q5zt6us26ozganm","","939.0999999977648","","Was the sound coming from the left or the right?","0","","","1","INDUCTION-JUDGMENT","left","0","","","","","","","","","","","","","","","","","","","","","","","","","","",""
"html-keyboard-response","204","334026","0.0-5.0-1.0-2.9","2","0","q5zt6us26ozganm","","null","","<p style=""color:#054d00;""><b>Correct!</b></p>","","null","","","","","","","","","","","","","","","","","","","","","","","","","","","","","","","",""
"html-button-response","205","335395","0.0-5.0-1.0-3.9","2","0","q5zt6us26ozganm","","866.8000000007451","","<p>Press the button below when you are ready to continue.</p>","0","","","","","","","","","","","","","","","","","","","","","","","","","","","","","","","","",""
"html-keyboard-response","206","337644","0.0-6.0-0.0","2","0","q5zt6us26ozganm","","1744.5","","<p>In this part of the study, you will hear sounds similar to those you just heard.</p><p>Please focus on these sounds, as you may be asked questions about them later.</p><p>Occasionally, the sounds will pause for up to two seconds. When this happens, please press SPACEBAR as quickly as you can.</br>This helps ensure that you are paying attention to the sounds.</p><p>This part of the study will take about 12 minutes to complete, and you will be given the opportunity to take a couple of short breaks every few minutes.</p><p><strong>Press SPACEBAR to begin</strong></p>","","32","","","","","","","","","","","","","","","","","","","","","","","","","","","","","","","",""
"html-keyboard-response","207","338650","0.0-6.0-1.0-0.0","2","0","q5zt6us26ozganm","","null","","<p style=""font-size: 40px;"">+</p>","","null","","","","","","","","","","","","","","","","","","","","","","","","","","","","","","","",""
"html-keyboard-response","208","523653","0.0-6.0-1.0-1.0","2","0","q5zt6us26ozganm","","null","","","","null","","","SL-TRAIN","","","2","null","null","sounds/B/TRAIN/SEQ__12.mp3","0","","","","","","","","","","","","","","","","","","","","","",""
"html-button-response","209","525602","0.0-6.0-1.0-2.0","2","0","q5zt6us26ozganm","","1946.3999999985099","","<p>You may take a short break if you wish.</p>","0","","","","","","","","","","","","","","","","","","","","","","","","","","","","","","","","",""
"html-keyboard-response","210","526607","0.0-6.0-1.0-3.0","2","0","q5zt6us26ozganm","","null","","<p style=""font-size: 40px;"">+</p>","","null","","","","","","","","","","","","","","","","","","","","","","","","","","","","","","","",""
"html-keyboard-response","211","711609","0.0-6.0-1.0-4.0","2","0","q5zt6us26ozganm","","null","","","","null","","","SL-TRAIN","","","2","null","null","sounds/B/TRAIN/SEQ__03.mp3","0","","","","","","","","","","","","","","","","","","","","","",""
"html-button-response","212","714990","0.0-6.0-1.0-5.0","2","0","q5zt6us26ozganm","","3379.199999999255","","<p>You may take a short break if you wish.</p>","0","","","","","","","","","","","","","","","","","","","","","","","","","","","","","","","","",""
"html-keyboard-response","213","715992","0.0-6.0-1.0-6.0","2","0","q5zt6us26ozganm","","null","","<p style=""font-size: 40px;"">+</p>","","null","","","","","","","","","","","","","","","","","","","","","","","","","","","","","","","",""
"html-keyboard-response","214","900994","0.0-6.0-1.0-7.0","2","0","q5zt6us26ozganm","","null","","","","null","","","SL-TRAIN","","","2","null","null","sounds/B/TRAIN/SEQ__11.mp3","3","","","","","","","","","","","","","","","","","","","","","",""
"html-button-response","215","905995","0.0-6.0-1.0-8.0","2","0","q5zt6us26ozganm","","4998.699999999255","","<p>You may take a short break if you wish.</p>","0","","","","","","","","","","","","","","","","","","","","","","","","","","","","","","","","",""
"html-keyboard-response","216","906999","0.0-6.0-1.0-9.0","2","0","q5zt6us26ozganm","","null","","<p style=""font-size: 40px;"">+</p>","","null","","","","","","","","","","","","","","","","","","","","","","","","","","","","","","","",""
"html-keyboard-response","217","1091999","0.0-6.0-1.0-10.0","2","0","q5zt6us26ozganm","","null","","","","null","","","SL-TRAIN","","","2","null","null","sounds/B/TRAIN/SEQ__10.mp3","0","","","","","","","","","","","","","","","","","","","","","",""
"html-button-response","218","1107526","0.0-6.0-1.0-11.0","2","0","q5zt6us26ozganm","","15525.60000000149","","<p>You may take a short break if you wish.</p>","0","","","","","","","","","","","","","","","","","","","","","","","","","","","","","","","","",""
"html-button-response","219","1146598","0.0-7.0-0.0","2","0","q5zt6us26ozganm","","39071.199999999255","","<p>Welcome to the second part of the study. This is a <u>familiarity task</u>.</p><p>You will now hear short sounds and will be asked to rate how familiar they sound to you <b>based on what you heard in the previous part of the study</b>.</p><p>You will rate 12 sounds in total.</p>","0","","","","","","","","","","","","","","","","","","","","","","","","","","","","","","","","",""
"html-keyboard-response","220","1147602","0.0-7.0-1.0-0.0","2","0","q5zt6us26ozganm","","null","","","","null","","","","","","","","","","","","","","","","","","","","","","","","","","","","","","","",""
"audio-keyboard-response","221","1148944","0.0-7.0-1.0-1.0","2","0","q5zt6us26ozganm","","null","","sounds/B/FAM/W003.mp3","","null","","","","","","","","","","","","","","","","","","","","","","","","","","","","","","","",""
"html-keyboard-response","222","1154545","0.0-7.0-1.0-2.0","2","0","q5zt6us26ozganm","","5096.89999999851","","<p>How familiar did this sound to you?</p><p>1&nbsp;&nbsp;&nbsp;&nbsp;&nbsp;&nbsp;&nbsp;&nbsp;&nbsp;&nbsp;&nbsp;&nbsp;&nbsp;&nbsp;&nbsp;&nbsp;&nbsp;&nbsp;&nbsp;2&nbsp;&nbsp;&nbsp;&nbsp;&nbsp;&nbsp;&nbsp;&nbsp;&nbsp;&nbsp;&nbsp;&nbsp;&nbsp;&nbsp;&nbsp;&nbsp;&nbsp;&nbsp;&nbsp;3&nbsp;&nbsp;&nbsp;&nbsp;&nbsp;&nbsp;&nbsp;&nbsp;&nbsp;&nbsp;&nbsp;&nbsp;&nbsp;&nbsp;&nbsp;&nbsp;&nbsp;&nbsp;&nbsp;4</p><p style=""font-size:14px"">Not at all familiar&nbsp;&nbsp;&nbsp;&nbsp;A little familiar&nbsp;&nbsp;&nbsp;Moderately familiar&nbsp;&nbsp;&nbsp;Extremely familiar</p><p>(press the corresponding number on your keyboard)</p>","","52","","","FAM-RESPONSE","","","","","","","","sounds/B/FAM/W003.mp3","word","","","","","","","","","","","","","","","","","","","",""
"html-keyboard-response","223","1156552","0.0-7.0-1.0-0.1","2","0","q5zt6us26ozganm","","null","","","","null","","","","","","","","","","","","","","","","","","","","","","","","","","","","","","","",""
"audio-keyboard-response","224","1157499","0.0-7.0-1.0-1.1","2","0","q5zt6us26ozganm","","null","","sounds/B/FAM/P003.mp3","","null","","","","","","","","","","","","","","","","","","","","","","","","","","","","","","","",""
"html-keyboard-response","225","1159626","0.0-7.0-1.0-2.1","2","0","q5zt6us26ozganm","","1623.3999999985099","","<p>How familiar did this sound to you?</p><p>1&nbsp;&nbsp;&nbsp;&nbsp;&nbsp;&nbsp;&nbsp;&nbsp;&nbsp;&nbsp;&nbsp;&nbsp;&nbsp;&nbsp;&nbsp;&nbsp;&nbsp;&nbsp;&nbsp;2&nbsp;&nbsp;&nbsp;&nbsp;&nbsp;&nbsp;&nbsp;&nbsp;&nbsp;&nbsp;&nbsp;&nbsp;&nbsp;&nbsp;&nbsp;&nbsp;&nbsp;&nbsp;&nbsp;3&nbsp;&nbsp;&nbsp;&nbsp;&nbsp;&nbsp;&nbsp;&nbsp;&nbsp;&nbsp;&nbsp;&nbsp;&nbsp;&nbsp;&nbsp;&nbsp;&nbsp;&nbsp;&nbsp;4</p><p style=""font-size:14px"">Not at all familiar&nbsp;&nbsp;&nbsp;&nbsp;A little familiar&nbsp;&nbsp;&nbsp;Moderately familiar&nbsp;&nbsp;&nbsp;Extremely familiar</p><p>(press the corresponding number on your keyboard)</p>","","52","","","FAM-RESPONSE","","","","","","","","sounds/B/FAM/P003.mp3","partword","","","","","","","","","","","","","","","","","","","",""
"html-keyboard-response","226","1161634","0.0-7.0-1.0-0.2","2","0","q5zt6us26ozganm","","null","","","","null","","","","","","","","","","","","","","","","","","","","","","","","","","","","","","","",""
"audio-keyboard-response","227","1162576","0.0-7.0-1.0-1.2","2","0","q5zt6us26ozganm","","null","","sounds/B/FAM/W004.mp3","","null","","","","","","","","","","","","","","","","","","","","","","","","","","","","","","","",""
"html-keyboard-response","228","1163604","0.0-7.0-1.0-2.2","2","0","q5zt6us26ozganm","","524","","<p>How familiar did this sound to you?</p><p>1&nbsp;&nbsp;&nbsp;&nbsp;&nbsp;&nbsp;&nbsp;&nbsp;&nbsp;&nbsp;&nbsp;&nbsp;&nbsp;&nbsp;&nbsp;&nbsp;&nbsp;&nbsp;&nbsp;2&nbsp;&nbsp;&nbsp;&nbsp;&nbsp;&nbsp;&nbsp;&nbsp;&nbsp;&nbsp;&nbsp;&nbsp;&nbsp;&nbsp;&nbsp;&nbsp;&nbsp;&nbsp;&nbsp;3&nbsp;&nbsp;&nbsp;&nbsp;&nbsp;&nbsp;&nbsp;&nbsp;&nbsp;&nbsp;&nbsp;&nbsp;&nbsp;&nbsp;&nbsp;&nbsp;&nbsp;&nbsp;&nbsp;4</p><p style=""font-size:14px"">Not at all familiar&nbsp;&nbsp;&nbsp;&nbsp;A little familiar&nbsp;&nbsp;&nbsp;Moderately familiar&nbsp;&nbsp;&nbsp;Extremely familiar</p><p>(press the corresponding number on your keyboard)</p>","","52","","","FAM-RESPONSE","","","","","","","","sounds/B/FAM/W004.mp3","word","","","","","","","","","","","","","","","","","","","",""
"html-keyboard-response","229","1165612","0.0-7.0-1.0-0.3","2","0","q5zt6us26ozganm","","null","","","","null","","","","","","","","","","","","","","","","","","","","","","","","","","","","","","","",""
"audio-keyboard-response","230","1166554","0.0-7.0-1.0-1.3","2","0","q5zt6us26ozganm","","null","","sounds/B/FAM/N002.mp3","","null","","","","","","","","","","","","","","","","","","","","","","","","","","","","","","","",""
"html-keyboard-response","231","1167124","0.0-7.0-1.0-2.3","2","0","q5zt6us26ozganm","","65.69999999925494","","<p>How familiar did this sound to you?</p><p>1&nbsp;&nbsp;&nbsp;&nbsp;&nbsp;&nbsp;&nbsp;&nbsp;&nbsp;&nbsp;&nbsp;&nbsp;&nbsp;&nbsp;&nbsp;&nbsp;&nbsp;&nbsp;&nbsp;2&nbsp;&nbsp;&nbsp;&nbsp;&nbsp;&nbsp;&nbsp;&nbsp;&nbsp;&nbsp;&nbsp;&nbsp;&nbsp;&nbsp;&nbsp;&nbsp;&nbsp;&nbsp;&nbsp;3&nbsp;&nbsp;&nbsp;&nbsp;&nbsp;&nbsp;&nbsp;&nbsp;&nbsp;&nbsp;&nbsp;&nbsp;&nbsp;&nbsp;&nbsp;&nbsp;&nbsp;&nbsp;&nbsp;4</p><p style=""font-size:14px"">Not at all familiar&nbsp;&nbsp;&nbsp;&nbsp;A little familiar&nbsp;&nbsp;&nbsp;Moderately familiar&nbsp;&nbsp;&nbsp;Extremely familiar</p><p>(press the corresponding number on your keyboard)</p>","","52","","","FAM-RESPONSE","","","","","","","","sounds/B/FAM/N002.mp3","nonword","","","","","","","","","","","","","","","","","","","",""
"html-keyboard-response","232","1169132","0.0-7.0-1.0-0.4","2","0","q5zt6us26ozganm","","null","","","","null","","","","","","","","","","","","","","","","","","","","","","","","","","","","","","","",""
"audio-keyboard-response","233","1170074","0.0-7.0-1.0-1.4","2","0","q5zt6us26ozganm","","null","","sounds/B/FAM/N001.mp3","","null","","","","","","","","","","","","","","","","","","","","","","","","","","","","","","","",""
"html-keyboard-response","234","1172518","0.0-7.0-1.0-2.4","2","0","q5zt6us26ozganm","","1940.300000000745","","<p>How familiar did this sound to you?</p><p>1&nbsp;&nbsp;&nbsp;&nbsp;&nbsp;&nbsp;&nbsp;&nbsp;&nbsp;&nbsp;&nbsp;&nbsp;&nbsp;&nbsp;&nbsp;&nbsp;&nbsp;&nbsp;&nbsp;2&nbsp;&nbsp;&nbsp;&nbsp;&nbsp;&nbsp;&nbsp;&nbsp;&nbsp;&nbsp;&nbsp;&nbsp;&nbsp;&nbsp;&nbsp;&nbsp;&nbsp;&nbsp;&nbsp;3&nbsp;&nbsp;&nbsp;&nbsp;&nbsp;&nbsp;&nbsp;&nbsp;&nbsp;&nbsp;&nbsp;&nbsp;&nbsp;&nbsp;&nbsp;&nbsp;&nbsp;&nbsp;&nbsp;4</p><p style=""font-size:14px"">Not at all familiar&nbsp;&nbsp;&nbsp;&nbsp;A little familiar&nbsp;&nbsp;&nbsp;Moderately familiar&nbsp;&nbsp;&nbsp;Extremely familiar</p><p>(press the corresponding number on your keyboard)</p>","","50","","","FAM-RESPONSE","","","","","","","","sounds/B/FAM/N001.mp3","nonword","","","","","","","","","","","","","","","","","","","",""
"html-keyboard-response","235","1174524","0.0-7.0-1.0-0.5","2","0","q5zt6us26ozganm","","null","","","","null","","","","","","","","","","","","","","","","","","","","","","","","","","","","","","","",""
"audio-keyboard-response","236","1175466","0.0-7.0-1.0-1.5","2","0","q5zt6us26ozganm","","null","","sounds/B/FAM/P004.mp3","","null","","","","","","","","","","","","","","","","","","","","","","","","","","","","","","","",""
"html-keyboard-response","237","1176318","0.0-7.0-1.0-2.5","2","0","q5zt6us26ozganm","","348.0999999977648","","<p>How familiar did this sound to you?</p><p>1&nbsp;&nbsp;&nbsp;&nbsp;&nbsp;&nbsp;&nbsp;&nbsp;&nbsp;&nbsp;&nbsp;&nbsp;&nbsp;&nbsp;&nbsp;&nbsp;&nbsp;&nbsp;&nbsp;2&nbsp;&nbsp;&nbsp;&nbsp;&nbsp;&nbsp;&nbsp;&nbsp;&nbsp;&nbsp;&nbsp;&nbsp;&nbsp;&nbsp;&nbsp;&nbsp;&nbsp;&nbsp;&nbsp;3&nbsp;&nbsp;&nbsp;&nbsp;&nbsp;&nbsp;&nbsp;&nbsp;&nbsp;&nbsp;&nbsp;&nbsp;&nbsp;&nbsp;&nbsp;&nbsp;&nbsp;&nbsp;&nbsp;4</p><p style=""font-size:14px"">Not at all familiar&nbsp;&nbsp;&nbsp;&nbsp;A little familiar&nbsp;&nbsp;&nbsp;Moderately familiar&nbsp;&nbsp;&nbsp;Extremely familiar</p><p>(press the corresponding number on your keyboard)</p>","","52","","","FAM-RESPONSE","","","","","","","","sounds/B/FAM/P004.mp3","partword","","","","","","","","","","","","","","","","","","","",""
"html-keyboard-response","238","1178327","0.0-7.0-1.0-0.6","2","0","q5zt6us26ozganm","","null","","","","null","","","","","","","","","","","","","","","","","","","","","","","","","","","","","","","",""
"audio-keyboard-response","239","1179269","0.0-7.0-1.0-1.6","2","0","q5zt6us26ozganm","","null","","sounds/B/FAM/N003.mp3","","null","","","","","","","","","","","","","","","","","","","","","","","","","","","","","","","",""
"html-keyboard-response","240","1179883","0.0-7.0-1.0-2.6","2","0","q5zt6us26ozganm","","110.69999999925494","","<p>How familiar did this sound to you?</p><p>1&nbsp;&nbsp;&nbsp;&nbsp;&nbsp;&nbsp;&nbsp;&nbsp;&nbsp;&nbsp;&nbsp;&nbsp;&nbsp;&nbsp;&nbsp;&nbsp;&nbsp;&nbsp;&nbsp;2&nbsp;&nbsp;&nbsp;&nbsp;&nbsp;&nbsp;&nbsp;&nbsp;&nbsp;&nbsp;&nbsp;&nbsp;&nbsp;&nbsp;&nbsp;&nbsp;&nbsp;&nbsp;&nbsp;3&nbsp;&nbsp;&nbsp;&nbsp;&nbsp;&nbsp;&nbsp;&nbsp;&nbsp;&nbsp;&nbsp;&nbsp;&nbsp;&nbsp;&nbsp;&nbsp;&nbsp;&nbsp;&nbsp;4</p><p style=""font-size:14px"">Not at all familiar&nbsp;&nbsp;&nbsp;&nbsp;A little familiar&nbsp;&nbsp;&nbsp;Moderately familiar&nbsp;&nbsp;&nbsp;Extremely familiar</p><p>(press the corresponding number on your keyboard)</p>","","52","","","FAM-RESPONSE","","","","","","","","sounds/B/FAM/N003.mp3","nonword","","","","","","","","","","","","","","","","","","","",""
"html-keyboard-response","241","1181889","0.0-7.0-1.0-0.7","2","0","q5zt6us26ozganm","","null","","","","null","","","","","","","","","","","","","","","","","","","","","","","","","","","","","","","",""
"audio-keyboard-response","242","1182831","0.0-7.0-1.0-1.7","2","0","q5zt6us26ozganm","","null","","sounds/B/FAM/W002.mp3","","null","","","","","","","","","","","","","","","","","","","","","","","","","","","","","","","",""
"html-keyboard-response","243","1220207","0.0-7.0-1.0-2.7","2","0","q5zt6us26ozganm","","36871.79999999702","","<p>How familiar did this sound to you?</p><p>1&nbsp;&nbsp;&nbsp;&nbsp;&nbsp;&nbsp;&nbsp;&nbsp;&nbsp;&nbsp;&nbsp;&nbsp;&nbsp;&nbsp;&nbsp;&nbsp;&nbsp;&nbsp;&nbsp;2&nbsp;&nbsp;&nbsp;&nbsp;&nbsp;&nbsp;&nbsp;&nbsp;&nbsp;&nbsp;&nbsp;&nbsp;&nbsp;&nbsp;&nbsp;&nbsp;&nbsp;&nbsp;&nbsp;3&nbsp;&nbsp;&nbsp;&nbsp;&nbsp;&nbsp;&nbsp;&nbsp;&nbsp;&nbsp;&nbsp;&nbsp;&nbsp;&nbsp;&nbsp;&nbsp;&nbsp;&nbsp;&nbsp;4</p><p style=""font-size:14px"">Not at all familiar&nbsp;&nbsp;&nbsp;&nbsp;A little familiar&nbsp;&nbsp;&nbsp;Moderately familiar&nbsp;&nbsp;&nbsp;Extremely familiar</p><p>(press the corresponding number on your keyboard)</p>","","52","","","FAM-RESPONSE","","","","","","","","sounds/B/FAM/W002.mp3","word","","","","","","","","","","","","","","","","","","","",""
"html-keyboard-response","244","1222215","0.0-7.0-1.0-0.8","2","0","q5zt6us26ozganm","","null","","","","null","","","","","","","","","","","","","","","","","","","","","","","","","","","","","","","",""
"audio-keyboard-response","245","1223423","0.0-7.0-1.0-1.8","2","0","q5zt6us26ozganm","","null","","sounds/B/FAM/W001.mp3","","null","","","","","","","","","","","","","","","","","","","","","","","","","","","","","","","",""
"html-keyboard-response","246","1224879","0.0-7.0-1.0-2.8","2","0","q5zt6us26ozganm","","952.7000000029802","","<p>How familiar did this sound to you?</p><p>1&nbsp;&nbsp;&nbsp;&nbsp;&nbsp;&nbsp;&nbsp;&nbsp;&nbsp;&nbsp;&nbsp;&nbsp;&nbsp;&nbsp;&nbsp;&nbsp;&nbsp;&nbsp;&nbsp;2&nbsp;&nbsp;&nbsp;&nbsp;&nbsp;&nbsp;&nbsp;&nbsp;&nbsp;&nbsp;&nbsp;&nbsp;&nbsp;&nbsp;&nbsp;&nbsp;&nbsp;&nbsp;&nbsp;3&nbsp;&nbsp;&nbsp;&nbsp;&nbsp;&nbsp;&nbsp;&nbsp;&nbsp;&nbsp;&nbsp;&nbsp;&nbsp;&nbsp;&nbsp;&nbsp;&nbsp;&nbsp;&nbsp;4</p><p style=""font-size:14px"">Not at all familiar&nbsp;&nbsp;&nbsp;&nbsp;A little familiar&nbsp;&nbsp;&nbsp;Moderately familiar&nbsp;&nbsp;&nbsp;Extremely familiar</p><p>(press the corresponding number on your keyboard)</p>","","52","","","FAM-RESPONSE","","","","","","","","sounds/B/FAM/W001.mp3","word","","","","","","","","","","","","","","","","","","","",""
"html-keyboard-response","247","1226885","0.0-7.0-1.0-0.9","2","0","q5zt6us26ozganm","","null","","","","null","","","","","","","","","","","","","","","","","","","","","","","","","","","","","","","",""
"audio-keyboard-response","248","1227829","0.0-7.0-1.0-1.9","2","0","q5zt6us26ozganm","","null","","sounds/B/FAM/N004.mp3","","null","","","","","","","","","","","","","","","","","","","","","","","","","","","","","","","",""
"html-keyboard-response","249","1240442","0.0-7.0-1.0-2.9","2","0","q5zt6us26ozganm","","12112","","<p>How familiar did this sound to you?</p><p>1&nbsp;&nbsp;&nbsp;&nbsp;&nbsp;&nbsp;&nbsp;&nbsp;&nbsp;&nbsp;&nbsp;&nbsp;&nbsp;&nbsp;&nbsp;&nbsp;&nbsp;&nbsp;&nbsp;2&nbsp;&nbsp;&nbsp;&nbsp;&nbsp;&nbsp;&nbsp;&nbsp;&nbsp;&nbsp;&nbsp;&nbsp;&nbsp;&nbsp;&nbsp;&nbsp;&nbsp;&nbsp;&nbsp;3&nbsp;&nbsp;&nbsp;&nbsp;&nbsp;&nbsp;&nbsp;&nbsp;&nbsp;&nbsp;&nbsp;&nbsp;&nbsp;&nbsp;&nbsp;&nbsp;&nbsp;&nbsp;&nbsp;4</p><p style=""font-size:14px"">Not at all familiar&nbsp;&nbsp;&nbsp;&nbsp;A little familiar&nbsp;&nbsp;&nbsp;Moderately familiar&nbsp;&nbsp;&nbsp;Extremely familiar</p><p>(press the corresponding number on your keyboard)</p>","","52","","","FAM-RESPONSE","","","","","","","","sounds/B/FAM/N004.mp3","nonword","","","","","","","","","","","","","","","","","","","",""
"html-keyboard-response","250","1242447","0.0-7.0-1.0-0.10","2","0","q5zt6us26ozganm","","null","","","","null","","","","","","","","","","","","","","","","","","","","","","","","","","","","","","","",""
"audio-keyboard-response","251","1243391","0.0-7.0-1.0-1.10","2","0","q5zt6us26ozganm","","null","","sounds/B/FAM/P001.mp3","","null","","","","","","","","","","","","","","","","","","","","","","","","","","","","","","","",""
"html-keyboard-response","252","1245026","0.0-7.0-1.0-2.10","2","0","q5zt6us26ozganm","","1133.5","","<p>How familiar did this sound to you?</p><p>1&nbsp;&nbsp;&nbsp;&nbsp;&nbsp;&nbsp;&nbsp;&nbsp;&nbsp;&nbsp;&nbsp;&nbsp;&nbsp;&nbsp;&nbsp;&nbsp;&nbsp;&nbsp;&nbsp;2&nbsp;&nbsp;&nbsp;&nbsp;&nbsp;&nbsp;&nbsp;&nbsp;&nbsp;&nbsp;&nbsp;&nbsp;&nbsp;&nbsp;&nbsp;&nbsp;&nbsp;&nbsp;&nbsp;3&nbsp;&nbsp;&nbsp;&nbsp;&nbsp;&nbsp;&nbsp;&nbsp;&nbsp;&nbsp;&nbsp;&nbsp;&nbsp;&nbsp;&nbsp;&nbsp;&nbsp;&nbsp;&nbsp;4</p><p style=""font-size:14px"">Not at all familiar&nbsp;&nbsp;&nbsp;&nbsp;A little familiar&nbsp;&nbsp;&nbsp;Moderately familiar&nbsp;&nbsp;&nbsp;Extremely familiar</p><p>(press the corresponding number on your keyboard)</p>","","52","","","FAM-RESPONSE","","","","","","","","sounds/B/FAM/P001.mp3","partword","","","","","","","","","","","","","","","","","","","",""
"html-keyboard-response","253","1247033","0.0-7.0-1.0-0.11","2","0","q5zt6us26ozganm","","null","","","","null","","","","","","","","","","","","","","","","","","","","","","","","","","","","","","","",""
"audio-keyboard-response","254","1247977","0.0-7.0-1.0-1.11","2","0","q5zt6us26ozganm","","null","","sounds/B/FAM/P002.mp3","","null","","","","","","","","","","","","","","","","","","","","","","","","","","","","","","","",""
"html-keyboard-response","255","1249798","0.0-7.0-1.0-2.11","2","0","q5zt6us26ozganm","","1318.800000000745","","<p>How familiar did this sound to you?</p><p>1&nbsp;&nbsp;&nbsp;&nbsp;&nbsp;&nbsp;&nbsp;&nbsp;&nbsp;&nbsp;&nbsp;&nbsp;&nbsp;&nbsp;&nbsp;&nbsp;&nbsp;&nbsp;&nbsp;2&nbsp;&nbsp;&nbsp;&nbsp;&nbsp;&nbsp;&nbsp;&nbsp;&nbsp;&nbsp;&nbsp;&nbsp;&nbsp;&nbsp;&nbsp;&nbsp;&nbsp;&nbsp;&nbsp;3&nbsp;&nbsp;&nbsp;&nbsp;&nbsp;&nbsp;&nbsp;&nbsp;&nbsp;&nbsp;&nbsp;&nbsp;&nbsp;&nbsp;&nbsp;&nbsp;&nbsp;&nbsp;&nbsp;4</p><p style=""font-size:14px"">Not at all familiar&nbsp;&nbsp;&nbsp;&nbsp;A little familiar&nbsp;&nbsp;&nbsp;Moderately familiar&nbsp;&nbsp;&nbsp;Extremely familiar</p><p>(press the corresponding number on your keyboard)</p>","","52","","","FAM-RESPONSE","","","","","","","","sounds/B/FAM/P002.mp3","partword","","","","","","","","","","","","","","","","","","","",""
"html-button-response","256","1264230","0.0-8.0-0.0","2","0","q5zt6us26ozganm","","13425.10000000149","","<p>You will now listen to longer sound sequences.</p><p>Each sound sequence will last about 16 seconds.</p><p>On each trial, you will be given a <u>TARGET SOUND</u>. Your task is to listen very carefully for this sound.</p><p>Every time you hear the <u>TARGET SOUND</u>, you will press the <b>SPACEBAR</b> as quickly and accurately as you can.</p>","0","","","","","","","","","","","","","","","","","","","","","","","","","","","","","","","","",""
"html-button-response","257","1297887","0.0-8.0-1.0","2","0","q5zt6us26ozganm","","33401.39999999851","","<p>It is very important that you make your responses as quickly and accurately as possible.</p><p>To help you make your responses, you will be able to listen to the <u>TARGET SOUND</u> at the beginning of each trial.</p><p>There will be 36 total trials.</p><p><b>Note: This is meant to be a difficult task. We simply want you to try your best.</p>","0","","","","","","","","","","","","","","","","","","","","","","","","","","","","","","","","",""
"html-button-response","258","1299759","0.0-8.0-2.0-0.0","2","0","q5zt6us26ozganm","","1615.5","","<p>Trial 1 of 36</p>","0","","","","","","","","","","","","","","ME","sounds/syllables/me_SWS.wav","3900,5700,7500,11100","2","","","","","","","","","","","","","","","",""
"html-keyboard-response","259","1305545","0.0-8.0-2.0-1.0","2","0","q5zt6us26ozganm","","5783.699999999255","","","","80","","","","","","","","","","","","","ME","","3900,5700,7500,11100","2","","","","","","","","","","","","","","","",""
"audio-keyboard-response","260","1306303","0.0-8.0-2.0-2.0-0.0","2","0","q5zt6us26ozganm","","null","","sounds/syllables/me_SWS.wav","","null","","","","","","","","","","","","","","","","","","","","","","","","","","","","","","","",""
"html-keyboard-response","261","1309756","0.0-8.0-2.0-2.0-1.0","2","0","q5zt6us26ozganm","","3451.300000000745","","<p>To replay the <u>TARGET SOUND</u>, press P.</p> When you are ready to begin, press SPACEBAR.","","32","","","","","","","","","","","","","","","","","","","","","","","","","","","","","","","",""
"audio-keyboard-response","262","1324708","0.0-8.0-2.0-3.0","2","0","q5zt6us26ozganm","","1616","","sounds/B/TD/ME_10_TD.mp3","","32","","","TD_SUMMARY","","","","","","","","","","ME","","3900,5700,7500,11100","2","3900","5700","7500","11100","1180.2000000029802","null","null","null","1615.1000000014901_2269.2000000029802_3118.400000002235_3682.300000000745_5080.20000000298_5264.10000000149_5424.400000002235_10489.400000002235_13634.5","1","","","","","",""
"html-button-response","263","1348273","0.0-8.0-2.0-0.1","2","0","q5zt6us26ozganm","","23561.10000000149","","<p>Trial 2 of 36</p>","0","","","","","","","","","","","","","","FU","sounds/syllables/fu_SWS.wav","900,6300,8100,12600","1","","","","","","","","","","","","","","","",""
"html-keyboard-response","264","1352486","0.0-8.0-2.0-1.1","2","0","q5zt6us26ozganm","","4210.10000000149","","","","80","","","","","","","","","","","","","FU","","900,6300,8100,12600","1","","","","","","","","","","","","","","","",""
"audio-keyboard-response","265","1352787","0.0-8.0-2.0-2.1-0.1","2","0","q5zt6us26ozganm","","null","","sounds/syllables/fu_SWS.wav","","null","","","","","","","","","","","","","","","","","","","","","","","","","","","","","","","",""
"html-keyboard-response","266","1357035","0.0-8.0-2.0-2.1-1.1","2","0","q5zt6us26ozganm","","4247","","<p>To replay the <u>TARGET SOUND</u>, press P.</p> When you are ready to begin, press SPACEBAR.","","80","","","","","","","","","","","","","","","","","","","","","","","","","","","","","","","",""
"audio-keyboard-response","267","1357837","0.0-8.0-2.0-2.2-0.2","2","0","q5zt6us26ozganm","","null","","sounds/syllables/fu_SWS.wav","","null","","","","","","","","","","","","","","","","","","","","","","","","","","","","","","","",""
"html-keyboard-response","268","1376537","0.0-8.0-2.0-2.2-1.2","2","0","q5zt6us26ozganm","","18699.10000000149","","<p>To replay the <u>TARGET SOUND</u>, press P.</p> When you are ready to begin, press SPACEBAR.","","80","","","","","","","","","","","","","","","","","","","","","","","","","","","","","","","",""
"audio-keyboard-response","269","1377341","0.0-8.0-2.0-2.3-0.3","2","0","q5zt6us26ozganm","","null","","sounds/syllables/fu_SWS.wav","","null","","","","","","","","","","","","","","","","","","","","","","","","","","","","","","","",""
"html-keyboard-response","270","1379017","0.0-8.0-2.0-2.3-1.3","2","0","q5zt6us26ozganm","","1675.800000000745","","<p>To replay the <u>TARGET SOUND</u>, press P.</p> When you are ready to begin, press SPACEBAR.","","80","","","","","","","","","","","","","","","","","","","","","","","","","","","","","","","",""
"audio-keyboard-response","271","1379821","0.0-8.0-2.0-2.4-0.4","2","0","q5zt6us26ozganm","","null","","sounds/syllables/fu_SWS.wav","","null","","","","","","","","","","","","","","","","","","","","","","","","","","","","","","","",""
"html-keyboard-response","272","1380916","0.0-8.0-2.0-2.4-1.4","2","0","q5zt6us26ozganm","","1093.800000000745","","<p>To replay the <u>TARGET SOUND</u>, press P.</p> When you are ready to begin, press SPACEBAR.","","80","","","","","","","","","","","","","","","","","","","","","","","","","","","","","","","",""
"audio-keyboard-response","273","1381719","0.0-8.0-2.0-2.5-0.5","2","0","q5zt6us26ozganm","","null","","sounds/syllables/fu_SWS.wav","","null","","","","","","","","","","","","","","","","","","","","","","","","","","","","","","","",""
"html-keyboard-response","274","1383165","0.0-8.0-2.0-2.5-1.5","2","0","q5zt6us26ozganm","","1444.199999999255","","<p>To replay the <u>TARGET SOUND</u>, press P.</p> When you are ready to begin, press SPACEBAR.","","80","","","","","","","","","","","","","","","","","","","","","","","","","","","","","","","",""
"audio-keyboard-response","275","1383970","0.0-8.0-2.0-2.6-0.6","2","0","q5zt6us26ozganm","","null","","sounds/syllables/fu_SWS.wav","","null","","","","","","","","","","","","","","","","","","","","","","","","","","","","","","","",""
"html-keyboard-response","276","1385637","0.0-8.0-2.0-2.6-1.6","2","0","q5zt6us26ozganm","","1665.3999999985099","","<p>To replay the <u>TARGET SOUND</u>, press P.</p> When you are ready to begin, press SPACEBAR.","","32","","","","","","","","","","","","","","","","","","","","","","","","","","","","","","","",""
"audio-keyboard-response","277","1400588","0.0-8.0-2.0-3.1","2","0","q5zt6us26ozganm","","1845","","sounds/B/TD/FU_04_TD.mp3","","32","","","TD_SUMMARY","","","","","","","","","","FU","","900,6300,8100,12600","1","900","6300","8100","12600","948.9000000022352","null","null","880","_________1848.9000000022352_2776.5_4013.800000000745_5235.900000002235_7921.10000000149_8244_11041.10000000149_13480","6","","","","","",""
"html-button-response","278","1401696","0.0-8.0-2.0-0.2","2","0","q5zt6us26ozganm","","1105.199999999255","","<p>Trial 3 of 36</p>","0","","","","","","","","","","","","","","TI","sounds/syllables/ti_SWS.wav","900,2700,5400,10800","1","","","","","","","","","","","","","","","",""
"html-keyboard-response","279","1405799","0.0-8.0-2.0-1.2","2","0","q5zt6us26ozganm","","4101.199999999255","","","","80","","","","","","","","","","","","","TI","","900,2700,5400,10800","1","","","","","","","","","","","","","","","",""
"audio-keyboard-response","280","1406102","0.0-8.0-2.0-2.7-0.7","2","0","q5zt6us26ozganm","","null","","sounds/syllables/ti_SWS.wav","","null","","","","","","","","","","","","","","","","","","","","","","","","","","","","","","","",""
"html-keyboard-response","281","1412770","0.0-8.0-2.0-2.7-1.7","2","0","q5zt6us26ozganm","","6666.300000000745","","<p>To replay the <u>TARGET SOUND</u>, press P.</p> When you are ready to begin, press SPACEBAR.","","80","","","","","","","","","","","","","","","","","","","","","","","","","","","","","","","",""
"audio-keyboard-response","282","1413574","0.0-8.0-2.0-2.8-0.8","2","0","q5zt6us26ozganm","","null","","sounds/syllables/ti_SWS.wav","","null","","","","","","","","","","","","","","","","","","","","","","","","","","","","","","","",""
"html-keyboard-response","283","1415111","0.0-8.0-2.0-2.8-1.8","2","0","q5zt6us26ozganm","","1535.5","","<p>To replay the <u>TARGET SOUND</u>, press P.</p> When you are ready to begin, press SPACEBAR.","","32","","","","","","","","","","","","","","","","","","","","","","","","","","","","","","","",""
"audio-keyboard-response","284","1430059","0.0-8.0-2.0-3.2","2","0","q5zt6us26ozganm","","2395","","sounds/B/TD/TI_05_TD.mp3","","32","","","TD_SUMMARY","","","","","","","","","","TI","","900,2700,5400,10800","1","900","2700","5400","10800","null","null","null","null","_________________2394.800000000745_5436.300000000745_12069_13788.800000000745","2","","","","","",""
"html-button-response","285","1430969","0.0-8.0-2.0-0.3","2","0","q5zt6us26ozganm","","906.4000000022352","","<p>Trial 4 of 36</p>","0","","","","","","","","","","","","","","TA","sounds/syllables/ta_SWS.wav","2400,4200,6000,10500","3","","","","","","","","","","","","","","","",""
"html-keyboard-response","286","1433500","0.0-8.0-2.0-1.3","2","0","q5zt6us26ozganm","","2529.89999999851","","","","80","","","","","","","","","","","","","TA","","2400,4200,6000,10500","3","","","","","","","","","","","","","","","",""
"audio-keyboard-response","287","1433803","0.0-8.0-2.0-2.9-0.9","2","0","q5zt6us26ozganm","","null","","sounds/syllables/ta_SWS.wav","","null","","","","","","","","","","","","","","","","","","","","","","","","","","","","","","","",""
"html-keyboard-response","288","1434824","0.0-8.0-2.0-2.9-1.9","2","0","q5zt6us26ozganm","","1020.4000000022352","","<p>To replay the <u>TARGET SOUND</u>, press P.</p> When you are ready to begin, press SPACEBAR.","","32","","","","","","","","","","","","","","","","","","","","","","","","","","","","","","","",""
"audio-keyboard-response","289","1449771","0.0-8.0-2.0-3.3","2","0","q5zt6us26ozganm","","6779","","sounds/B/TD/TA_06_TD.mp3","","32","","","TD_SUMMARY","","","","","","","","","","TA","","2400,4200,6000,10500","3","2400","4200","6000","10500","null","null","777.1000000014901","1027.199999999255","_____________________6777.10000000149_8102.5_10197.300000000745_11527.199999999255_12925.60000000149","1","","","","","",""
"html-button-response","290","1450873","0.0-8.0-2.0-0.4","2","0","q5zt6us26ozganm","","1099.300000000745","","<p>Trial 5 of 36</p>","0","","","","","","","","","","","","","","GE","sounds/syllables/ge_SWS.wav","900,4500,6300,10800","1","","","","","","","","","","","","","","","",""
"html-keyboard-response","291","1456064","0.0-8.0-2.0-1.4","2","0","q5zt6us26ozganm","","5189.099999997765","","","","80","","","","","","","","","","","","","GE","","900,4500,6300,10800","1","","","","","","","","","","","","","","","",""
"audio-keyboard-response","292","1456367","0.0-8.0-2.0-2.10-0.10","2","0","q5zt6us26ozganm","","null","","sounds/syllables/ge_SWS.wav","","null","","","","","","","","","","","","","","","","","","","","","","","","","","","","","","","",""
"html-keyboard-response","293","1457527","0.0-8.0-2.0-2.10-1.10","2","0","q5zt6us26ozganm","","1158.5","","<p>To replay the <u>TARGET SOUND</u>, press P.</p> When you are ready to begin, press SPACEBAR.","","80","","","","","","","","","","","","","","","","","","","","","","","","","","","","","","","",""
"audio-keyboard-response","294","1458330","0.0-8.0-2.0-2.11-0.11","2","0","q5zt6us26ozganm","","null","","sounds/syllables/ge_SWS.wav","","null","","","","","","","","","","","","","","","","","","","","","","","","","","","","","","","",""
"html-keyboard-response","295","1459431","0.0-8.0-2.0-2.11-1.11","2","0","q5zt6us26ozganm","","1099.699999999255","","<p>To replay the <u>TARGET SOUND</u>, press P.</p> When you are ready to begin, press SPACEBAR.","","80","","","","","","","","","","","","","","","","","","","","","","","","","","","","","","","",""
"audio-keyboard-response","296","1460234","0.0-8.0-2.0-2.12-0.12","2","0","q5zt6us26ozganm","","null","","sounds/syllables/ge_SWS.wav","","null","","","","","","","","","","","","","","","","","","","","","","","","","","","","","","","",""
"html-keyboard-response","297","1460968","0.0-8.0-2.0-2.12-1.12","2","0","q5zt6us26ozganm","","732.6000000014901","","<p>To replay the <u>TARGET SOUND</u>, press P.</p> When you are ready to begin, press SPACEBAR.","","80","","","","","","","","","","","","","","","","","","","","","","","","","","","","","","","",""
"audio-keyboard-response","298","1461770","0.0-8.0-2.0-2.13-0.13","2","0","q5zt6us26ozganm","","null","","sounds/syllables/ge_SWS.wav","","null","","","","","","","","","","","","","","","","","","","","","","","","","","","","","","","",""
"html-keyboard-response","299","1462109","0.0-8.0-2.0-2.13-1.13","2","0","q5zt6us26ozganm","","337.19999999925494","","<p>To replay the <u>TARGET SOUND</u>, press P.</p> When you are ready to begin, press SPACEBAR.","","32","","","","","","","","","","","","","","","","","","","","","","","","","","","","","","","",""
"audio-keyboard-response","300","1477060","0.0-8.0-2.0-3.4","2","0","q5zt6us26ozganm","","1195","","sounds/B/TD/GE_07_TD.mp3","","32","","","TD_SUMMARY","","","","","","","","","","GE","","900,4500,6300,10800","1","900","4500","6300","10800","299.80000000074506","1047.1000000014901","null","null","__________________________1199.800000000745_3427.900000002235_5547.10000000149_8083.10000000149_9942.70000000298_12107_14039.400000002235","4","","","","","",""
"html-button-response","301","1478322","0.0-8.0-2.0-0.5","2","0","q5zt6us26ozganm","","1258.300000000745","","<p>Trial 6 of 36</p>","0","","","","","","","","","","","","","","NI","sounds/syllables/ni_SWS.wav","3000,8400,10200,12900","2","","","","","","","","","","","","","","","",""
"html-keyboard-response","302","1486056","0.0-8.0-2.0-1.5","2","0","q5zt6us26ozganm","","7732.5","","","","80","","","","","","","","","","","","","NI","","3000,8400,10200,12900","2","","","","","","","","","","","","","","","",""
"audio-keyboard-response","303","1486361","0.0-8.0-2.0-2.14-0.14","2","0","q5zt6us26ozganm","","null","","sounds/syllables/ni_SWS.wav","","null","","","","","","","","","","","","","","","","","","","","","","","","","","","","","","","",""
"html-keyboard-response","304","1486401","0.0-8.0-2.0-2.14-1.14","2","0","q5zt6us26ozganm","","39.400000002235174","","<p>To replay the <u>TARGET SOUND</u>, press P.</p> When you are ready to begin, press SPACEBAR.","","32","","","","","","","","","","","","","","","","","","","","","","","","","","","","","","","",""
"audio-keyboard-response","305","1501353","0.0-8.0-2.0-3.5","2","0","q5zt6us26ozganm","","3136","","sounds/B/TD/NI_04_TD.mp3","","32","","","TD_SUMMARY","","","","","","","","","","NI","","3000,8400,10200,12900","2","3000","8400","10200","12900","null","null","null","287.0999999977648","_________________________________3137.5_7114.699999999255_9628.5_13187.099999997765","1","","","","","",""
"html-button-response","306","1503716","0.0-8.0-2.0-0.6","2","0","q5zt6us26ozganm","","2359.900000002235","","<p>Trial 7 of 36</p>","0","","","","","","","","","","","","","","RE","sounds/syllables/re_SWS.wav","3300,5100,7800,9600","3","","","","","","","","","","","","","","","",""
"html-keyboard-response","307","1505663","0.0-8.0-2.0-1.6","2","0","q5zt6us26ozganm","","1945.5","","","","80","","","","","","","","","","","","","RE","","3300,5100,7800,9600","3","","","","","","","","","","","","","","","",""
"audio-keyboard-response","308","1505966","0.0-8.0-2.0-2.15-0.15","2","0","q5zt6us26ozganm","","null","","sounds/syllables/re_SWS.wav","","null","","","","","","","","","","","","","","","","","","","","","","","","","","","","","","","",""
"html-keyboard-response","309","1508042","0.0-8.0-2.0-2.15-1.15","2","0","q5zt6us26ozganm","","2075.10000000149","","<p>To replay the <u>TARGET SOUND</u>, press P.</p> When you are ready to begin, press SPACEBAR.","","80","","","","","","","","","","","","","","","","","","","","","","","","","","","","","","","",""
"audio-keyboard-response","310","1508845","0.0-8.0-2.0-2.16-0.16","2","0","q5zt6us26ozganm","","null","","sounds/syllables/re_SWS.wav","","null","","","","","","","","","","","","","","","","","","","","","","","","","","","","","","","",""
"html-keyboard-response","311","1509106","0.0-8.0-2.0-2.16-1.16","2","0","q5zt6us26ozganm","","260.19999999925494","","<p>To replay the <u>TARGET SOUND</u>, press P.</p> When you are ready to begin, press SPACEBAR.","","32","","","","","","","","","","","","","","","","","","","","","","","","","","","","","","","",""
"audio-keyboard-response","312","1524056","0.0-8.0-2.0-3.6","2","0","q5zt6us26ozganm","","1893","","sounds/B/TD/RE_05_TD.mp3","","32","","","TD_SUMMARY","","","","","","","","","","RE","","3300,5100,7800,9600","3","3300","5100","7800","9600","980.7000000029802","369.70000000298023","578.6000000014901","null","_____________________________________1892.5_4280.70000000298_5469.70000000298_7064.800000000745_8378.60000000149_9412.300000000745_11089.60000000149_12865.900000002235_14337.900000002235","2","","","","","",""
"html-button-response","313","1524921","0.0-8.0-2.0-0.7","2","0","q5zt6us26ozganm","","861.3000000007451","","<p>Trial 8 of 36</p>","0","","","","","","","","","","","","","","KO","sounds/syllables/ko_SWS.wav","3900,5700,8400,12900","2","","","","","","","","","","","","","","","",""
"html-keyboard-response","314","1526437","0.0-8.0-2.0-1.7","2","0","q5zt6us26ozganm","","1513.8999999985099","","","","80","","","","","","","","","","","","","KO","","3900,5700,8400,12900","2","","","","","","","","","","","","","","","",""
"audio-keyboard-response","315","1526738","0.0-8.0-2.0-2.17-0.17","2","0","q5zt6us26ozganm","","null","","sounds/syllables/ko_SWS.wav","","null","","","","","","","","","","","","","","","","","","","","","","","","","","","","","","","",""
"html-keyboard-response","316","1527362","0.0-8.0-2.0-2.17-1.17","2","0","q5zt6us26ozganm","","623.1999999992549","","<p>To replay the <u>TARGET SOUND</u>, press P.</p> When you are ready to begin, press SPACEBAR.","","32","","","","","","","","","","","","","","","","","","","","","","","","","","","","","","","",""
"audio-keyboard-response","317","1542311","0.0-8.0-2.0-3.7","2","0","q5zt6us26ozganm","","2315","","sounds/B/TD/KO_05_TD.mp3","","32","","","TD_SUMMARY","","","","","","","","","","KO","","3900,5700,8400,12900","2","3900","5700","8400","12900","638.8000000007451","null","448.30000000074506","624.1999999992549","______________________________________________2313.699999999255_4538.800000000745_8848.300000000745_10324.300000000745_12505.199999999255_13524.199999999255","1","","","","","",""
"html-button-response","318","1543463","0.0-8.0-2.0-0.8","2","0","q5zt6us26ozganm","","1147.8999999985099","","<p>Trial 9 of 36</p>","0","","","","","","","","","","","","","","GE","sounds/syllables/ge_SWS.wav","900,5400,9000,12600","1","","","","","","","","","","","","","","","",""
"html-keyboard-response","319","1545837","0.0-8.0-2.0-1.8","2","0","q5zt6us26ozganm","","2372.60000000149","","","","80","","","","","","","","","","","","","GE","","900,5400,9000,12600","1","","","","","","","","","","","","","","","",""
"audio-keyboard-response","320","1546140","0.0-8.0-2.0-2.18-0.18","2","0","q5zt6us26ozganm","","null","","sounds/syllables/ge_SWS.wav","","null","","","","","","","","","","","","","","","","","","","","","","","","","","","","","","","",""
"html-keyboard-response","321","1547020","0.0-8.0-2.0-2.18-1.18","2","0","q5zt6us26ozganm","","877.9000000022352","","<p>To replay the <u>TARGET SOUND</u>, press P.</p> When you are ready to begin, press SPACEBAR.","","32","","","","","","","","","","","","","","","","","","","","","","","","","","","","","","","",""
"audio-keyboard-response","322","1561969","0.0-8.0-2.0-3.8","2","0","q5zt6us26ozganm","","2181","","sounds/B/TD/GE_10_TD.mp3","","32","","","TD_SUMMARY","","","","","","","","","","GE","","900,5400,9000,12600","1","900","5400","9000","12600","null","null","317.5999999977648","339","____________________________________________________2183.199999999255_5557.599999997765_7800.79999999702_9317.599999997765_10839.099999997765_12128.099999997765_12939_14242.29999999702","1","","","","","",""
"html-button-response","323","1563473","0.0-8.0-2.0-0.9","2","0","q5zt6us26ozganm","","1500.199999999255","","<p>Trial 10 of 36</p>","0","","","","","","","","","","","","","","SU","sounds/syllables/su_SWS.wav","3000,4800,6600,10200","2","","","","","","","","","","","","","","","",""
"html-keyboard-response","324","1568601","0.0-8.0-2.0-1.9","2","0","q5zt6us26ozganm","","5126.5","","","","80","","","","","","","","","","","","","SU","","3000,4800,6600,10200","2","","","","","","","","","","","","","","","",""
"audio-keyboard-response","325","1568902","0.0-8.0-2.0-2.19-0.19","2","0","q5zt6us26ozganm","","null","","sounds/syllables/su_SWS.wav","","null","","","","","","","","","","","","","","","","","","","","","","","","","","","","","","","",""
"html-keyboard-response","326","1569422","0.0-8.0-2.0-2.19-1.19","2","0","q5zt6us26ozganm","","518.8000000007451","","<p>To replay the <u>TARGET SOUND</u>, press P.</p> When you are ready to begin, press SPACEBAR.","","32","","","","","","","","","","","","","","","","","","","","","","","","","","","","","","","",""
"audio-keyboard-response","327","1584369","0.0-8.0-2.0-3.9","2","0","q5zt6us26ozganm","","2117","","sounds/B/TD/SU_05_TD.mp3","","32","","","TD_SUMMARY","","","","","","","","","","SU","","3000,4800,6600,10200","2","3000","4800","6600","10200","null","null","575.8999999985099","857.0999999977648","____________________________________________________________2116.800000000745_4479.599999997765_7175.89999999851_8833.800000000745_11057.099999997765","1","","","","","",""
"html-button-response","328","1585228","0.0-8.0-2.0-0.10","2","0","q5zt6us26ozganm","","856.6999999992549","","<p>Trial 11 of 36</p>","0","","","","","","","","","","","","","","NI","sounds/syllables/ni_SWS.wav","1200,3900,6600,11100","2","","","","","","","","","","","","","","","",""
"html-keyboard-response","329","1588401","0.0-8.0-2.0-1.10","2","0","q5zt6us26ozganm","","3171.39999999851","","","","80","","","","","","","","","","","","","NI","","1200,3900,6600,11100","2","","","","","","","","","","","","","","","",""
"audio-keyboard-response","330","1588704","0.0-8.0-2.0-2.20-0.20","2","0","q5zt6us26ozganm","","null","","sounds/syllables/ni_SWS.wav","","null","","","","","","","","","","","","","","","","","","","","","","","","","","","","","","","",""
"html-keyboard-response","331","1589374","0.0-8.0-2.0-2.20-1.20","2","0","q5zt6us26ozganm","","668.3000000007451","","<p>To replay the <u>TARGET SOUND</u>, press P.</p> When you are ready to begin, press SPACEBAR.","","32","","","","","","","","","","","","","","","","","","","","","","","","","","","","","","","",""
"audio-keyboard-response","332","1604320","0.0-8.0-2.0-3.10","2","0","q5zt6us26ozganm","","3899","","sounds/B/TD/NI_01_TD.mp3","","32","","","TD_SUMMARY","","","","","","","","","","NI","","1200,3900,6600,11100","2","1200","3900","6600","11100","null","983.1000000014901","null","null","_________________________________________________________________3899_4701.39999999851_4883.10000000149","1","","","","","",""
"html-button-response","333","1605825","0.0-8.0-2.0-0.11","2","0","q5zt6us26ozganm","","1502.0999999977648","","<p>Trial 12 of 36</p>","0","","","","","","","","","","","","","","FE","sounds/syllables/fe_SWS.wav","2400,7800,10500,13200","3","","","","","","","","","","","","","","","",""
"html-keyboard-response","334","1606626","0.0-8.0-2.0-1.11","2","0","q5zt6us26ozganm","","800.1000000014901","","","","80","","","","","","","","","","","","","FE","","2400,7800,10500,13200","3","","","","","","","","","","","","","","","",""
"audio-keyboard-response","335","1606927","0.0-8.0-2.0-2.21-0.21","2","0","q5zt6us26ozganm","","null","","sounds/syllables/fe_SWS.wav","","null","","","","","","","","","","","","","","","","","","","","","","","","","","","","","","","",""
"html-keyboard-response","336","1607628","0.0-8.0-2.0-2.21-1.21","2","0","q5zt6us26ozganm","","699.0999999977648","","<p>To replay the <u>TARGET SOUND</u>, press P.</p> When you are ready to begin, press SPACEBAR.","","32","","","","","","","","","","","","","","","","","","","","","","","","","","","","","","","",""
"audio-keyboard-response","337","1622575","0.0-8.0-2.0-3.11","2","0","q5zt6us26ozganm","","3579","","sounds/B/TD/FE_10_TD.mp3","","32","","","TD_SUMMARY","","","","","","","","","","FE","","2400,7800,10500,13200","3","2400","7800","10500","13200","1180.199999999255","null","360.19999999925494","1186.8999999985099","____________________________________________________________________3580.199999999255_6179.5_7987.199999999255_10860.199999999255_12468.199999999255_14386.89999999851","1","","","","","",""
