"trial_type","trial_index","time_elapsed","internal_node_id","counterbalance","lang_instruct","ParticipantID","view_history","rt","url","stimulus","button_pressed","key_press","correctRESP","correct","designation","location","correctanswer","timeouts","pause_rt01","pause_rt02","train_file","numKeyPress","sound","fam_type","SYLLABLE","EXEMPLAR","TD_LOCS","TD_TYPE","TDLOC_01","TDLOC_02","TDLOC_03","TDLOC_04","TD_RT_01","TD_RT_02","TD_RT_03","TD_RT_04","TD_SUBJ_RTs","number_of_plays","responses","slider_start","response","question_order","syllable","syllable_type"
"pavlovia","0","3","0.0-0.0","3","0","yw6fql9fvdaz19b","","","","","","","","","","","","","","","","","","","","","","","","","","","","","","","","","","","","","",""
"instructions","1","193040","0.0-1.0","3","0","yw6fql9fvdaz19b","[{""page_index"":0,""viewing_time"":5357.89999999851},{""page_index"":1,""viewing_time"":187681.6000000015}]","193043.59999999963","","","","","","","","","","","","","","","","","","","","","","","","","","","","","","","","","","","",""
"external-html","2","209362","0.0-2.0","3","0","yw6fql9fvdaz19b","","15056","consent/consent.html","","","","","","","","","","","","","","","","","","","","","","","","","","","","","","","","","","",""
"html-button-response","3","214997","0.0-3.0-0.0-0.0","3","0","yw6fql9fvdaz19b","","5632.60000000149","","<p>Welcome to the study. You will first complete a short volume calibration and headphone check.</p><p>Please make sure you are in a quiet listening environment, that you are wearing headphones, and that your computer's volume is turned on.<p></p>","0","","","","","","","","","","","","","","","","","","","","","","","","","","","","","","","","",""
"html-button-response","4","223279","0.0-3.0-0.0-1.0","3","0","yw6fql9fvdaz19b","","8024.89999999851","","<p>The volume calibration will be first.</p><p>You will hear a thirty-second noise. Please adjust your computer's volume so that this noise is being presented at a comfortable level.<p></p>","0","","","","","","","","","","","","","","","","","","","","","","","","","","","","","","","","",""
"audio-button-response","5","250302","0.0-3.0-0.0-2.0","3","0","yw6fql9fvdaz19b","","26341","","audCalib/volumetest.mp3","0","","","","","","","","","","","","","","","","","","","","","","","","","","","","","","","","",""
"html-button-response","6","262176","0.0-3.0-1.0-0.0","3","0","yw6fql9fvdaz19b","","11872.300000000745","","<p>You will now complete a short headphone check.</p><p>On each trial, you will hear three tones. One of these tones will be quieter than the others. Your task is to identify whether the quiet tone occured first, second, or third.</p><p>There are six trials in total.<p></p>","0","","","","","","","","","","","","","","","","","","","","","","","","","","","","","","","","",""
"html-keyboard-response","7","262938","0.0-3.0-1.0-1.0-0.0","3","0","yw6fql9fvdaz19b","","null","","<div style=""font-size:60px;"">+</div>","","null","","","","","","","","","","","","","","","","","","","","","","","","","","","","","","","",""
"audio-button-response","8","267845","0.0-3.0-1.0-1.0-1.0","3","0","yw6fql9fvdaz19b","","4901","","audCalib/t3_1.mp3","2","","2","1","headphone-test","","","","","","","","","","","","","","","","","","","","","","","","","","","","",""
"html-keyboard-response","9","268604","0.0-3.0-1.0-1.0-0.1","3","0","yw6fql9fvdaz19b","","null","","<div style=""font-size:60px;"">+</div>","","null","","","","","","","","","","","","","","","","","","","","","","","","","","","","","","","",""
"audio-button-response","10","273211","0.0-3.0-1.0-1.0-1.1","3","0","yw6fql9fvdaz19b","","4603","","audCalib/t3_2.mp3","2","","2","1","headphone-test","","","","","","","","","","","","","","","","","","","","","","","","","","","","",""
"html-keyboard-response","11","273971","0.0-3.0-1.0-1.0-0.2","3","0","yw6fql9fvdaz19b","","null","","<div style=""font-size:60px;"">+</div>","","null","","","","","","","","","","","","","","","","","","","","","","","","","","","","","","","",""
"audio-button-response","12","278986","0.0-3.0-1.0-1.0-1.2","3","0","yw6fql9fvdaz19b","","5013","","audCalib/t2_1.mp3","1","","1","1","headphone-test","","","","","","","","","","","","","","","","","","","","","","","","","","","","",""
"html-keyboard-response","13","279747","0.0-3.0-1.0-1.0-0.3","3","0","yw6fql9fvdaz19b","","null","","<div style=""font-size:60px;"">+</div>","","null","","","","","","","","","","","","","","","","","","","","","","","","","","","","","","","",""
"audio-button-response","14","284185","0.0-3.0-1.0-1.0-1.3","3","0","yw6fql9fvdaz19b","","4437","","audCalib/t2_2.mp3","1","","1","1","headphone-test","","","","","","","","","","","","","","","","","","","","","","","","","","","","",""
"html-keyboard-response","15","284946","0.0-3.0-1.0-1.0-0.4","3","0","yw6fql9fvdaz19b","","null","","<div style=""font-size:60px;"">+</div>","","null","","","","","","","","","","","","","","","","","","","","","","","","","","","","","","","",""
"audio-button-response","16","290154","0.0-3.0-1.0-1.0-1.4","3","0","yw6fql9fvdaz19b","","5205","","audCalib/t1_1.mp3","0","","0","1","headphone-test","","","","","","","","","","","","","","","","","","","","","","","","","","","","",""
"html-keyboard-response","17","290911","0.0-3.0-1.0-1.0-0.5","3","0","yw6fql9fvdaz19b","","null","","<div style=""font-size:60px;"">+</div>","","null","","","","","","","","","","","","","","","","","","","","","","","","","","","","","","","",""
"audio-button-response","18","295506","0.0-3.0-1.0-1.0-1.5","3","0","yw6fql9fvdaz19b","","4592","","audCalib/t1_2.mp3","0","","0","1","headphone-test","","","","","","","","","","","","","","","","","","","","","","","","","","","","",""
"html-button-response","19","298071","0.0-3.0-2.0","3","0","yw6fql9fvdaz19b","","2307.800000000745","","<p>The volume calibration and headphone check are now complete.</p>","0","","","","","","","","","","","","","","","","","","","","","","","","","","","","","","","","",""
"instructions","20","325053","0.0-4.0-0.0","3","0","yw6fql9fvdaz19b","[{""page_index"":0,""viewing_time"":2303.60000000149},{""page_index"":1,""viewing_time"":15295.5},{""page_index"":2,""viewing_time"":9381.799999998882}]","26982","","","","","","","","","","","","","","","","","","","","","","","","","","","","","","","","","","","",""
"audio-keyboard-response","21","325373","0.0-4.0-1.0-0.0","3","0","yw6fql9fvdaz19b","","null","","sounds/induction/left_rev/ge_SWS.wav","","null","","","","","","","","","","","","","","","","","","","","","","","","","","","","","","","",""
"html-button-response","22","326942","0.0-4.0-1.0-1.0","3","0","yw6fql9fvdaz19b","","1566.0999999996275","","Was the sound coming from the left or the right?","0","","","1","INDUCTION-JUDGMENT","left","0","","","","","","","","","","","","","","","","","","","","","","","","","","",""
"html-keyboard-response","23","327946","0.0-4.0-1.0-2.0","3","0","yw6fql9fvdaz19b","","null","","<p style=""color:#054d00;""><b>Correct!</b></p>","","null","","","","","","","","","","","","","","","","","","","","","","","","","","","","","","","",""
"audio-keyboard-response","24","328749","0.0-4.0-1.0-0.1","3","0","yw6fql9fvdaz19b","","null","","sounds/induction/right_rev/ti_SWS.wav","","null","","","","","","","","","","","","","","","","","","","","","","","","","","","","","","","",""
"html-button-response","25","329597","0.0-4.0-1.0-1.1","3","0","yw6fql9fvdaz19b","","846.2999999988824","","Was the sound coming from the left or the right?","1","","","1","INDUCTION-JUDGMENT","right","1","","","","","","","","","","","","","","","","","","","","","","","","","","",""
"html-keyboard-response","26","330604","0.0-4.0-1.0-2.1","3","0","yw6fql9fvdaz19b","","null","","<p style=""color:#054d00;""><b>Correct!</b></p>","","null","","","","","","","","","","","","","","","","","","","","","","","","","","","","","","","",""
"audio-keyboard-response","27","331410","0.0-4.0-1.0-0.2","3","0","yw6fql9fvdaz19b","","null","","sounds/induction/right_rev/fu_SWS.wav","","null","","","","","","","","","","","","","","","","","","","","","","","","","","","","","","","",""
"html-button-response","28","332349","0.0-4.0-1.0-1.2","3","0","yw6fql9fvdaz19b","","936.8000000007451","","Was the sound coming from the left or the right?","1","","","1","INDUCTION-JUDGMENT","right","1","","","","","","","","","","","","","","","","","","","","","","","","","","",""
"html-keyboard-response","29","333352","0.0-4.0-1.0-2.2","3","0","yw6fql9fvdaz19b","","null","","<p style=""color:#054d00;""><b>Correct!</b></p>","","null","","","","","","","","","","","","","","","","","","","","","","","","","","","","","","","",""
"audio-keyboard-response","30","334157","0.0-4.0-1.0-0.3","3","0","yw6fql9fvdaz19b","","null","","sounds/induction/left_rev/su_SWS.wav","","null","","","","","","","","","","","","","","","","","","","","","","","","","","","","","","","",""
"html-button-response","31","334882","0.0-4.0-1.0-1.3","3","0","yw6fql9fvdaz19b","","722.7000000011176","","Was the sound coming from the left or the right?","0","","","1","INDUCTION-JUDGMENT","left","0","","","","","","","","","","","","","","","","","","","","","","","","","","",""
"html-keyboard-response","32","335887","0.0-4.0-1.0-2.3","3","0","yw6fql9fvdaz19b","","null","","<p style=""color:#054d00;""><b>Correct!</b></p>","","null","","","","","","","","","","","","","","","","","","","","","","","","","","","","","","","",""
"audio-keyboard-response","33","336690","0.0-4.0-1.0-0.4","3","0","yw6fql9fvdaz19b","","null","","sounds/induction/right_rev/pu_SWS.wav","","null","","","","","","","","","","","","","","","","","","","","","","","","","","","","","","","",""
"html-button-response","34","337342","0.0-4.0-1.0-1.4","3","0","yw6fql9fvdaz19b","","649","","Was the sound coming from the left or the right?","1","","","1","INDUCTION-JUDGMENT","right","1","","","","","","","","","","","","","","","","","","","","","","","","","","",""
"html-keyboard-response","35","338345","0.0-4.0-1.0-2.4","3","0","yw6fql9fvdaz19b","","null","","<p style=""color:#054d00;""><b>Correct!</b></p>","","null","","","","","","","","","","","","","","","","","","","","","","","","","","","","","","","",""
"audio-keyboard-response","36","339154","0.0-4.0-1.0-0.5","3","0","yw6fql9fvdaz19b","","null","","sounds/induction/left_rev/su_SWS.wav","","null","","","","","","","","","","","","","","","","","","","","","","","","","","","","","","","",""
"html-button-response","37","339792","0.0-4.0-1.0-1.5","3","0","yw6fql9fvdaz19b","","636.2000000011176","","Was the sound coming from the left or the right?","0","","","1","INDUCTION-JUDGMENT","left","0","","","","","","","","","","","","","","","","","","","","","","","","","","",""
"html-keyboard-response","38","340795","0.0-4.0-1.0-2.5","3","0","yw6fql9fvdaz19b","","null","","<p style=""color:#054d00;""><b>Correct!</b></p>","","null","","","","","","","","","","","","","","","","","","","","","","","","","","","","","","","",""
"audio-keyboard-response","39","341602","0.0-4.0-1.0-0.6","3","0","yw6fql9fvdaz19b","","null","","sounds/induction/left_rev/ge_SWS.wav","","null","","","","","","","","","","","","","","","","","","","","","","","","","","","","","","","",""
"html-button-response","40","342227","0.0-4.0-1.0-1.6","3","0","yw6fql9fvdaz19b","","623.5999999996275","","Was the sound coming from the left or the right?","0","","","1","INDUCTION-JUDGMENT","left","0","","","","","","","","","","","","","","","","","","","","","","","","","","",""
"html-keyboard-response","41","343231","0.0-4.0-1.0-2.6","3","0","yw6fql9fvdaz19b","","null","","<p style=""color:#054d00;""><b>Correct!</b></p>","","null","","","","","","","","","","","","","","","","","","","","","","","","","","","","","","","",""
"audio-keyboard-response","42","344039","0.0-4.0-1.0-0.7","3","0","yw6fql9fvdaz19b","","null","","sounds/induction/right_rev/ko_SWS.wav","","null","","","","","","","","","","","","","","","","","","","","","","","","","","","","","","","",""
"html-button-response","43","344621","0.0-4.0-1.0-1.7","3","0","yw6fql9fvdaz19b","","579.9000000003725","","Was the sound coming from the left or the right?","1","","","1","INDUCTION-JUDGMENT","right","1","","","","","","","","","","","","","","","","","","","","","","","","","","",""
"html-keyboard-response","44","345623","0.0-4.0-1.0-2.7","3","0","yw6fql9fvdaz19b","","null","","<p style=""color:#054d00;""><b>Correct!</b></p>","","null","","","","","","","","","","","","","","","","","","","","","","","","","","","","","","","",""
"audio-keyboard-response","45","346434","0.0-4.0-1.0-0.8","3","0","yw6fql9fvdaz19b","","null","","sounds/induction/left_rev/me_SWS.wav","","null","","","","","","","","","","","","","","","","","","","","","","","","","","","","","","","",""
"html-button-response","46","346999","0.0-4.0-1.0-1.8","3","0","yw6fql9fvdaz19b","","563.6999999992549","","Was the sound coming from the left or the right?","0","","","1","INDUCTION-JUDGMENT","left","0","","","","","","","","","","","","","","","","","","","","","","","","","","",""
"html-keyboard-response","47","348003","0.0-4.0-1.0-2.8","3","0","yw6fql9fvdaz19b","","null","","<p style=""color:#054d00;""><b>Correct!</b></p>","","null","","","","","","","","","","","","","","","","","","","","","","","","","","","","","","","",""
"audio-keyboard-response","48","348807","0.0-4.0-1.0-0.9","3","0","yw6fql9fvdaz19b","","null","","sounds/induction/right_rev/me_SWS.wav","","null","","","","","","","","","","","","","","","","","","","","","","","","","","","","","","","",""
"html-button-response","49","349484","0.0-4.0-1.0-1.9","3","0","yw6fql9fvdaz19b","","675","","Was the sound coming from the left or the right?","1","","","1","INDUCTION-JUDGMENT","right","1","","","","","","","","","","","","","","","","","","","","","","","","","","",""
"html-keyboard-response","50","350488","0.0-4.0-1.0-2.9","3","0","yw6fql9fvdaz19b","","null","","<p style=""color:#054d00;""><b>Correct!</b></p>","","null","","","","","","","","","","","","","","","","","","","","","","","","","","","","","","","",""
"audio-keyboard-response","51","351292","0.0-4.0-1.0-0.10","3","0","yw6fql9fvdaz19b","","null","","sounds/induction/right_rev/fe_SWS.wav","","null","","","","","","","","","","","","","","","","","","","","","","","","","","","","","","","",""
"html-button-response","52","351975","0.0-4.0-1.0-1.10","3","0","yw6fql9fvdaz19b","","681","","Was the sound coming from the left or the right?","1","","","1","INDUCTION-JUDGMENT","right","1","","","","","","","","","","","","","","","","","","","","","","","","","","",""
"html-keyboard-response","53","352978","0.0-4.0-1.0-2.10","3","0","yw6fql9fvdaz19b","","null","","<p style=""color:#054d00;""><b>Correct!</b></p>","","null","","","","","","","","","","","","","","","","","","","","","","","","","","","","","","","",""
"audio-keyboard-response","54","353783","0.0-4.0-1.0-0.11","3","0","yw6fql9fvdaz19b","","null","","sounds/induction/left_rev/ti_SWS.wav","","null","","","","","","","","","","","","","","","","","","","","","","","","","","","","","","","",""
"html-button-response","55","354442","0.0-4.0-1.0-1.11","3","0","yw6fql9fvdaz19b","","657.5","","Was the sound coming from the left or the right?","0","","","1","INDUCTION-JUDGMENT","left","0","","","","","","","","","","","","","","","","","","","","","","","","","","",""
"html-keyboard-response","56","355445","0.0-4.0-1.0-2.11","3","0","yw6fql9fvdaz19b","","null","","<p style=""color:#054d00;""><b>Correct!</b></p>","","null","","","","","","","","","","","","","","","","","","","","","","","","","","","","","","","",""
"audio-keyboard-response","57","356252","0.0-4.0-1.0-0.12","3","0","yw6fql9fvdaz19b","","null","","sounds/induction/right_rev/re_SWS.wav","","null","","","","","","","","","","","","","","","","","","","","","","","","","","","","","","","",""
"html-button-response","58","356771","0.0-4.0-1.0-1.12","3","0","yw6fql9fvdaz19b","","517.5","","Was the sound coming from the left or the right?","1","","","1","INDUCTION-JUDGMENT","right","1","","","","","","","","","","","","","","","","","","","","","","","","","","",""
"html-keyboard-response","59","357774","0.0-4.0-1.0-2.12","3","0","yw6fql9fvdaz19b","","null","","<p style=""color:#054d00;""><b>Correct!</b></p>","","null","","","","","","","","","","","","","","","","","","","","","","","","","","","","","","","",""
"audio-keyboard-response","60","358577","0.0-4.0-1.0-0.13","3","0","yw6fql9fvdaz19b","","null","","sounds/induction/right_rev/ni_SWS.wav","","null","","","","","","","","","","","","","","","","","","","","","","","","","","","","","","","",""
"html-button-response","61","359206","0.0-4.0-1.0-1.13","3","0","yw6fql9fvdaz19b","","626.9000000003725","","Was the sound coming from the left or the right?","1","","","1","INDUCTION-JUDGMENT","right","1","","","","","","","","","","","","","","","","","","","","","","","","","","",""
"html-keyboard-response","62","360211","0.0-4.0-1.0-2.13","3","0","yw6fql9fvdaz19b","","null","","<p style=""color:#054d00;""><b>Correct!</b></p>","","null","","","","","","","","","","","","","","","","","","","","","","","","","","","","","","","",""
"audio-keyboard-response","63","361014","0.0-4.0-1.0-0.14","3","0","yw6fql9fvdaz19b","","null","","sounds/induction/right_rev/ge_SWS.wav","","null","","","","","","","","","","","","","","","","","","","","","","","","","","","","","","","",""
"html-button-response","64","361674","0.0-4.0-1.0-1.14","3","0","yw6fql9fvdaz19b","","657.4000000003725","","Was the sound coming from the left or the right?","1","","","1","INDUCTION-JUDGMENT","right","1","","","","","","","","","","","","","","","","","","","","","","","","","","",""
"html-keyboard-response","65","362676","0.0-4.0-1.0-2.14","3","0","yw6fql9fvdaz19b","","null","","<p style=""color:#054d00;""><b>Correct!</b></p>","","null","","","","","","","","","","","","","","","","","","","","","","","","","","","","","","","",""
"audio-keyboard-response","66","363478","0.0-4.0-1.0-0.15","3","0","yw6fql9fvdaz19b","","null","","sounds/induction/right_rev/fu_SWS.wav","","null","","","","","","","","","","","","","","","","","","","","","","","","","","","","","","","",""
"html-button-response","67","364141","0.0-4.0-1.0-1.15","3","0","yw6fql9fvdaz19b","","660.9000000003725","","Was the sound coming from the left or the right?","1","","","1","INDUCTION-JUDGMENT","right","1","","","","","","","","","","","","","","","","","","","","","","","","","","",""
"html-keyboard-response","68","365145","0.0-4.0-1.0-2.15","3","0","yw6fql9fvdaz19b","","null","","<p style=""color:#054d00;""><b>Correct!</b></p>","","null","","","","","","","","","","","","","","","","","","","","","","","","","","","","","","","",""
"audio-keyboard-response","69","365947","0.0-4.0-1.0-0.16","3","0","yw6fql9fvdaz19b","","null","","sounds/induction/right_rev/pu_SWS.wav","","null","","","","","","","","","","","","","","","","","","","","","","","","","","","","","","","",""
"html-button-response","70","366609","0.0-4.0-1.0-1.16","3","0","yw6fql9fvdaz19b","","656.8000000007451","","Was the sound coming from the left or the right?","1","","","1","INDUCTION-JUDGMENT","right","1","","","","","","","","","","","","","","","","","","","","","","","","","","",""
"html-keyboard-response","71","367611","0.0-4.0-1.0-2.16","3","0","yw6fql9fvdaz19b","","null","","<p style=""color:#054d00;""><b>Correct!</b></p>","","null","","","","","","","","","","","","","","","","","","","","","","","","","","","","","","","",""
"audio-keyboard-response","72","368417","0.0-4.0-1.0-0.17","3","0","yw6fql9fvdaz19b","","null","","sounds/induction/left_rev/re_SWS.wav","","null","","","","","","","","","","","","","","","","","","","","","","","","","","","","","","","",""
"html-button-response","73","369027","0.0-4.0-1.0-1.17","3","0","yw6fql9fvdaz19b","","608.3999999985099","","Was the sound coming from the left or the right?","0","","","1","INDUCTION-JUDGMENT","left","0","","","","","","","","","","","","","","","","","","","","","","","","","","",""
"html-keyboard-response","74","370033","0.0-4.0-1.0-2.17","3","0","yw6fql9fvdaz19b","","null","","<p style=""color:#054d00;""><b>Correct!</b></p>","","null","","","","","","","","","","","","","","","","","","","","","","","","","","","","","","","",""
"audio-keyboard-response","75","370838","0.0-4.0-1.0-0.18","3","0","yw6fql9fvdaz19b","","null","","sounds/induction/left_rev/ru_SWS.wav","","null","","","","","","","","","","","","","","","","","","","","","","","","","","","","","","","",""
"html-button-response","76","371405","0.0-4.0-1.0-1.18","3","0","yw6fql9fvdaz19b","","564.9000000003725","","Was the sound coming from the left or the right?","0","","","1","INDUCTION-JUDGMENT","left","0","","","","","","","","","","","","","","","","","","","","","","","","","","",""
"html-keyboard-response","77","372411","0.0-4.0-1.0-2.18","3","0","yw6fql9fvdaz19b","","null","","<p style=""color:#054d00;""><b>Correct!</b></p>","","null","","","","","","","","","","","","","","","","","","","","","","","","","","","","","","","",""
"audio-keyboard-response","78","373217","0.0-4.0-1.0-0.19","3","0","yw6fql9fvdaz19b","","null","","sounds/induction/left_rev/ko_SWS.wav","","null","","","","","","","","","","","","","","","","","","","","","","","","","","","","","","","",""
"html-button-response","79","373840","0.0-4.0-1.0-1.19","3","0","yw6fql9fvdaz19b","","621.1000000014901","","Was the sound coming from the left or the right?","0","","","1","INDUCTION-JUDGMENT","left","0","","","","","","","","","","","","","","","","","","","","","","","","","","",""
"html-keyboard-response","80","374845","0.0-4.0-1.0-2.19","3","0","yw6fql9fvdaz19b","","null","","<p style=""color:#054d00;""><b>Correct!</b></p>","","null","","","","","","","","","","","","","","","","","","","","","","","","","","","","","","","",""
"audio-keyboard-response","81","375648","0.0-4.0-1.0-0.20","3","0","yw6fql9fvdaz19b","","null","","sounds/induction/left_rev/fu_SWS.wav","","null","","","","","","","","","","","","","","","","","","","","","","","","","","","","","","","",""
"html-button-response","82","376291","0.0-4.0-1.0-1.20","3","0","yw6fql9fvdaz19b","","640.2999999988824","","Was the sound coming from the left or the right?","0","","","1","INDUCTION-JUDGMENT","left","0","","","","","","","","","","","","","","","","","","","","","","","","","","",""
"html-keyboard-response","83","377295","0.0-4.0-1.0-2.20","3","0","yw6fql9fvdaz19b","","null","","<p style=""color:#054d00;""><b>Correct!</b></p>","","null","","","","","","","","","","","","","","","","","","","","","","","","","","","","","","","",""
"audio-keyboard-response","84","378102","0.0-4.0-1.0-0.21","3","0","yw6fql9fvdaz19b","","null","","sounds/induction/right_rev/ge_SWS.wav","","null","","","","","","","","","","","","","","","","","","","","","","","","","","","","","","","",""
"html-button-response","85","378807","0.0-4.0-1.0-1.21","3","0","yw6fql9fvdaz19b","","703.1000000014901","","Was the sound coming from the left or the right?","1","","","1","INDUCTION-JUDGMENT","right","1","","","","","","","","","","","","","","","","","","","","","","","","","","",""
"html-keyboard-response","86","379811","0.0-4.0-1.0-2.21","3","0","yw6fql9fvdaz19b","","null","","<p style=""color:#054d00;""><b>Correct!</b></p>","","null","","","","","","","","","","","","","","","","","","","","","","","","","","","","","","","",""
"audio-keyboard-response","87","380619","0.0-4.0-1.0-0.22","3","0","yw6fql9fvdaz19b","","null","","sounds/induction/left_rev/fe_SWS.wav","","null","","","","","","","","","","","","","","","","","","","","","","","","","","","","","","","",""
"html-button-response","88","381169","0.0-4.0-1.0-1.22","3","0","yw6fql9fvdaz19b","","547.4000000003725","","Was the sound coming from the left or the right?","0","","","1","INDUCTION-JUDGMENT","left","0","","","","","","","","","","","","","","","","","","","","","","","","","","",""
"html-keyboard-response","89","382172","0.0-4.0-1.0-2.22","3","0","yw6fql9fvdaz19b","","null","","<p style=""color:#054d00;""><b>Correct!</b></p>","","null","","","","","","","","","","","","","","","","","","","","","","","","","","","","","","","",""
"audio-keyboard-response","90","382976","0.0-4.0-1.0-0.23","3","0","yw6fql9fvdaz19b","","null","","sounds/induction/left_rev/ni_SWS.wav","","null","","","","","","","","","","","","","","","","","","","","","","","","","","","","","","","",""
"html-button-response","91","383571","0.0-4.0-1.0-1.23","3","0","yw6fql9fvdaz19b","","592.5","","Was the sound coming from the left or the right?","0","","","1","INDUCTION-JUDGMENT","left","0","","","","","","","","","","","","","","","","","","","","","","","","","","",""
"html-keyboard-response","92","384578","0.0-4.0-1.0-2.23","3","0","yw6fql9fvdaz19b","","null","","<p style=""color:#054d00;""><b>Correct!</b></p>","","null","","","","","","","","","","","","","","","","","","","","","","","","","","","","","","","",""
"audio-keyboard-response","93","385387","0.0-4.0-1.0-0.24","3","0","yw6fql9fvdaz19b","","null","","sounds/induction/right_rev/me_SWS.wav","","null","","","","","","","","","","","","","","","","","","","","","","","","","","","","","","","",""
"html-button-response","94","385916","0.0-4.0-1.0-1.24","3","0","yw6fql9fvdaz19b","","526.7000000011176","","Was the sound coming from the left or the right?","1","","","1","INDUCTION-JUDGMENT","right","1","","","","","","","","","","","","","","","","","","","","","","","","","","",""
"html-keyboard-response","95","386920","0.0-4.0-1.0-2.24","3","0","yw6fql9fvdaz19b","","null","","<p style=""color:#054d00;""><b>Correct!</b></p>","","null","","","","","","","","","","","","","","","","","","","","","","","","","","","","","","","",""
"audio-keyboard-response","96","387723","0.0-4.0-1.0-0.25","3","0","yw6fql9fvdaz19b","","null","","sounds/induction/right_rev/ta_SWS.wav","","null","","","","","","","","","","","","","","","","","","","","","","","","","","","","","","","",""
"html-button-response","97","388571","0.0-4.0-1.0-1.25","3","0","yw6fql9fvdaz19b","","845.5999999996275","","Was the sound coming from the left or the right?","1","","","1","INDUCTION-JUDGMENT","right","1","","","","","","","","","","","","","","","","","","","","","","","","","","",""
"html-keyboard-response","98","389577","0.0-4.0-1.0-2.25","3","0","yw6fql9fvdaz19b","","null","","<p style=""color:#054d00;""><b>Correct!</b></p>","","null","","","","","","","","","","","","","","","","","","","","","","","","","","","","","","","",""
"audio-keyboard-response","99","390384","0.0-4.0-1.0-0.26","3","0","yw6fql9fvdaz19b","","null","","sounds/induction/right_rev/su_SWS.wav","","null","","","","","","","","","","","","","","","","","","","","","","","","","","","","","","","",""
"html-button-response","100","391136","0.0-4.0-1.0-1.26","3","0","yw6fql9fvdaz19b","","750","","Was the sound coming from the left or the right?","1","","","1","INDUCTION-JUDGMENT","right","1","","","","","","","","","","","","","","","","","","","","","","","","","","",""
"html-keyboard-response","101","392143","0.0-4.0-1.0-2.26","3","0","yw6fql9fvdaz19b","","null","","<p style=""color:#054d00;""><b>Correct!</b></p>","","null","","","","","","","","","","","","","","","","","","","","","","","","","","","","","","","",""
"audio-keyboard-response","102","392949","0.0-4.0-1.0-0.27","3","0","yw6fql9fvdaz19b","","null","","sounds/induction/right_rev/re_SWS.wav","","null","","","","","","","","","","","","","","","","","","","","","","","","","","","","","","","",""
"html-button-response","103","393750","0.0-4.0-1.0-1.27","3","0","yw6fql9fvdaz19b","","798.5999999996275","","Was the sound coming from the left or the right?","1","","","1","INDUCTION-JUDGMENT","right","1","","","","","","","","","","","","","","","","","","","","","","","","","","",""
"html-keyboard-response","104","394753","0.0-4.0-1.0-2.27","3","0","yw6fql9fvdaz19b","","null","","<p style=""color:#054d00;""><b>Correct!</b></p>","","null","","","","","","","","","","","","","","","","","","","","","","","","","","","","","","","",""
"audio-keyboard-response","105","395557","0.0-4.0-1.0-0.28","3","0","yw6fql9fvdaz19b","","null","","sounds/induction/left_rev/ni_SWS.wav","","null","","","","","","","","","","","","","","","","","","","","","","","","","","","","","","","",""
"html-button-response","106","396136","0.0-4.0-1.0-1.28","3","0","yw6fql9fvdaz19b","","576.5999999996275","","Was the sound coming from the left or the right?","0","","","1","INDUCTION-JUDGMENT","left","0","","","","","","","","","","","","","","","","","","","","","","","","","","",""
"html-keyboard-response","107","397141","0.0-4.0-1.0-2.28","3","0","yw6fql9fvdaz19b","","null","","<p style=""color:#054d00;""><b>Correct!</b></p>","","null","","","","","","","","","","","","","","","","","","","","","","","","","","","","","","","",""
"audio-keyboard-response","108","397941","0.0-4.0-1.0-0.29","3","0","yw6fql9fvdaz19b","","null","","sounds/induction/right_rev/ta_SWS.wav","","null","","","","","","","","","","","","","","","","","","","","","","","","","","","","","","","",""
"html-button-response","109","398466","0.0-4.0-1.0-1.29","3","0","yw6fql9fvdaz19b","","521.5999999996275","","Was the sound coming from the left or the right?","1","","","1","INDUCTION-JUDGMENT","right","1","","","","","","","","","","","","","","","","","","","","","","","","","","",""
"html-keyboard-response","110","399470","0.0-4.0-1.0-2.29","3","0","yw6fql9fvdaz19b","","null","","<p style=""color:#054d00;""><b>Correct!</b></p>","","null","","","","","","","","","","","","","","","","","","","","","","","","","","","","","","","",""
"audio-keyboard-response","111","400277","0.0-4.0-1.0-0.30","3","0","yw6fql9fvdaz19b","","null","","sounds/induction/right_rev/fe_SWS.wav","","null","","","","","","","","","","","","","","","","","","","","","","","","","","","","","","","",""
"html-button-response","112","400933","0.0-4.0-1.0-1.30","3","0","yw6fql9fvdaz19b","","653.4000000003725","","Was the sound coming from the left or the right?","1","","","1","INDUCTION-JUDGMENT","right","1","","","","","","","","","","","","","","","","","","","","","","","","","","",""
"html-keyboard-response","113","401936","0.0-4.0-1.0-2.30","3","0","yw6fql9fvdaz19b","","null","","<p style=""color:#054d00;""><b>Correct!</b></p>","","null","","","","","","","","","","","","","","","","","","","","","","","","","","","","","","","",""
"audio-keyboard-response","114","402741","0.0-4.0-1.0-0.31","3","0","yw6fql9fvdaz19b","","null","","sounds/induction/left_rev/pu_SWS.wav","","null","","","","","","","","","","","","","","","","","","","","","","","","","","","","","","","",""
"html-button-response","115","403229","0.0-4.0-1.0-1.31","3","0","yw6fql9fvdaz19b","","485.90000000037253","","Was the sound coming from the left or the right?","0","","","1","INDUCTION-JUDGMENT","left","0","","","","","","","","","","","","","","","","","","","","","","","","","","",""
"html-keyboard-response","116","404232","0.0-4.0-1.0-2.31","3","0","yw6fql9fvdaz19b","","null","","<p style=""color:#054d00;""><b>Correct!</b></p>","","null","","","","","","","","","","","","","","","","","","","","","","","","","","","","","","","",""
"audio-keyboard-response","117","405039","0.0-4.0-1.0-0.32","3","0","yw6fql9fvdaz19b","","null","","sounds/induction/left_rev/ta_SWS.wav","","null","","","","","","","","","","","","","","","","","","","","","","","","","","","","","","","",""
"html-button-response","118","405542","0.0-4.0-1.0-1.32","3","0","yw6fql9fvdaz19b","","500.2000000011176","","Was the sound coming from the left or the right?","0","","","1","INDUCTION-JUDGMENT","left","0","","","","","","","","","","","","","","","","","","","","","","","","","","",""
"html-keyboard-response","119","406545","0.0-4.0-1.0-2.32","3","0","yw6fql9fvdaz19b","","null","","<p style=""color:#054d00;""><b>Correct!</b></p>","","null","","","","","","","","","","","","","","","","","","","","","","","","","","","","","","","",""
"audio-keyboard-response","120","407354","0.0-4.0-1.0-0.33","3","0","yw6fql9fvdaz19b","","null","","sounds/induction/right_rev/su_SWS.wav","","null","","","","","","","","","","","","","","","","","","","","","","","","","","","","","","","",""
"html-button-response","121","407986","0.0-4.0-1.0-1.33","3","0","yw6fql9fvdaz19b","","628.8999999985099","","Was the sound coming from the left or the right?","1","","","1","INDUCTION-JUDGMENT","right","1","","","","","","","","","","","","","","","","","","","","","","","","","","",""
"html-keyboard-response","122","408990","0.0-4.0-1.0-2.33","3","0","yw6fql9fvdaz19b","","null","","<p style=""color:#054d00;""><b>Correct!</b></p>","","null","","","","","","","","","","","","","","","","","","","","","","","","","","","","","","","",""
"audio-keyboard-response","123","409791","0.0-4.0-1.0-0.34","3","0","yw6fql9fvdaz19b","","null","","sounds/induction/left_rev/pu_SWS.wav","","null","","","","","","","","","","","","","","","","","","","","","","","","","","","","","","","",""
"html-button-response","124","410486","0.0-4.0-1.0-1.34","3","0","yw6fql9fvdaz19b","","691.7000000011176","","Was the sound coming from the left or the right?","0","","","1","INDUCTION-JUDGMENT","left","0","","","","","","","","","","","","","","","","","","","","","","","","","","",""
"html-keyboard-response","125","411489","0.0-4.0-1.0-2.34","3","0","yw6fql9fvdaz19b","","null","","<p style=""color:#054d00;""><b>Correct!</b></p>","","null","","","","","","","","","","","","","","","","","","","","","","","","","","","","","","","",""
"audio-keyboard-response","126","412298","0.0-4.0-1.0-0.35","3","0","yw6fql9fvdaz19b","","null","","sounds/induction/left_rev/ti_SWS.wav","","null","","","","","","","","","","","","","","","","","","","","","","","","","","","","","","","",""
"html-button-response","127","413125","0.0-4.0-1.0-1.35","3","0","yw6fql9fvdaz19b","","824","","Was the sound coming from the left or the right?","0","","","1","INDUCTION-JUDGMENT","left","0","","","","","","","","","","","","","","","","","","","","","","","","","","",""
"html-keyboard-response","128","414128","0.0-4.0-1.0-2.35","3","0","yw6fql9fvdaz19b","","null","","<p style=""color:#054d00;""><b>Correct!</b></p>","","null","","","","","","","","","","","","","","","","","","","","","","","","","","","","","","","",""
"audio-keyboard-response","129","414932","0.0-4.0-1.0-0.36","3","0","yw6fql9fvdaz19b","","null","","sounds/induction/right_rev/ni_SWS.wav","","null","","","","","","","","","","","","","","","","","","","","","","","","","","","","","","","",""
"html-button-response","130","415746","0.0-4.0-1.0-1.36","3","0","yw6fql9fvdaz19b","","811.6000000014901","","Was the sound coming from the left or the right?","1","","","1","INDUCTION-JUDGMENT","right","1","","","","","","","","","","","","","","","","","","","","","","","","","","",""
"html-keyboard-response","131","416748","0.0-4.0-1.0-2.36","3","0","yw6fql9fvdaz19b","","null","","<p style=""color:#054d00;""><b>Correct!</b></p>","","null","","","","","","","","","","","","","","","","","","","","","","","","","","","","","","","",""
"audio-keyboard-response","132","417556","0.0-4.0-1.0-0.37","3","0","yw6fql9fvdaz19b","","null","","sounds/induction/left_rev/me_SWS.wav","","null","","","","","","","","","","","","","","","","","","","","","","","","","","","","","","","",""
"html-button-response","133","418108","0.0-4.0-1.0-1.37","3","0","yw6fql9fvdaz19b","","549.1999999992549","","Was the sound coming from the left or the right?","0","","","1","INDUCTION-JUDGMENT","left","0","","","","","","","","","","","","","","","","","","","","","","","","","","",""
"html-keyboard-response","134","419113","0.0-4.0-1.0-2.37","3","0","yw6fql9fvdaz19b","","null","","<p style=""color:#054d00;""><b>Correct!</b></p>","","null","","","","","","","","","","","","","","","","","","","","","","","","","","","","","","","",""
"audio-keyboard-response","135","419919","0.0-4.0-1.0-0.38","3","0","yw6fql9fvdaz19b","","null","","sounds/induction/right_rev/ko_SWS.wav","","null","","","","","","","","","","","","","","","","","","","","","","","","","","","","","","","",""
"html-button-response","136","420469","0.0-4.0-1.0-1.38","3","0","yw6fql9fvdaz19b","","547.5999999996275","","Was the sound coming from the left or the right?","1","","","1","INDUCTION-JUDGMENT","right","1","","","","","","","","","","","","","","","","","","","","","","","","","","",""
"html-keyboard-response","137","421472","0.0-4.0-1.0-2.38","3","0","yw6fql9fvdaz19b","","null","","<p style=""color:#054d00;""><b>Correct!</b></p>","","null","","","","","","","","","","","","","","","","","","","","","","","","","","","","","","","",""
"audio-keyboard-response","138","422281","0.0-4.0-1.0-0.39","3","0","yw6fql9fvdaz19b","","null","","sounds/induction/left_rev/fe_SWS.wav","","null","","","","","","","","","","","","","","","","","","","","","","","","","","","","","","","",""
"html-button-response","139","422823","0.0-4.0-1.0-1.39","3","0","yw6fql9fvdaz19b","","538.8000000007451","","Was the sound coming from the left or the right?","0","","","1","INDUCTION-JUDGMENT","left","0","","","","","","","","","","","","","","","","","","","","","","","","","","",""
"html-keyboard-response","140","423828","0.0-4.0-1.0-2.39","3","0","yw6fql9fvdaz19b","","null","","<p style=""color:#054d00;""><b>Correct!</b></p>","","null","","","","","","","","","","","","","","","","","","","","","","","","","","","","","","","",""
"audio-keyboard-response","141","424633","0.0-4.0-1.0-0.40","3","0","yw6fql9fvdaz19b","","null","","sounds/induction/left_rev/ko_SWS.wav","","null","","","","","","","","","","","","","","","","","","","","","","","","","","","","","","","",""
"html-button-response","142","425356","0.0-4.0-1.0-1.40","3","0","yw6fql9fvdaz19b","","719.3000000007451","","Was the sound coming from the left or the right?","0","","","1","INDUCTION-JUDGMENT","left","0","","","","","","","","","","","","","","","","","","","","","","","","","","",""
"html-keyboard-response","143","426361","0.0-4.0-1.0-2.40","3","0","yw6fql9fvdaz19b","","null","","<p style=""color:#054d00;""><b>Correct!</b></p>","","null","","","","","","","","","","","","","","","","","","","","","","","","","","","","","","","",""
"audio-keyboard-response","144","427167","0.0-4.0-1.0-0.41","3","0","yw6fql9fvdaz19b","","null","","sounds/induction/right_rev/ru_SWS.wav","","null","","","","","","","","","","","","","","","","","","","","","","","","","","","","","","","",""
"html-button-response","145","427686","0.0-4.0-1.0-1.41","3","0","yw6fql9fvdaz19b","","515.9000000003725","","Was the sound coming from the left or the right?","1","","","1","INDUCTION-JUDGMENT","right","1","","","","","","","","","","","","","","","","","","","","","","","","","","",""
"html-keyboard-response","146","428688","0.0-4.0-1.0-2.41","3","0","yw6fql9fvdaz19b","","null","","<p style=""color:#054d00;""><b>Correct!</b></p>","","null","","","","","","","","","","","","","","","","","","","","","","","","","","","","","","","",""
"audio-keyboard-response","147","429492","0.0-4.0-1.0-0.42","3","0","yw6fql9fvdaz19b","","null","","sounds/induction/left_rev/re_SWS.wav","","null","","","","","","","","","","","","","","","","","","","","","","","","","","","","","","","",""
"html-button-response","148","429965","0.0-4.0-1.0-1.42","3","0","yw6fql9fvdaz19b","","470.6000000014901","","Was the sound coming from the left or the right?","0","","","1","INDUCTION-JUDGMENT","left","0","","","","","","","","","","","","","","","","","","","","","","","","","","",""
"html-keyboard-response","149","430970","0.0-4.0-1.0-2.42","3","0","yw6fql9fvdaz19b","","null","","<p style=""color:#054d00;""><b>Correct!</b></p>","","null","","","","","","","","","","","","","","","","","","","","","","","","","","","","","","","",""
"audio-keyboard-response","150","431774","0.0-4.0-1.0-0.43","3","0","yw6fql9fvdaz19b","","null","","sounds/induction/left_rev/fu_SWS.wav","","null","","","","","","","","","","","","","","","","","","","","","","","","","","","","","","","",""
"html-button-response","151","432433","0.0-4.0-1.0-1.43","3","0","yw6fql9fvdaz19b","","655.5","","Was the sound coming from the left or the right?","0","","","1","INDUCTION-JUDGMENT","left","0","","","","","","","","","","","","","","","","","","","","","","","","","","",""
"html-keyboard-response","152","433436","0.0-4.0-1.0-2.43","3","0","yw6fql9fvdaz19b","","null","","<p style=""color:#054d00;""><b>Correct!</b></p>","","null","","","","","","","","","","","","","","","","","","","","","","","","","","","","","","","",""
"audio-keyboard-response","153","434244","0.0-4.0-1.0-0.44","3","0","yw6fql9fvdaz19b","","null","","sounds/induction/right_rev/ru_SWS.wav","","null","","","","","","","","","","","","","","","","","","","","","","","","","","","","","","","",""
"html-button-response","154","435315","0.0-4.0-1.0-1.44","3","0","yw6fql9fvdaz19b","","1069.5999999996275","","Was the sound coming from the left or the right?","1","","","1","INDUCTION-JUDGMENT","right","1","","","","","","","","","","","","","","","","","","","","","","","","","","",""
"html-keyboard-response","155","436319","0.0-4.0-1.0-2.44","3","0","yw6fql9fvdaz19b","","null","","<p style=""color:#054d00;""><b>Correct!</b></p>","","null","","","","","","","","","","","","","","","","","","","","","","","","","","","","","","","",""
"audio-keyboard-response","156","437129","0.0-4.0-1.0-0.45","3","0","yw6fql9fvdaz19b","","null","","sounds/induction/left_rev/ru_SWS.wav","","null","","","","","","","","","","","","","","","","","","","","","","","","","","","","","","","",""
"html-button-response","157","437767","0.0-4.0-1.0-1.45","3","0","yw6fql9fvdaz19b","","636","","Was the sound coming from the left or the right?","0","","","1","INDUCTION-JUDGMENT","left","0","","","","","","","","","","","","","","","","","","","","","","","","","","",""
"html-keyboard-response","158","438769","0.0-4.0-1.0-2.45","3","0","yw6fql9fvdaz19b","","null","","<p style=""color:#054d00;""><b>Correct!</b></p>","","null","","","","","","","","","","","","","","","","","","","","","","","","","","","","","","","",""
"audio-keyboard-response","159","439577","0.0-4.0-1.0-0.46","3","0","yw6fql9fvdaz19b","","null","","sounds/induction/right_rev/ti_SWS.wav","","null","","","","","","","","","","","","","","","","","","","","","","","","","","","","","","","",""
"html-button-response","160","440226","0.0-4.0-1.0-1.46","3","0","yw6fql9fvdaz19b","","648","","Was the sound coming from the left or the right?","1","","","1","INDUCTION-JUDGMENT","right","1","","","","","","","","","","","","","","","","","","","","","","","","","","",""
"html-keyboard-response","161","441229","0.0-4.0-1.0-2.46","3","0","yw6fql9fvdaz19b","","null","","<p style=""color:#054d00;""><b>Correct!</b></p>","","null","","","","","","","","","","","","","","","","","","","","","","","","","","","","","","","",""
"audio-keyboard-response","162","442035","0.0-4.0-1.0-0.47","3","0","yw6fql9fvdaz19b","","null","","sounds/induction/left_rev/ta_SWS.wav","","null","","","","","","","","","","","","","","","","","","","","","","","","","","","","","","","",""
"html-button-response","163","442563","0.0-4.0-1.0-1.47","3","0","yw6fql9fvdaz19b","","526.5999999996275","","Was the sound coming from the left or the right?","0","","","1","INDUCTION-JUDGMENT","left","0","","","","","","","","","","","","","","","","","","","","","","","","","","",""
"html-keyboard-response","164","443569","0.0-4.0-1.0-2.47","3","0","yw6fql9fvdaz19b","","null","","<p style=""color:#054d00;""><b>Correct!</b></p>","","null","","","","","","","","","","","","","","","","","","","","","","","","","","","","","","","",""
"html-button-response","165","458317","0.0-5.0-0.0","3","0","yw6fql9fvdaz19b","","14245","","<p>Thank you for your answers.</p><p>You will now listen to similar sounds. The main difference is that the sounds will be longer.</p><p>Just as before, you will be asked to judge whether the sound was coming from the left or the right.</p><p>There are 10 of these longer sounds in total.","0","","","","","","","","","","","","","","","","","","","","","","","","","","","","","","","","",""
"audio-keyboard-response","166","461208","0.0-5.0-1.0-0.0","3","0","yw6fql9fvdaz19b","","null","","sounds/sentences/right_rev/14_07_cfSWS.wav","","null","","","","","","","","","","","","","","","","","","","","","","","","","","","","","","","",""
"html-button-response","167","461852","0.0-5.0-1.0-1.0","3","0","yw6fql9fvdaz19b","","642.1999999992549","","Was the sound coming from the left or the right?","1","","","1","INDUCTION-JUDGMENT","right","1","","","","","","","","","","","","","","","","","","","","","","","","","","",""
"html-keyboard-response","168","462854","0.0-5.0-1.0-2.0","3","0","yw6fql9fvdaz19b","","null","","<p style=""color:#054d00;""><b>Correct!</b></p>","","null","","","","","","","","","","","","","","","","","","","","","","","","","","","","","","","",""
"html-button-response","169","464377","0.0-5.0-1.0-3.0","3","0","yw6fql9fvdaz19b","","1016.7999999988824","","<p>Press the button below when you are ready to continue.</p>","0","","","","","","","","","","","","","","","","","","","","","","","","","","","","","","","","",""
"audio-keyboard-response","170","467106","0.0-5.0-1.0-0.1","3","0","yw6fql9fvdaz19b","","null","","sounds/sentences/right_rev/14_09_cfSWS.wav","","null","","","","","","","","","","","","","","","","","","","","","","","","","","","","","","","",""
"html-button-response","171","467692","0.0-5.0-1.0-1.1","3","0","yw6fql9fvdaz19b","","583.1999999992549","","Was the sound coming from the left or the right?","1","","","1","INDUCTION-JUDGMENT","right","1","","","","","","","","","","","","","","","","","","","","","","","","","","",""
"html-keyboard-response","172","468694","0.0-5.0-1.0-2.1","3","0","yw6fql9fvdaz19b","","null","","<p style=""color:#054d00;""><b>Correct!</b></p>","","null","","","","","","","","","","","","","","","","","","","","","","","","","","","","","","","",""
"html-button-response","173","470462","0.0-5.0-1.0-3.1","3","0","yw6fql9fvdaz19b","","1265.4000000003725","","<p>Press the button below when you are ready to continue.</p>","0","","","","","","","","","","","","","","","","","","","","","","","","","","","","","","","","",""
"audio-keyboard-response","174","473047","0.0-5.0-1.0-0.2","3","0","yw6fql9fvdaz19b","","null","","sounds/sentences/left_rev/14_03_cfSWS.wav","","null","","","","","","","","","","","","","","","","","","","","","","","","","","","","","","","",""
"html-button-response","175","473548","0.0-5.0-1.0-1.2","3","0","yw6fql9fvdaz19b","","498.40000000037253","","Was the sound coming from the left or the right?","0","","","1","INDUCTION-JUDGMENT","left","0","","","","","","","","","","","","","","","","","","","","","","","","","","",""
"html-keyboard-response","176","474552","0.0-5.0-1.0-2.2","3","0","yw6fql9fvdaz19b","","null","","<p style=""color:#054d00;""><b>Correct!</b></p>","","null","","","","","","","","","","","","","","","","","","","","","","","","","","","","","","","",""
"html-button-response","177","475894","0.0-5.0-1.0-3.2","3","0","yw6fql9fvdaz19b","","835.1000000014901","","<p>Press the button below when you are ready to continue.</p>","0","","","","","","","","","","","","","","","","","","","","","","","","","","","","","","","","",""
"audio-keyboard-response","178","478445","0.0-5.0-1.0-0.3","3","0","yw6fql9fvdaz19b","","null","","sounds/sentences/left_rev/14_04_cfSWS.wav","","null","","","","","","","","","","","","","","","","","","","","","","","","","","","","","","","",""
"html-button-response","179","479062","0.0-5.0-1.0-1.3","3","0","yw6fql9fvdaz19b","","615","","Was the sound coming from the left or the right?","0","","","1","INDUCTION-JUDGMENT","left","0","","","","","","","","","","","","","","","","","","","","","","","","","","",""
"html-keyboard-response","180","480069","0.0-5.0-1.0-2.3","3","0","yw6fql9fvdaz19b","","null","","<p style=""color:#054d00;""><b>Correct!</b></p>","","null","","","","","","","","","","","","","","","","","","","","","","","","","","","","","","","",""
"html-button-response","181","481521","0.0-5.0-1.0-3.3","3","0","yw6fql9fvdaz19b","","946.2999999988824","","<p>Press the button below when you are ready to continue.</p>","0","","","","","","","","","","","","","","","","","","","","","","","","","","","","","","","","",""
"audio-keyboard-response","182","484269","0.0-5.0-1.0-0.4","3","0","yw6fql9fvdaz19b","","null","","sounds/sentences/right_rev/14_06_cfSWS.wav","","null","","","","","","","","","","","","","","","","","","","","","","","","","","","","","","","",""
"html-button-response","183","484976","0.0-5.0-1.0-1.4","3","0","yw6fql9fvdaz19b","","704.9000000003725","","Was the sound coming from the left or the right?","1","","","1","INDUCTION-JUDGMENT","right","1","","","","","","","","","","","","","","","","","","","","","","","","","","",""
"html-keyboard-response","184","485979","0.0-5.0-1.0-2.4","3","0","yw6fql9fvdaz19b","","null","","<p style=""color:#054d00;""><b>Correct!</b></p>","","null","","","","","","","","","","","","","","","","","","","","","","","","","","","","","","","",""
"html-button-response","185","487582","0.0-5.0-1.0-3.4","3","0","yw6fql9fvdaz19b","","1099.1000000014901","","<p>Press the button below when you are ready to continue.</p>","0","","","","","","","","","","","","","","","","","","","","","","","","","","","","","","","","",""
"audio-keyboard-response","186","490700","0.0-5.0-1.0-0.5","3","0","yw6fql9fvdaz19b","","null","","sounds/sentences/left_rev/14_01_cfSWS.wav","","null","","","","","","","","","","","","","","","","","","","","","","","","","","","","","","","",""
"html-button-response","187","491606","0.0-5.0-1.0-1.5","3","0","yw6fql9fvdaz19b","","902.9000000003725","","Was the sound coming from the left or the right?","0","","","1","INDUCTION-JUDGMENT","left","0","","","","","","","","","","","","","","","","","","","","","","","","","","",""
"html-keyboard-response","188","492610","0.0-5.0-1.0-2.5","3","0","yw6fql9fvdaz19b","","null","","<p style=""color:#054d00;""><b>Correct!</b></p>","","null","","","","","","","","","","","","","","","","","","","","","","","","","","","","","","","",""
"html-button-response","189","494277","0.0-5.0-1.0-3.5","3","0","yw6fql9fvdaz19b","","1163.7999999988824","","<p>Press the button below when you are ready to continue.</p>","0","","","","","","","","","","","","","","","","","","","","","","","","","","","","","","","","",""
"audio-keyboard-response","190","497265","0.0-5.0-1.0-0.6","3","0","yw6fql9fvdaz19b","","null","","sounds/sentences/left_rev/14_05_cfSWS.wav","","null","","","","","","","","","","","","","","","","","","","","","","","","","","","","","","","",""
"html-button-response","191","497951","0.0-5.0-1.0-1.6","3","0","yw6fql9fvdaz19b","","682","","Was the sound coming from the left or the right?","0","","","1","INDUCTION-JUDGMENT","left","0","","","","","","","","","","","","","","","","","","","","","","","","","","",""
"html-keyboard-response","192","498954","0.0-5.0-1.0-2.6","3","0","yw6fql9fvdaz19b","","null","","<p style=""color:#054d00;""><b>Correct!</b></p>","","null","","","","","","","","","","","","","","","","","","","","","","","","","","","","","","","",""
"html-button-response","193","500417","0.0-5.0-1.0-3.6","3","0","yw6fql9fvdaz19b","","956.1999999992549","","<p>Press the button below when you are ready to continue.</p>","0","","","","","","","","","","","","","","","","","","","","","","","","","","","","","","","","",""
"audio-keyboard-response","194","503174","0.0-5.0-1.0-0.7","3","0","yw6fql9fvdaz19b","","null","","sounds/sentences/right_rev/14_08_cfSWS.wav","","null","","","","","","","","","","","","","","","","","","","","","","","","","","","","","","","",""
"html-button-response","195","503880","0.0-5.0-1.0-1.7","3","0","yw6fql9fvdaz19b","","702.1999999992549","","Was the sound coming from the left or the right?","1","","","1","INDUCTION-JUDGMENT","right","1","","","","","","","","","","","","","","","","","","","","","","","","","","",""
"html-keyboard-response","196","504883","0.0-5.0-1.0-2.7","3","0","yw6fql9fvdaz19b","","null","","<p style=""color:#054d00;""><b>Correct!</b></p>","","null","","","","","","","","","","","","","","","","","","","","","","","","","","","","","","","",""
"html-button-response","197","506281","0.0-5.0-1.0-3.7","3","0","yw6fql9fvdaz19b","","891.0999999996275","","<p>Press the button below when you are ready to continue.</p>","0","","","","","","","","","","","","","","","","","","","","","","","","","","","","","","","","",""
"audio-keyboard-response","198","509100","0.0-5.0-1.0-0.8","3","0","yw6fql9fvdaz19b","","null","","sounds/sentences/left_rev/14_02_cfSWS.wav","","null","","","","","","","","","","","","","","","","","","","","","","","","","","","","","","","",""
"html-button-response","199","509646","0.0-5.0-1.0-1.8","3","0","yw6fql9fvdaz19b","","543.1999999992549","","Was the sound coming from the left or the right?","0","","","1","INDUCTION-JUDGMENT","left","0","","","","","","","","","","","","","","","","","","","","","","","","","","",""
"html-keyboard-response","200","510652","0.0-5.0-1.0-2.8","3","0","yw6fql9fvdaz19b","","null","","<p style=""color:#054d00;""><b>Correct!</b></p>","","null","","","","","","","","","","","","","","","","","","","","","","","","","","","","","","","",""
"html-button-response","201","512121","0.0-5.0-1.0-3.8","3","0","yw6fql9fvdaz19b","","965","","<p>Press the button below when you are ready to continue.</p>","0","","","","","","","","","","","","","","","","","","","","","","","","","","","","","","","","",""
"audio-keyboard-response","202","515137","0.0-5.0-1.0-0.9","3","0","yw6fql9fvdaz19b","","null","","sounds/sentences/right_rev/14_10_cfSWS.wav","","null","","","","","","","","","","","","","","","","","","","","","","","","","","","","","","","",""
"html-button-response","203","515696","0.0-5.0-1.0-1.9","3","0","yw6fql9fvdaz19b","","556.4000000003725","","Was the sound coming from the left or the right?","1","","","1","INDUCTION-JUDGMENT","right","1","","","","","","","","","","","","","","","","","","","","","","","","","","",""
"html-keyboard-response","204","516702","0.0-5.0-1.0-2.9","3","0","yw6fql9fvdaz19b","","null","","<p style=""color:#054d00;""><b>Correct!</b></p>","","null","","","","","","","","","","","","","","","","","","","","","","","","","","","","","","","",""
"html-button-response","205","517984","0.0-5.0-1.0-3.9","3","0","yw6fql9fvdaz19b","","778.5","","<p>Press the button below when you are ready to continue.</p>","0","","","","","","","","","","","","","","","","","","","","","","","","","","","","","","","","",""
"html-keyboard-response","206","548604","0.0-6.0-0.0","3","0","yw6fql9fvdaz19b","","30118.199999999255","","<p>In this part of the study, you will hear sounds similar to those you just heard.</p><p>Please focus on these sounds, as you may be asked questions about them later.</p><p>Occasionally, the sounds will pause for up to two seconds. When this happens, please press SPACEBAR as quickly as you can.</br>This helps ensure that you are paying attention to the sounds.</p><p>This part of the study will take about 12 minutes to complete, and you will be given the opportunity to take a couple of short breaks every few minutes.</p><p><strong>Press SPACEBAR to begin</strong></p>","","32","","","","","","","","","","","","","","","","","","","","","","","","","","","","","","","",""
"html-keyboard-response","207","549610","0.0-6.0-1.0-0.0","3","0","yw6fql9fvdaz19b","","null","","<p style=""font-size: 40px;"">+</p>","","null","","","","","","","","","","","","","","","","","","","","","","","","","","","","","","","",""
"html-keyboard-response","208","734613","0.0-6.0-1.0-1.0","3","0","yw6fql9fvdaz19b","","null","","","","null","","","SL-TRAIN","","","0","1096.300000000745","787.1999999992549","sounds/C/TRAIN/SEQ__11.mp3","2","","","","","","","","","","","","","","","","","","","","","",""
"html-button-response","209","781179","0.0-6.0-1.0-2.0","3","0","yw6fql9fvdaz19b","","46564","","<p>You may take a short break if you wish.</p>","0","","","","","","","","","","","","","","","","","","","","","","","","","","","","","","","","",""
"html-keyboard-response","210","782182","0.0-6.0-1.0-3.0","3","0","yw6fql9fvdaz19b","","null","","<p style=""font-size: 40px;"">+</p>","","null","","","","","","","","","","","","","","","","","","","","","","","","","","","","","","","",""
"html-keyboard-response","211","967185","0.0-6.0-1.0-4.0","3","0","yw6fql9fvdaz19b","","null","","","","null","","","SL-TRAIN","","","1","null","1043.5999999996275","sounds/C/TRAIN/SEQ__06.mp3","4","","","","","","","","","","","","","","","","","","","","","",""
"html-button-response","212","1019847","0.0-6.0-1.0-5.0","3","0","yw6fql9fvdaz19b","","52661.199999999255","","<p>You may take a short break if you wish.</p>","0","","","","","","","","","","","","","","","","","","","","","","","","","","","","","","","","",""
"html-keyboard-response","213","1020851","0.0-6.0-1.0-6.0","3","0","yw6fql9fvdaz19b","","null","","<p style=""font-size: 40px;"">+</p>","","null","","","","","","","","","","","","","","","","","","","","","","","","","","","","","","","",""
"html-keyboard-response","214","1205849","0.0-6.0-1.0-7.0","3","0","yw6fql9fvdaz19b","","null","","","","null","","","SL-TRAIN","","","0","822.4000000003725","972.0999999996275","sounds/C/TRAIN/SEQ__05.mp3","6","","","","","","","","","","","","","","","","","","","","","",""
"html-button-response","215","1262111","0.0-6.0-1.0-8.0","3","0","yw6fql9fvdaz19b","","56262.300000000745","","<p>You may take a short break if you wish.</p>","0","","","","","","","","","","","","","","","","","","","","","","","","","","","","","","","","",""
"html-keyboard-response","216","1263116","0.0-6.0-1.0-9.0","3","0","yw6fql9fvdaz19b","","null","","<p style=""font-size: 40px;"">+</p>","","null","","","","","","","","","","","","","","","","","","","","","","","","","","","","","","","",""
"html-keyboard-response","217","1448117","0.0-6.0-1.0-10.0","3","0","yw6fql9fvdaz19b","","null","","","","null","","","SL-TRAIN","","","0","749.3000000007451","1202.4000000003725","sounds/C/TRAIN/SEQ__10.mp3","11","","","","","","","","","","","","","","","","","","","","","",""
"html-button-response","218","1461494","0.0-6.0-1.0-11.0","3","0","yw6fql9fvdaz19b","","13375.199999999255","","<p>You may take a short break if you wish.</p>","0","","","","","","","","","","","","","","","","","","","","","","","","","","","","","","","","",""
"html-button-response","219","1474028","0.0-7.0-0.0","3","0","yw6fql9fvdaz19b","","12532.60000000149","","<p>Welcome to the second part of the study. This is a <u>familiarity task</u>.</p><p>You will now hear short sounds and will be asked to rate how familiar they sound to you <b>based on what you heard in the previous part of the study</b>.</p><p>You will rate 12 sounds in total.</p>","0","","","","","","","","","","","","","","","","","","","","","","","","","","","","","","","","",""
"html-keyboard-response","220","1475031","0.0-7.0-1.0-0.0","3","0","yw6fql9fvdaz19b","","null","","","","null","","","","","","","","","","","","","","","","","","","","","","","","","","","","","","","",""
"audio-keyboard-response","221","1476007","0.0-7.0-1.0-1.0","3","0","yw6fql9fvdaz19b","","null","","sounds/C/FAM/W002.mp3","","null","","","","","","","","","","","","","","","","","","","","","","","","","","","","","","","",""
"html-keyboard-response","222","1481389","0.0-7.0-1.0-2.0","3","0","yw6fql9fvdaz19b","","4874.5","","<p>How familiar did this sound to you?</p><p>1&nbsp;&nbsp;&nbsp;&nbsp;&nbsp;&nbsp;&nbsp;&nbsp;&nbsp;&nbsp;&nbsp;&nbsp;&nbsp;&nbsp;&nbsp;&nbsp;&nbsp;&nbsp;&nbsp;2&nbsp;&nbsp;&nbsp;&nbsp;&nbsp;&nbsp;&nbsp;&nbsp;&nbsp;&nbsp;&nbsp;&nbsp;&nbsp;&nbsp;&nbsp;&nbsp;&nbsp;&nbsp;&nbsp;3&nbsp;&nbsp;&nbsp;&nbsp;&nbsp;&nbsp;&nbsp;&nbsp;&nbsp;&nbsp;&nbsp;&nbsp;&nbsp;&nbsp;&nbsp;&nbsp;&nbsp;&nbsp;&nbsp;4</p><p style=""font-size:14px"">Not at all familiar&nbsp;&nbsp;&nbsp;&nbsp;A little familiar&nbsp;&nbsp;&nbsp;Moderately familiar&nbsp;&nbsp;&nbsp;Extremely familiar</p><p>(press the corresponding number on your keyboard)</p>","","52","","","FAM-RESPONSE","","","","","","","","sounds/C/FAM/W002.mp3","word","","","","","","","","","","","","","","","","","","","",""
"html-keyboard-response","223","1483393","0.0-7.0-1.0-0.1","3","0","yw6fql9fvdaz19b","","null","","","","null","","","","","","","","","","","","","","","","","","","","","","","","","","","","","","","",""
"audio-keyboard-response","224","1484338","0.0-7.0-1.0-1.1","3","0","yw6fql9fvdaz19b","","null","","sounds/C/FAM/P004.mp3","","null","","","","","","","","","","","","","","","","","","","","","","","","","","","","","","","",""
"html-keyboard-response","225","1486193","0.0-7.0-1.0-2.1","3","0","yw6fql9fvdaz19b","","1351.4000000003725","","<p>How familiar did this sound to you?</p><p>1&nbsp;&nbsp;&nbsp;&nbsp;&nbsp;&nbsp;&nbsp;&nbsp;&nbsp;&nbsp;&nbsp;&nbsp;&nbsp;&nbsp;&nbsp;&nbsp;&nbsp;&nbsp;&nbsp;2&nbsp;&nbsp;&nbsp;&nbsp;&nbsp;&nbsp;&nbsp;&nbsp;&nbsp;&nbsp;&nbsp;&nbsp;&nbsp;&nbsp;&nbsp;&nbsp;&nbsp;&nbsp;&nbsp;3&nbsp;&nbsp;&nbsp;&nbsp;&nbsp;&nbsp;&nbsp;&nbsp;&nbsp;&nbsp;&nbsp;&nbsp;&nbsp;&nbsp;&nbsp;&nbsp;&nbsp;&nbsp;&nbsp;4</p><p style=""font-size:14px"">Not at all familiar&nbsp;&nbsp;&nbsp;&nbsp;A little familiar&nbsp;&nbsp;&nbsp;Moderately familiar&nbsp;&nbsp;&nbsp;Extremely familiar</p><p>(press the corresponding number on your keyboard)</p>","","52","","","FAM-RESPONSE","","","","","","","","sounds/C/FAM/P004.mp3","partword","","","","","","","","","","","","","","","","","","","",""
"html-keyboard-response","226","1488199","0.0-7.0-1.0-0.2","3","0","yw6fql9fvdaz19b","","null","","","","null","","","","","","","","","","","","","","","","","","","","","","","","","","","","","","","",""
"audio-keyboard-response","227","1489143","0.0-7.0-1.0-1.2","3","0","yw6fql9fvdaz19b","","null","","sounds/C/FAM/W003.mp3","","null","","","","","","","","","","","","","","","","","","","","","","","","","","","","","","","",""
"html-keyboard-response","228","1489881","0.0-7.0-1.0-2.2","3","0","yw6fql9fvdaz19b","","232.90000000037253","","<p>How familiar did this sound to you?</p><p>1&nbsp;&nbsp;&nbsp;&nbsp;&nbsp;&nbsp;&nbsp;&nbsp;&nbsp;&nbsp;&nbsp;&nbsp;&nbsp;&nbsp;&nbsp;&nbsp;&nbsp;&nbsp;&nbsp;2&nbsp;&nbsp;&nbsp;&nbsp;&nbsp;&nbsp;&nbsp;&nbsp;&nbsp;&nbsp;&nbsp;&nbsp;&nbsp;&nbsp;&nbsp;&nbsp;&nbsp;&nbsp;&nbsp;3&nbsp;&nbsp;&nbsp;&nbsp;&nbsp;&nbsp;&nbsp;&nbsp;&nbsp;&nbsp;&nbsp;&nbsp;&nbsp;&nbsp;&nbsp;&nbsp;&nbsp;&nbsp;&nbsp;4</p><p style=""font-size:14px"">Not at all familiar&nbsp;&nbsp;&nbsp;&nbsp;A little familiar&nbsp;&nbsp;&nbsp;Moderately familiar&nbsp;&nbsp;&nbsp;Extremely familiar</p><p>(press the corresponding number on your keyboard)</p>","","52","","","FAM-RESPONSE","","","","","","","","sounds/C/FAM/W003.mp3","word","","","","","","","","","","","","","","","","","","","",""
"html-keyboard-response","229","1491892","0.0-7.0-1.0-0.3","3","0","yw6fql9fvdaz19b","","null","","","","null","","","","","","","","","","","","","","","","","","","","","","","","","","","","","","","",""
"audio-keyboard-response","230","1492834","0.0-7.0-1.0-1.3","3","0","yw6fql9fvdaz19b","","null","","sounds/C/FAM/W004.mp3","","null","","","","","","","","","","","","","","","","","","","","","","","","","","","","","","","",""
"html-keyboard-response","231","1494677","0.0-7.0-1.0-2.3","3","0","yw6fql9fvdaz19b","","1340.5999999996275","","<p>How familiar did this sound to you?</p><p>1&nbsp;&nbsp;&nbsp;&nbsp;&nbsp;&nbsp;&nbsp;&nbsp;&nbsp;&nbsp;&nbsp;&nbsp;&nbsp;&nbsp;&nbsp;&nbsp;&nbsp;&nbsp;&nbsp;2&nbsp;&nbsp;&nbsp;&nbsp;&nbsp;&nbsp;&nbsp;&nbsp;&nbsp;&nbsp;&nbsp;&nbsp;&nbsp;&nbsp;&nbsp;&nbsp;&nbsp;&nbsp;&nbsp;3&nbsp;&nbsp;&nbsp;&nbsp;&nbsp;&nbsp;&nbsp;&nbsp;&nbsp;&nbsp;&nbsp;&nbsp;&nbsp;&nbsp;&nbsp;&nbsp;&nbsp;&nbsp;&nbsp;4</p><p style=""font-size:14px"">Not at all familiar&nbsp;&nbsp;&nbsp;&nbsp;A little familiar&nbsp;&nbsp;&nbsp;Moderately familiar&nbsp;&nbsp;&nbsp;Extremely familiar</p><p>(press the corresponding number on your keyboard)</p>","","52","","","FAM-RESPONSE","","","","","","","","sounds/C/FAM/W004.mp3","word","","","","","","","","","","","","","","","","","","","",""
"html-keyboard-response","232","1496685","0.0-7.0-1.0-0.4","3","0","yw6fql9fvdaz19b","","null","","","","null","","","","","","","","","","","","","","","","","","","","","","","","","","","","","","","",""
"audio-keyboard-response","233","1497629","0.0-7.0-1.0-1.4","3","0","yw6fql9fvdaz19b","","null","","sounds/C/FAM/W001.mp3","","null","","","","","","","","","","","","","","","","","","","","","","","","","","","","","","","",""
"html-keyboard-response","234","1498927","0.0-7.0-1.0-2.4","3","0","yw6fql9fvdaz19b","","791.1999999992549","","<p>How familiar did this sound to you?</p><p>1&nbsp;&nbsp;&nbsp;&nbsp;&nbsp;&nbsp;&nbsp;&nbsp;&nbsp;&nbsp;&nbsp;&nbsp;&nbsp;&nbsp;&nbsp;&nbsp;&nbsp;&nbsp;&nbsp;2&nbsp;&nbsp;&nbsp;&nbsp;&nbsp;&nbsp;&nbsp;&nbsp;&nbsp;&nbsp;&nbsp;&nbsp;&nbsp;&nbsp;&nbsp;&nbsp;&nbsp;&nbsp;&nbsp;3&nbsp;&nbsp;&nbsp;&nbsp;&nbsp;&nbsp;&nbsp;&nbsp;&nbsp;&nbsp;&nbsp;&nbsp;&nbsp;&nbsp;&nbsp;&nbsp;&nbsp;&nbsp;&nbsp;4</p><p style=""font-size:14px"">Not at all familiar&nbsp;&nbsp;&nbsp;&nbsp;A little familiar&nbsp;&nbsp;&nbsp;Moderately familiar&nbsp;&nbsp;&nbsp;Extremely familiar</p><p>(press the corresponding number on your keyboard)</p>","","51","","","FAM-RESPONSE","","","","","","","","sounds/C/FAM/W001.mp3","word","","","","","","","","","","","","","","","","","","","",""
"html-keyboard-response","235","1500939","0.0-7.0-1.0-0.5","3","0","yw6fql9fvdaz19b","","null","","","","null","","","","","","","","","","","","","","","","","","","","","","","","","","","","","","","",""
"audio-keyboard-response","236","1501884","0.0-7.0-1.0-1.5","3","0","yw6fql9fvdaz19b","","null","","sounds/C/FAM/N001.mp3","","null","","","","","","","","","","","","","","","","","","","","","","","","","","","","","","","",""
"html-keyboard-response","237","1503230","0.0-7.0-1.0-2.5","3","0","yw6fql9fvdaz19b","","838.4000000003725","","<p>How familiar did this sound to you?</p><p>1&nbsp;&nbsp;&nbsp;&nbsp;&nbsp;&nbsp;&nbsp;&nbsp;&nbsp;&nbsp;&nbsp;&nbsp;&nbsp;&nbsp;&nbsp;&nbsp;&nbsp;&nbsp;&nbsp;2&nbsp;&nbsp;&nbsp;&nbsp;&nbsp;&nbsp;&nbsp;&nbsp;&nbsp;&nbsp;&nbsp;&nbsp;&nbsp;&nbsp;&nbsp;&nbsp;&nbsp;&nbsp;&nbsp;3&nbsp;&nbsp;&nbsp;&nbsp;&nbsp;&nbsp;&nbsp;&nbsp;&nbsp;&nbsp;&nbsp;&nbsp;&nbsp;&nbsp;&nbsp;&nbsp;&nbsp;&nbsp;&nbsp;4</p><p style=""font-size:14px"">Not at all familiar&nbsp;&nbsp;&nbsp;&nbsp;A little familiar&nbsp;&nbsp;&nbsp;Moderately familiar&nbsp;&nbsp;&nbsp;Extremely familiar</p><p>(press the corresponding number on your keyboard)</p>","","51","","","FAM-RESPONSE","","","","","","","","sounds/C/FAM/N001.mp3","nonword","","","","","","","","","","","","","","","","","","","",""
"html-keyboard-response","238","1505238","0.0-7.0-1.0-0.6","3","0","yw6fql9fvdaz19b","","null","","","","null","","","","","","","","","","","","","","","","","","","","","","","","","","","","","","","",""
"audio-keyboard-response","239","1506178","0.0-7.0-1.0-1.6","3","0","yw6fql9fvdaz19b","","null","","sounds/C/FAM/N002.mp3","","null","","","","","","","","","","","","","","","","","","","","","","","","","","","","","","","",""
"html-keyboard-response","240","1509398","0.0-7.0-1.0-2.6","3","0","yw6fql9fvdaz19b","","2718.4000000003725","","<p>How familiar did this sound to you?</p><p>1&nbsp;&nbsp;&nbsp;&nbsp;&nbsp;&nbsp;&nbsp;&nbsp;&nbsp;&nbsp;&nbsp;&nbsp;&nbsp;&nbsp;&nbsp;&nbsp;&nbsp;&nbsp;&nbsp;2&nbsp;&nbsp;&nbsp;&nbsp;&nbsp;&nbsp;&nbsp;&nbsp;&nbsp;&nbsp;&nbsp;&nbsp;&nbsp;&nbsp;&nbsp;&nbsp;&nbsp;&nbsp;&nbsp;3&nbsp;&nbsp;&nbsp;&nbsp;&nbsp;&nbsp;&nbsp;&nbsp;&nbsp;&nbsp;&nbsp;&nbsp;&nbsp;&nbsp;&nbsp;&nbsp;&nbsp;&nbsp;&nbsp;4</p><p style=""font-size:14px"">Not at all familiar&nbsp;&nbsp;&nbsp;&nbsp;A little familiar&nbsp;&nbsp;&nbsp;Moderately familiar&nbsp;&nbsp;&nbsp;Extremely familiar</p><p>(press the corresponding number on your keyboard)</p>","","52","","","FAM-RESPONSE","","","","","","","","sounds/C/FAM/N002.mp3","nonword","","","","","","","","","","","","","","","","","","","",""
"html-keyboard-response","241","1511406","0.0-7.0-1.0-0.7","3","0","yw6fql9fvdaz19b","","null","","","","null","","","","","","","","","","","","","","","","","","","","","","","","","","","","","","","",""
"audio-keyboard-response","242","1512348","0.0-7.0-1.0-1.7","3","0","yw6fql9fvdaz19b","","null","","sounds/C/FAM/P001.mp3","","null","","","","","","","","","","","","","","","","","","","","","","","","","","","","","","","",""
"html-keyboard-response","243","1513190","0.0-7.0-1.0-2.7","3","0","yw6fql9fvdaz19b","","334.59999999962747","","<p>How familiar did this sound to you?</p><p>1&nbsp;&nbsp;&nbsp;&nbsp;&nbsp;&nbsp;&nbsp;&nbsp;&nbsp;&nbsp;&nbsp;&nbsp;&nbsp;&nbsp;&nbsp;&nbsp;&nbsp;&nbsp;&nbsp;2&nbsp;&nbsp;&nbsp;&nbsp;&nbsp;&nbsp;&nbsp;&nbsp;&nbsp;&nbsp;&nbsp;&nbsp;&nbsp;&nbsp;&nbsp;&nbsp;&nbsp;&nbsp;&nbsp;3&nbsp;&nbsp;&nbsp;&nbsp;&nbsp;&nbsp;&nbsp;&nbsp;&nbsp;&nbsp;&nbsp;&nbsp;&nbsp;&nbsp;&nbsp;&nbsp;&nbsp;&nbsp;&nbsp;4</p><p style=""font-size:14px"">Not at all familiar&nbsp;&nbsp;&nbsp;&nbsp;A little familiar&nbsp;&nbsp;&nbsp;Moderately familiar&nbsp;&nbsp;&nbsp;Extremely familiar</p><p>(press the corresponding number on your keyboard)</p>","","52","","","FAM-RESPONSE","","","","","","","","sounds/C/FAM/P001.mp3","partword","","","","","","","","","","","","","","","","","","","",""
"html-keyboard-response","244","1515200","0.0-7.0-1.0-0.8","3","0","yw6fql9fvdaz19b","","null","","","","null","","","","","","","","","","","","","","","","","","","","","","","","","","","","","","","",""
"audio-keyboard-response","245","1516146","0.0-7.0-1.0-1.8","3","0","yw6fql9fvdaz19b","","null","","sounds/C/FAM/P003.mp3","","null","","","","","","","","","","","","","","","","","","","","","","","","","","","","","","","",""
"html-keyboard-response","246","1517465","0.0-7.0-1.0-2.8","3","0","yw6fql9fvdaz19b","","815.5","","<p>How familiar did this sound to you?</p><p>1&nbsp;&nbsp;&nbsp;&nbsp;&nbsp;&nbsp;&nbsp;&nbsp;&nbsp;&nbsp;&nbsp;&nbsp;&nbsp;&nbsp;&nbsp;&nbsp;&nbsp;&nbsp;&nbsp;2&nbsp;&nbsp;&nbsp;&nbsp;&nbsp;&nbsp;&nbsp;&nbsp;&nbsp;&nbsp;&nbsp;&nbsp;&nbsp;&nbsp;&nbsp;&nbsp;&nbsp;&nbsp;&nbsp;3&nbsp;&nbsp;&nbsp;&nbsp;&nbsp;&nbsp;&nbsp;&nbsp;&nbsp;&nbsp;&nbsp;&nbsp;&nbsp;&nbsp;&nbsp;&nbsp;&nbsp;&nbsp;&nbsp;4</p><p style=""font-size:14px"">Not at all familiar&nbsp;&nbsp;&nbsp;&nbsp;A little familiar&nbsp;&nbsp;&nbsp;Moderately familiar&nbsp;&nbsp;&nbsp;Extremely familiar</p><p>(press the corresponding number on your keyboard)</p>","","51","","","FAM-RESPONSE","","","","","","","","sounds/C/FAM/P003.mp3","partword","","","","","","","","","","","","","","","","","","","",""
"html-keyboard-response","247","1519471","0.0-7.0-1.0-0.9","3","0","yw6fql9fvdaz19b","","null","","","","null","","","","","","","","","","","","","","","","","","","","","","","","","","","","","","","",""
"audio-keyboard-response","248","1520418","0.0-7.0-1.0-1.9","3","0","yw6fql9fvdaz19b","","null","","sounds/C/FAM/P002.mp3","","null","","","","","","","","","","","","","","","","","","","","","","","","","","","","","","","",""
"html-keyboard-response","249","1521467","0.0-7.0-1.0-2.9","3","0","yw6fql9fvdaz19b","","542.2999999988824","","<p>How familiar did this sound to you?</p><p>1&nbsp;&nbsp;&nbsp;&nbsp;&nbsp;&nbsp;&nbsp;&nbsp;&nbsp;&nbsp;&nbsp;&nbsp;&nbsp;&nbsp;&nbsp;&nbsp;&nbsp;&nbsp;&nbsp;2&nbsp;&nbsp;&nbsp;&nbsp;&nbsp;&nbsp;&nbsp;&nbsp;&nbsp;&nbsp;&nbsp;&nbsp;&nbsp;&nbsp;&nbsp;&nbsp;&nbsp;&nbsp;&nbsp;3&nbsp;&nbsp;&nbsp;&nbsp;&nbsp;&nbsp;&nbsp;&nbsp;&nbsp;&nbsp;&nbsp;&nbsp;&nbsp;&nbsp;&nbsp;&nbsp;&nbsp;&nbsp;&nbsp;4</p><p style=""font-size:14px"">Not at all familiar&nbsp;&nbsp;&nbsp;&nbsp;A little familiar&nbsp;&nbsp;&nbsp;Moderately familiar&nbsp;&nbsp;&nbsp;Extremely familiar</p><p>(press the corresponding number on your keyboard)</p>","","51","","","FAM-RESPONSE","","","","","","","","sounds/C/FAM/P002.mp3","partword","","","","","","","","","","","","","","","","","","","",""
"html-keyboard-response","250","1523475","0.0-7.0-1.0-0.10","3","0","yw6fql9fvdaz19b","","null","","","","null","","","","","","","","","","","","","","","","","","","","","","","","","","","","","","","",""
"audio-keyboard-response","251","1524418","0.0-7.0-1.0-1.10","3","0","yw6fql9fvdaz19b","","null","","sounds/C/FAM/N003.mp3","","null","","","","","","","","","","","","","","","","","","","","","","","","","","","","","","","",""
"html-keyboard-response","252","1525164","0.0-7.0-1.0-2.10","3","0","yw6fql9fvdaz19b","","239.40000000037253","","<p>How familiar did this sound to you?</p><p>1&nbsp;&nbsp;&nbsp;&nbsp;&nbsp;&nbsp;&nbsp;&nbsp;&nbsp;&nbsp;&nbsp;&nbsp;&nbsp;&nbsp;&nbsp;&nbsp;&nbsp;&nbsp;&nbsp;2&nbsp;&nbsp;&nbsp;&nbsp;&nbsp;&nbsp;&nbsp;&nbsp;&nbsp;&nbsp;&nbsp;&nbsp;&nbsp;&nbsp;&nbsp;&nbsp;&nbsp;&nbsp;&nbsp;3&nbsp;&nbsp;&nbsp;&nbsp;&nbsp;&nbsp;&nbsp;&nbsp;&nbsp;&nbsp;&nbsp;&nbsp;&nbsp;&nbsp;&nbsp;&nbsp;&nbsp;&nbsp;&nbsp;4</p><p style=""font-size:14px"">Not at all familiar&nbsp;&nbsp;&nbsp;&nbsp;A little familiar&nbsp;&nbsp;&nbsp;Moderately familiar&nbsp;&nbsp;&nbsp;Extremely familiar</p><p>(press the corresponding number on your keyboard)</p>","","51","","","FAM-RESPONSE","","","","","","","","sounds/C/FAM/N003.mp3","nonword","","","","","","","","","","","","","","","","","","","",""
"html-keyboard-response","253","1527175","0.0-7.0-1.0-0.11","3","0","yw6fql9fvdaz19b","","null","","","","null","","","","","","","","","","","","","","","","","","","","","","","","","","","","","","","",""
"audio-keyboard-response","254","1528119","0.0-7.0-1.0-1.11","3","0","yw6fql9fvdaz19b","","null","","sounds/C/FAM/N004.mp3","","null","","","","","","","","","","","","","","","","","","","","","","","","","","","","","","","",""
"html-keyboard-response","255","1529142","0.0-7.0-1.0-2.11","3","0","yw6fql9fvdaz19b","","515.5999999996275","","<p>How familiar did this sound to you?</p><p>1&nbsp;&nbsp;&nbsp;&nbsp;&nbsp;&nbsp;&nbsp;&nbsp;&nbsp;&nbsp;&nbsp;&nbsp;&nbsp;&nbsp;&nbsp;&nbsp;&nbsp;&nbsp;&nbsp;2&nbsp;&nbsp;&nbsp;&nbsp;&nbsp;&nbsp;&nbsp;&nbsp;&nbsp;&nbsp;&nbsp;&nbsp;&nbsp;&nbsp;&nbsp;&nbsp;&nbsp;&nbsp;&nbsp;3&nbsp;&nbsp;&nbsp;&nbsp;&nbsp;&nbsp;&nbsp;&nbsp;&nbsp;&nbsp;&nbsp;&nbsp;&nbsp;&nbsp;&nbsp;&nbsp;&nbsp;&nbsp;&nbsp;4</p><p style=""font-size:14px"">Not at all familiar&nbsp;&nbsp;&nbsp;&nbsp;A little familiar&nbsp;&nbsp;&nbsp;Moderately familiar&nbsp;&nbsp;&nbsp;Extremely familiar</p><p>(press the corresponding number on your keyboard)</p>","","51","","","FAM-RESPONSE","","","","","","","","sounds/C/FAM/N004.mp3","nonword","","","","","","","","","","","","","","","","","","","",""
"html-button-response","256","1544515","0.0-8.0-0.0","3","0","yw6fql9fvdaz19b","","14366","","<p>You will now listen to longer sound sequences.</p><p>Each sound sequence will last about 16 seconds.</p><p>On each trial, you will be given a <u>TARGET SOUND</u>. Your task is to listen very carefully for this sound.</p><p>Every time you hear the <u>TARGET SOUND</u>, you will press the <b>SPACEBAR</b> as quickly and accurately as you can.</p>","0","","","","","","","","","","","","","","","","","","","","","","","","","","","","","","","","",""
"html-button-response","257","1561054","0.0-8.0-1.0","3","0","yw6fql9fvdaz19b","","16279.700000001118","","<p>It is very important that you make your responses as quickly and accurately as possible.</p><p>To help you make your responses, you will be able to listen to the <u>TARGET SOUND</u> at the beginning of each trial.</p><p>There will be 36 total trials.</p><p><b>Note: This is meant to be a difficult task. We simply want you to try your best.</p>","0","","","","","","","","","","","","","","","","","","","","","","","","","","","","","","","","",""
"html-button-response","258","1563057","0.0-8.0-2.0-0.0","3","0","yw6fql9fvdaz19b","","1746.0999999996275","","<p>Trial 1 of 36</p>","0","","","","","","","","","","","","","","ME","sounds/syllables/me_SWS.wav","3600,8100,10800,12600","1","","","","","","","","","","","","","","","",""
"html-keyboard-response","259","1567430","0.0-8.0-2.0-1.0","3","0","yw6fql9fvdaz19b","","4370.199999999255","","","","80","","","","","","","","","","","","","ME","","3600,8100,10800,12600","1","","","","","","","","","","","","","","","",""
"audio-keyboard-response","260","1567763","0.0-8.0-2.0-2.0-0.0","3","0","yw6fql9fvdaz19b","","null","","sounds/syllables/me_SWS.wav","","null","","","","","","","","","","","","","","","","","","","","","","","","","","","","","","","",""
"html-keyboard-response","261","1570924","0.0-8.0-2.0-2.0-1.0","3","0","yw6fql9fvdaz19b","","3159.9000000003725","","<p>To replay the <u>TARGET SOUND</u>, press P.</p> When you are ready to begin, press SPACEBAR.","","80","","","","","","","","","","","","","","","","","","","","","","","","","","","","","","","",""
"audio-keyboard-response","262","1571731","0.0-8.0-2.0-2.1-0.1","3","0","yw6fql9fvdaz19b","","null","","sounds/syllables/me_SWS.wav","","null","","","","","","","","","","","","","","","","","","","","","","","","","","","","","","","",""
"html-keyboard-response","263","1573486","0.0-8.0-2.0-2.1-1.1","3","0","yw6fql9fvdaz19b","","1753.0999999996275","","<p>To replay the <u>TARGET SOUND</u>, press P.</p> When you are ready to begin, press SPACEBAR.","","32","","","","","","","","","","","","","","","","","","","","","","","","","","","","","","","",""
"audio-keyboard-response","264","1588436","0.0-8.0-2.0-3.0","3","0","yw6fql9fvdaz19b","","3296","","sounds/C/TD/ME_01_TD.mp3","","32","","","TD_SUMMARY","","","","","","","","","","ME","","3600,8100,10800,12600","1","3600","8100","10800","12600","null","null","207.5","null","3297.10000000149_7217_11007.5_12771.900000000373","2","","","","","",""
"html-button-response","265","1590305","0.0-8.0-2.0-0.1","3","0","yw6fql9fvdaz19b","","1865.9000000003725","","<p>Trial 2 of 36</p>","0","","","","","","","","","","","","","","PU","sounds/syllables/pu_SWS.wav","2400,4200,6900,13200","3","","","","","","","","","","","","","","","",""
"html-keyboard-response","266","1592512","0.0-8.0-2.0-1.1","3","0","yw6fql9fvdaz19b","","2204.7999999988824","","","","80","","","","","","","","","","","","","PU","","2400,4200,6900,13200","3","","","","","","","","","","","","","","","",""
"audio-keyboard-response","267","1592813","0.0-8.0-2.0-2.2-0.2","3","0","yw6fql9fvdaz19b","","null","","sounds/syllables/pu_SWS.wav","","null","","","","","","","","","","","","","","","","","","","","","","","","","","","","","","","",""
"html-keyboard-response","268","1594325","0.0-8.0-2.0-2.2-1.2","3","0","yw6fql9fvdaz19b","","1510.0999999996275","","<p>To replay the <u>TARGET SOUND</u>, press P.</p> When you are ready to begin, press SPACEBAR.","","80","","","","","","","","","","","","","","","","","","","","","","","","","","","","","","","",""
"audio-keyboard-response","269","1595128","0.0-8.0-2.0-2.3-0.3","3","0","yw6fql9fvdaz19b","","null","","sounds/syllables/pu_SWS.wav","","null","","","","","","","","","","","","","","","","","","","","","","","","","","","","","","","",""
"html-keyboard-response","270","1598193","0.0-8.0-2.0-2.3-1.3","3","0","yw6fql9fvdaz19b","","3063.0999999996275","","<p>To replay the <u>TARGET SOUND</u>, press P.</p> When you are ready to begin, press SPACEBAR.","","32","","","","","","","","","","","","","","","","","","","","","","","","","","","","","","","",""
"audio-keyboard-response","271","1613144","0.0-8.0-2.0-3.1","3","0","yw6fql9fvdaz19b","","939","","sounds/C/TD/PU_02_TD.mp3","","32","","","TD_SUMMARY","","","","","","","","","","PU","","2400,4200,6900,13200","3","2400","4200","6900","13200","490.5","775","678.3999999985099","null","____938.3999999985099_2505.5_2890.5_4498.0999999996275_4975_6465.39999999851_7578.39999999851_10494.199999999255_10663.89999999851_10868.099999997765_12942.39999999851_13258.5","2","","","","","",""
"html-button-response","272","1614410","0.0-8.0-2.0-0.2","3","0","yw6fql9fvdaz19b","","1263.199999999255","","<p>Trial 3 of 36</p>","0","","","","","","","","","","","","","","NI","sounds/syllables/ni_SWS.wav","900,7200,9000,11700","1","","","","","","","","","","","","","","","",""
"html-keyboard-response","273","1616543","0.0-8.0-2.0-1.2","3","0","yw6fql9fvdaz19b","","2132.199999999255","","","","80","","","","","","","","","","","","","NI","","900,7200,9000,11700","1","","","","","","","","","","","","","","","",""
"audio-keyboard-response","274","1616845","0.0-8.0-2.0-2.4-0.4","3","0","yw6fql9fvdaz19b","","null","","sounds/syllables/ni_SWS.wav","","null","","","","","","","","","","","","","","","","","","","","","","","","","","","","","","","",""
"html-keyboard-response","275","1619123","0.0-8.0-2.0-2.4-1.4","3","0","yw6fql9fvdaz19b","","2277.39999999851","","<p>To replay the <u>TARGET SOUND</u>, press P.</p> When you are ready to begin, press SPACEBAR.","","32","","","","","","","","","","","","","","","","","","","","","","","","","","","","","","","",""
"audio-keyboard-response","276","1634072","0.0-8.0-2.0-3.2","3","0","yw6fql9fvdaz19b","","1259","","sounds/C/TD/NI_06_TD.mp3","","32","","","TD_SUMMARY","","","","","","","","","","NI","","900,7200,9000,11700","1","900","7200","9000","11700","359.3999999985099","404.69999999925494","494.0999999977648","658","________________1259.3999999985099_2902.199999999255_5619.39999999851_7604.699999999255_9177.699999999255_9494.099999997765_12065.39999999851_12358","1","","","","","",""
"html-button-response","277","1635097","0.0-8.0-2.0-0.3","3","0","yw6fql9fvdaz19b","","1022.3999999985099","","<p>Trial 4 of 36</p>","0","","","","","","","","","","","","","","TI","sounds/syllables/ti_SWS.wav","2400,4200,7800,12300","3","","","","","","","","","","","","","","","",""
"html-keyboard-response","278","1636270","0.0-8.0-2.0-1.3","3","0","yw6fql9fvdaz19b","","1171.1000000014901","","","","80","","","","","","","","","","","","","TI","","2400,4200,7800,12300","3","","","","","","","","","","","","","","","",""
"audio-keyboard-response","279","1636573","0.0-8.0-2.0-2.5-0.5","3","0","yw6fql9fvdaz19b","","null","","sounds/syllables/ti_SWS.wav","","null","","","","","","","","","","","","","","","","","","","","","","","","","","","","","","","",""
"html-keyboard-response","280","1637298","0.0-8.0-2.0-2.5-1.5","3","0","yw6fql9fvdaz19b","","724.1999999992549","","<p>To replay the <u>TARGET SOUND</u>, press P.</p> When you are ready to begin, press SPACEBAR.","","80","","","","","","","","","","","","","","","","","","","","","","","","","","","","","","","",""
"audio-keyboard-response","281","1638103","0.0-8.0-2.0-2.6-0.6","3","0","yw6fql9fvdaz19b","","null","","sounds/syllables/ti_SWS.wav","","null","","","","","","","","","","","","","","","","","","","","","","","","","","","","","","","",""
"html-keyboard-response","282","1638988","0.0-8.0-2.0-2.6-1.6","3","0","yw6fql9fvdaz19b","","883.3000000007451","","<p>To replay the <u>TARGET SOUND</u>, press P.</p> When you are ready to begin, press SPACEBAR.","","32","","","","","","","","","","","","","","","","","","","","","","","","","","","","","","","",""
"audio-keyboard-response","283","1653938","0.0-8.0-2.0-3.3","3","0","yw6fql9fvdaz19b","","1413","","sounds/C/TD/TI_06_TD.mp3","","32","","","TD_SUMMARY","","","","","","","","","","TI","","2400,4200,7800,12300","3","2400","4200","7800","12300","348.6000000014901","null","654","null","________________________1412.5_2748.60000000149_3913.10000000149_7490.199999999255_8243.199999999255_8454_10231.39999999851_12022.300000000745_13736.5","2","","","","","",""
"html-button-response","284","1655094","0.0-8.0-2.0-0.4","3","0","yw6fql9fvdaz19b","","1153.0999999977648","","<p>Trial 5 of 36</p>","0","","","","","","","","","","","","","","KO","sounds/syllables/ko_SWS.wav","1800,6300,8100,12600","1","","","","","","","","","","","","","","","",""
"html-keyboard-response","285","1656023","0.0-8.0-2.0-1.4","3","0","yw6fql9fvdaz19b","","927.6999999992549","","","","80","","","","","","","","","","","","","KO","","1800,6300,8100,12600","1","","","","","","","","","","","","","","","",""
"audio-keyboard-response","286","1656327","0.0-8.0-2.0-2.7-0.7","3","0","yw6fql9fvdaz19b","","null","","sounds/syllables/ko_SWS.wav","","null","","","","","","","","","","","","","","","","","","","","","","","","","","","","","","","",""
"html-keyboard-response","287","1656745","0.0-8.0-2.0-2.7-1.7","3","0","yw6fql9fvdaz19b","","416.5","","<p>To replay the <u>TARGET SOUND</u>, press P.</p> When you are ready to begin, press SPACEBAR.","","80","","","","","","","","","","","","","","","","","","","","","","","","","","","","","","","",""
"audio-keyboard-response","288","1657554","0.0-8.0-2.0-2.8-0.8","3","0","yw6fql9fvdaz19b","","null","","sounds/syllables/ko_SWS.wav","","null","","","","","","","","","","","","","","","","","","","","","","","","","","","","","","","",""
"html-keyboard-response","289","1658126","0.0-8.0-2.0-2.8-1.8","3","0","yw6fql9fvdaz19b","","571.5999999977648","","<p>To replay the <u>TARGET SOUND</u>, press P.</p> When you are ready to begin, press SPACEBAR.","","32","","","","","","","","","","","","","","","","","","","","","","","","","","","","","","","",""
"audio-keyboard-response","290","1673074","0.0-8.0-2.0-3.4","3","0","yw6fql9fvdaz19b","","1072","","sounds/C/TD/KO_01_TD.mp3","","32","","","TD_SUMMARY","","","","","","","","","","KO","","1800,6300,8100,12600","1","1800","6300","8100","12600","346.79999999701977","null","465.19999999925494","null","_________________________________1071.8999999985099_2146.7999999970198_5428.599999997765_5816.099999997765_8365.39999999851_8565.199999999255_11857.39999999851_12226.89999999851","2","","","","","",""
"html-button-response","291","1674658","0.0-8.0-2.0-0.5","3","0","yw6fql9fvdaz19b","","1581.2999999970198","","<p>Trial 6 of 36</p>","0","","","","","","","","","","","","","","FE","sounds/syllables/fe_SWS.wav","2100,3900,5700,11100","2","","","","","","","","","","","","","","","",""
"html-keyboard-response","292","1676042","0.0-8.0-2.0-1.5","3","0","yw6fql9fvdaz19b","","1382.300000000745","","","","80","","","","","","","","","","","","","FE","","2100,3900,5700,11100","2","","","","","","","","","","","","","","","",""
"audio-keyboard-response","293","1676343","0.0-8.0-2.0-2.9-0.9","3","0","yw6fql9fvdaz19b","","null","","sounds/syllables/fe_SWS.wav","","null","","","","","","","","","","","","","","","","","","","","","","","","","","","","","","","",""
"html-keyboard-response","294","1676705","0.0-8.0-2.0-2.9-1.9","3","0","yw6fql9fvdaz19b","","360.79999999701977","","<p>To replay the <u>TARGET SOUND</u>, press P.</p> When you are ready to begin, press SPACEBAR.","","80","","","","","","","","","","","","","","","","","","","","","","","","","","","","","","","",""
"audio-keyboard-response","295","1677511","0.0-8.0-2.0-2.10-0.10","3","0","yw6fql9fvdaz19b","","null","","sounds/syllables/fe_SWS.wav","","null","","","","","","","","","","","","","","","","","","","","","","","","","","","","","","","",""
"html-keyboard-response","296","1677898","0.0-8.0-2.0-2.10-1.10","3","0","yw6fql9fvdaz19b","","386.3999999985099","","<p>To replay the <u>TARGET SOUND</u>, press P.</p> When you are ready to begin, press SPACEBAR.","","32","","","","","","","","","","","","","","","","","","","","","","","","","","","","","","","",""
"audio-keyboard-response","297","1692849","0.0-8.0-2.0-3.5","3","0","yw6fql9fvdaz19b","","1259","","sounds/C/TD/FE_06_TD.mp3","","32","","","TD_SUMMARY","","","","","","","","","","FE","","2100,3900,5700,11100","2","2100","3900","5700","11100","null","885.3999999985099","null","479.80000000074506","_________________________________________1258.3999999985099_4785.39999999851_9573.39999999851_11579.800000000745_12917.199999999255","2","","","","","",""
"html-button-response","298","1694110","0.0-8.0-2.0-0.6","3","0","yw6fql9fvdaz19b","","1257.800000000745","","<p>Trial 7 of 36</p>","0","","","","","","","","","","","","","","FU","sounds/syllables/fu_SWS.wav","4200,6900,10500,13200","3","","","","","","","","","","","","","","","",""
"html-keyboard-response","299","1695043","0.0-8.0-2.0-1.6","3","0","yw6fql9fvdaz19b","","931.1999999992549","","","","80","","","","","","","","","","","","","FU","","4200,6900,10500,13200","3","","","","","","","","","","","","","","","",""
"audio-keyboard-response","300","1695345","0.0-8.0-2.0-2.11-0.11","3","0","yw6fql9fvdaz19b","","null","","sounds/syllables/fu_SWS.wav","","null","","","","","","","","","","","","","","","","","","","","","","","","","","","","","","","",""
"html-keyboard-response","301","1695651","0.0-8.0-2.0-2.11-1.11","3","0","yw6fql9fvdaz19b","","305.5999999977648","","<p>To replay the <u>TARGET SOUND</u>, press P.</p> When you are ready to begin, press SPACEBAR.","","80","","","","","","","","","","","","","","","","","","","","","","","","","","","","","","","",""
"audio-keyboard-response","302","1696454","0.0-8.0-2.0-2.12-0.12","3","0","yw6fql9fvdaz19b","","null","","sounds/syllables/fu_SWS.wav","","null","","","","","","","","","","","","","","","","","","","","","","","","","","","","","","","",""
"html-keyboard-response","303","1697547","0.0-8.0-2.0-2.12-1.12","3","0","yw6fql9fvdaz19b","","1091.5","","<p>To replay the <u>TARGET SOUND</u>, press P.</p> When you are ready to begin, press SPACEBAR.","","32","","","","","","","","","","","","","","","","","","","","","","","","","","","","","","","",""
"audio-keyboard-response","304","1712496","0.0-8.0-2.0-3.6","3","0","yw6fql9fvdaz19b","","2981","","sounds/C/TD/FU_09_TD.mp3","","32","","","TD_SUMMARY","","","","","","","","","","FU","","4200,6900,10500,13200","3","4200","6900","10500","13200","213.5","275","417.1000000014901","null","______________________________________________2984.60000000149_4413.5_7175_8954.900000002235_10917.10000000149","2","","","","","",""
"html-button-response","305","1713359","0.0-8.0-2.0-0.7","3","0","yw6fql9fvdaz19b","","859.6000000014901","","<p>Trial 8 of 36</p>","0","","","","","","","","","","","","","","RE","sounds/syllables/re_SWS.wav","2100,4800,6600,12900","2","","","","","","","","","","","","","","","",""
"html-keyboard-response","306","1714130","0.0-8.0-2.0-1.7","3","0","yw6fql9fvdaz19b","","769.5","","","","80","","","","","","","","","","","","","RE","","2100,4800,6600,12900","2","","","","","","","","","","","","","","","",""
"audio-keyboard-response","307","1714432","0.0-8.0-2.0-2.13-0.13","3","0","yw6fql9fvdaz19b","","null","","sounds/syllables/re_SWS.wav","","null","","","","","","","","","","","","","","","","","","","","","","","","","","","","","","","",""
"html-keyboard-response","308","1715121","0.0-8.0-2.0-2.13-1.13","3","0","yw6fql9fvdaz19b","","688.3000000007451","","<p>To replay the <u>TARGET SOUND</u>, press P.</p> When you are ready to begin, press SPACEBAR.","","80","","","","","","","","","","","","","","","","","","","","","","","","","","","","","","","",""
"audio-keyboard-response","309","1715931","0.0-8.0-2.0-2.14-0.14","3","0","yw6fql9fvdaz19b","","null","","sounds/syllables/re_SWS.wav","","null","","","","","","","","","","","","","","","","","","","","","","","","","","","","","","","",""
"html-keyboard-response","310","1716093","0.0-8.0-2.0-2.14-1.14","3","0","yw6fql9fvdaz19b","","160.69999999925494","","<p>To replay the <u>TARGET SOUND</u>, press P.</p> When you are ready to begin, press SPACEBAR.","","32","","","","","","","","","","","","","","","","","","","","","","","","","","","","","","","",""
"audio-keyboard-response","311","1731045","0.0-8.0-2.0-3.7","3","0","yw6fql9fvdaz19b","","2155","","sounds/C/TD/RE_06_TD.mp3","","32","","","TD_SUMMARY","","","","","","","","","","RE","","2100,4800,6600,12900","2","2100","4800","6600","12900","null","null","206.80000000074506","484.3999999985099","___________________________________________________2155.10000000149_4977.39999999851_6806.800000000745_12281.699999999255_13384.39999999851","2","","","","","",""
"html-button-response","312","1731910","0.0-8.0-2.0-0.8","3","0","yw6fql9fvdaz19b","","862.2000000029802","","<p>Trial 9 of 36</p>","0","","","","","","","","","","","","","","PU","sounds/syllables/pu_SWS.wav","3300,9600,11400,13200","3","","","","","","","","","","","","","","","",""
"html-keyboard-response","313","1732974","0.0-8.0-2.0-1.8","3","0","yw6fql9fvdaz19b","","1062.199999999255","","","","80","","","","","","","","","","","","","PU","","3300,9600,11400,13200","3","","","","","","","","","","","","","","","",""
"audio-keyboard-response","314","1733274","0.0-8.0-2.0-2.15-0.15","3","0","yw6fql9fvdaz19b","","null","","sounds/syllables/pu_SWS.wav","","null","","","","","","","","","","","","","","","","","","","","","","","","","","","","","","","",""
"html-keyboard-response","315","1733751","0.0-8.0-2.0-2.15-1.15","3","0","yw6fql9fvdaz19b","","475.5","","<p>To replay the <u>TARGET SOUND</u>, press P.</p> When you are ready to begin, press SPACEBAR.","","80","","","","","","","","","","","","","","","","","","","","","","","","","","","","","","","",""
"audio-keyboard-response","316","1734554","0.0-8.0-2.0-2.16-0.16","3","0","yw6fql9fvdaz19b","","null","","sounds/syllables/pu_SWS.wav","","null","","","","","","","","","","","","","","","","","","","","","","","","","","","","","","","",""
"html-keyboard-response","317","1734845","0.0-8.0-2.0-2.16-1.16","3","0","yw6fql9fvdaz19b","","289.5","","<p>To replay the <u>TARGET SOUND</u>, press P.</p> When you are ready to begin, press SPACEBAR.","","32","","","","","","","","","","","","","","","","","","","","","","","","","","","","","","","",""
"audio-keyboard-response","318","1749797","0.0-8.0-2.0-3.8","3","0","yw6fql9fvdaz19b","","3947","","sounds/C/TD/PU_09_TD.mp3","","32","","","TD_SUMMARY","","","","","","","","","","PU","","3300,9600,11400,13200","3","3300","9600","11400","13200","651.4000000022352","null","null","null","________________________________________________________3951.400000002235_5550.300000000745_7031.699999999255_9395.699999999255_10837.400000002235_13366.300000000745","2","","","","","",""
"html-button-response","319","1750717","0.0-8.0-2.0-0.9","3","0","yw6fql9fvdaz19b","","917","","<p>Trial 10 of 36</p>","0","","","","","","","","","","","","","","RU","sounds/syllables/ru_SWS.wav","1200,6600,9300,12000","2","","","","","","","","","","","","","","","",""
"html-keyboard-response","320","1752185","0.0-8.0-2.0-1.9","3","0","yw6fql9fvdaz19b","","1466.300000000745","","","","80","","","","","","","","","","","","","RU","","1200,6600,9300,12000","2","","","","","","","","","","","","","","","",""
"audio-keyboard-response","321","1752485","0.0-8.0-2.0-2.17-0.17","3","0","yw6fql9fvdaz19b","","null","","sounds/syllables/ru_SWS.wav","","null","","","","","","","","","","","","","","","","","","","","","","","","","","","","","","","",""
"html-keyboard-response","322","1752788","0.0-8.0-2.0-2.17-1.17","3","0","yw6fql9fvdaz19b","","301.80000000074506","","<p>To replay the <u>TARGET SOUND</u>, press P.</p> When you are ready to begin, press SPACEBAR.","","80","","","","","","","","","","","","","","","","","","","","","","","","","","","","","","","",""
"audio-keyboard-response","323","1753594","0.0-8.0-2.0-2.18-0.18","3","0","yw6fql9fvdaz19b","","null","","sounds/syllables/ru_SWS.wav","","null","","","","","","","","","","","","","","","","","","","","","","","","","","","","","","","",""
"html-keyboard-response","324","1754903","0.0-8.0-2.0-2.18-1.18","3","0","yw6fql9fvdaz19b","","1308.1000000014901","","<p>To replay the <u>TARGET SOUND</u>, press P.</p> When you are ready to begin, press SPACEBAR.","","32","","","","","","","","","","","","","","","","","","","","","","","","","","","","","","","",""
"audio-keyboard-response","325","1769855","0.0-8.0-2.0-3.9","3","0","yw6fql9fvdaz19b","","1259","","sounds/C/TD/RU_07_TD.mp3","","32","","","TD_SUMMARY","","","","","","","","","","RU","","1200,6600,9300,12000","2","1200","6600","9300","12000","770.9000000022352","null","356.9000000022352","null","______________________________________________________________1258.6000000014901_1536.5_1970.9000000022352_3182.60000000149_4342.900000002235_5984.60000000149_6228.900000002235_8813.70000000298_9656.900000002235_11530.70000000298_11816.900000002235_12100_13899.900000002235_14207.300000000745","2","","","","","",""
"html-button-response","326","1773134","0.0-8.0-2.0-0.10","3","0","yw6fql9fvdaz19b","","3276","","<p>Trial 11 of 36</p>","0","","","","","","","","","","","","","","FE","sounds/syllables/fe_SWS.wav","3900,6600,10200,12000","2","","","","","","","","","","","","","","","",""
"html-keyboard-response","327","1773661","0.0-8.0-2.0-1.10","3","0","yw6fql9fvdaz19b","","525.5999999977648","","","","80","","","","","","","","","","","","","FE","","3900,6600,10200,12000","2","","","","","","","","","","","","","","","",""
"audio-keyboard-response","328","1773962","0.0-8.0-2.0-2.19-0.19","3","0","yw6fql9fvdaz19b","","null","","sounds/syllables/fe_SWS.wav","","null","","","","","","","","","","","","","","","","","","","","","","","","","","","","","","","",""
"html-keyboard-response","329","1774376","0.0-8.0-2.0-2.19-1.19","3","0","yw6fql9fvdaz19b","","413.30000000074506","","<p>To replay the <u>TARGET SOUND</u>, press P.</p> When you are ready to begin, press SPACEBAR.","","80","","","","","","","","","","","","","","","","","","","","","","","","","","","","","","","",""
"audio-keyboard-response","330","1775178","0.0-8.0-2.0-2.20-0.20","3","0","yw6fql9fvdaz19b","","null","","sounds/syllables/fe_SWS.wav","","null","","","","","","","","","","","","","","","","","","","","","","","","","","","","","","","",""
"html-keyboard-response","331","1776112","0.0-8.0-2.0-2.20-1.20","3","0","yw6fql9fvdaz19b","","933.5","","<p>To replay the <u>TARGET SOUND</u>, press P.</p> When you are ready to begin, press SPACEBAR.","","32","","","","","","","","","","","","","","","","","","","","","","","","","","","","","","","",""
"audio-keyboard-response","332","1791066","0.0-8.0-2.0-3.10","3","0","yw6fql9fvdaz19b","","981","","sounds/C/TD/FE_09_TD.mp3","","32","","","TD_SUMMARY","","","","","","","","","","FE","","3900,6600,10200,12000","2","3900","6600","10200","12000","null","null","null","null","____________________________________________________________________________986.5999999977648_2763_5212.39999999851_14302.699999999255","2","","","","","",""
"html-button-response","333","1792471","0.0-8.0-2.0-0.11","3","0","yw6fql9fvdaz19b","","1402","","<p>Trial 12 of 36</p>","0","","","","","","","","","","","","","","RE","sounds/syllables/re_SWS.wav","1200,3900,5700,10200","2","","","","","","","","","","","","","","","",""
"html-keyboard-response","334","1793484","0.0-8.0-2.0-1.11","3","0","yw6fql9fvdaz19b","","1011.8999999985099","","","","80","","","","","","","","","","","","","RE","","1200,3900,5700,10200","2","","","","","","","","","","","","","","","",""
"audio-keyboard-response","335","1793786","0.0-8.0-2.0-2.21-0.21","3","0","yw6fql9fvdaz19b","","null","","sounds/syllables/re_SWS.wav","","null","","","","","","","","","","","","","","","","","","","","","","","","","","","","","","","",""
"html-keyboard-response","336","1794160","0.0-8.0-2.0-2.21-1.21","3","0","yw6fql9fvdaz19b","","373.3999999985099","","<p>To replay the <u>TARGET SOUND</u>, press P.</p> When you are ready to begin, press SPACEBAR.","","80","","","","","","","","","","","","","","","","","","","","","","","","","","","","","","","",""
"audio-keyboard-response","337","1794964","0.0-8.0-2.0-2.22-0.22","3","0","yw6fql9fvdaz19b","","null","","sounds/syllables/re_SWS.wav","","null","","","","","","","","","","","","","","","","","","","","","","","","","","","","","","","",""
