"trial_type","trial_index","time_elapsed","internal_node_id","counterbalance","lang_instruct","ParticipantID","view_history","rt","url","stimulus","button_pressed","key_press","correctRESP","correct","designation","location","correctanswer","responses","sentence","keywords","typed_resp","keyword1_acc","keyword2_acc","keyword3_acc","keyword4_acc","keyword5_acc","total_acc","prop_acc","timeouts","pause_rt01","pause_rt02","train_file","numKeyPress","sound","fam_type","SYLLABLE","EXEMPLAR","TD_LOCS","TD_TYPE","TDLOC_01","TDLOC_02","TDLOC_03","TDLOC_04","TD_RT_01","TD_RT_02","TD_RT_03","TD_RT_04","TD_SUBJ_RTs","number_of_plays","slider_start","response","question_order","syllable","syllable_type"
"pavlovia","0","1","0.0-0.0","2","1","8f7wdah1hjmvrly","","","","","","","","","","","","","","","","","","","","","","","","","","","","","","","","","","","","","","","","","","","","","","","",""
"instructions","1","4033","0.0-1.0","2","1","8f7wdah1hjmvrly","[{""page_index"":0,""viewing_time"":1315},{""page_index"":1,""viewing_time"":2713}]","4032","","","","","","","","","","","","","","","","","","","","","","","","","","","","","","","","","","","","","","","","","","","","","",""
"external-html","2","7611","0.0-2.0","2","1","8f7wdah1hjmvrly","","3575","consent/consent.html","","","","","","","","","","","","","","","","","","","","","","","","","","","","","","","","","","","","","","","","","","","","",""
"html-button-response","3","8697","0.0-3.0-0.0-0.0","2","1","8f7wdah1hjmvrly","","1084","","<p>Welcome to the study. You will first complete a short volume calibration and headphone check.</p><p>Please make sure you are in a quiet listening environment, that you are wearing headphones, and that your computer's volume is turned on.<p></p>","0","","","","","","","","","","","","","","","","","","","","","","","","","","","","","","","","","","","","","","","","","","",""
"html-button-response","4","9548","0.0-3.0-0.0-1.0","2","1","8f7wdah1hjmvrly","","599","","<p>The volume calibration will be first.</p><p>You will hear a thirty-second noise. Please adjust your computer's volume so that this noise is being presented at a comfortable level.<p></p>","0","","","","","","","","","","","","","","","","","","","","","","","","","","","","","","","","","","","","","","","","","","",""
"audio-button-response","5","11658","0.0-3.0-0.0-2.0","2","1","8f7wdah1hjmvrly","","1323","","audCalib/volumetest.mp3","0","","","","","","","","","","","","","","","","","","","","","","","","","","","","","","","","","","","","","","","","","","",""
"html-button-response","6","13475","0.0-3.0-1.0-0.0","2","1","8f7wdah1hjmvrly","","1815.0000000000073","","<p>You will now complete a short headphone check.</p><p>On each trial, you will hear three tones. One of these tones will be quieter than the others. Your task is to identify whether the quiet tone occured first, second, or third.</p><p>There are six trials in total.<p></p>","0","","","","","","","","","","","","","","","","","","","","","","","","","","","","","","","","","","","","","","","","","","",""
"html-keyboard-response","7","14229","0.0-3.0-1.0-1.0-0.0","2","1","8f7wdah1hjmvrly","","null","","<div style=""font-size:60px;"">+</div>","","null","","","","","","","","","","","","","","","","","","","","","","","","","","","","","","","","","","","","","","","","","",""
"audio-button-response","8","18190","0.0-3.0-1.0-1.0-1.0","2","1","8f7wdah1hjmvrly","","3957","","audCalib/t1_2.mp3","0","","0","1","headphone-test","","","","","","","","","","","","","","","","","","","","","","","","","","","","","","","","","","","","","","",""
"html-keyboard-response","9","18943","0.0-3.0-1.0-1.0-0.1","2","1","8f7wdah1hjmvrly","","null","","<div style=""font-size:60px;"">+</div>","","null","","","","","","","","","","","","","","","","","","","","","","","","","","","","","","","","","","","","","","","","","",""
"audio-button-response","10","22955","0.0-3.0-1.0-1.0-1.1","2","1","8f7wdah1hjmvrly","","4000","","audCalib/t3_1.mp3","2","","2","1","headphone-test","","","","","","","","","","","","","","","","","","","","","","","","","","","","","","","","","","","","","","",""
"html-keyboard-response","11","23708","0.0-3.0-1.0-1.0-0.2","2","1","8f7wdah1hjmvrly","","null","","<div style=""font-size:60px;"">+</div>","","null","","","","","","","","","","","","","","","","","","","","","","","","","","","","","","","","","","","","","","","","","",""
"audio-button-response","12","27536","0.0-3.0-1.0-1.0-1.2","2","1","8f7wdah1hjmvrly","","3829","","audCalib/t2_1.mp3","1","","1","1","headphone-test","","","","","","","","","","","","","","","","","","","","","","","","","","","","","","","","","","","","","","",""
"html-keyboard-response","13","28289","0.0-3.0-1.0-1.0-0.3","2","1","8f7wdah1hjmvrly","","null","","<div style=""font-size:60px;"">+</div>","","null","","","","","","","","","","","","","","","","","","","","","","","","","","","","","","","","","","","","","","","","","",""
"audio-button-response","14","32149","0.0-3.0-1.0-1.0-1.3","2","1","8f7wdah1hjmvrly","","3851","","audCalib/t3_2.mp3","2","","2","1","headphone-test","","","","","","","","","","","","","","","","","","","","","","","","","","","","","","","","","","","","","","",""
"html-keyboard-response","15","32902","0.0-3.0-1.0-1.0-0.4","2","1","8f7wdah1hjmvrly","","null","","<div style=""font-size:60px;"">+</div>","","null","","","","","","","","","","","","","","","","","","","","","","","","","","","","","","","","","","","","","","","","","",""
"audio-button-response","16","37399","0.0-3.0-1.0-1.0-1.4","2","1","8f7wdah1hjmvrly","","4501","","audCalib/t1_1.mp3","0","","0","1","headphone-test","","","","","","","","","","","","","","","","","","","","","","","","","","","","","","","","","","","","","","",""
"html-keyboard-response","17","38152","0.0-3.0-1.0-1.0-0.5","2","1","8f7wdah1hjmvrly","","null","","<div style=""font-size:60px;"">+</div>","","null","","","","","","","","","","","","","","","","","","","","","","","","","","","","","","","","","","","","","","","","","",""
"audio-button-response","18","40578","0.0-3.0-1.0-1.0-1.5","2","1","8f7wdah1hjmvrly","","2432","","audCalib/t2_2.mp3","1","","1","1","headphone-test","","","","","","","","","","","","","","","","","","","","","","","","","","","","","","","","","","","","","","",""
"html-button-response","19","41809","0.0-3.0-2.0","2","1","8f7wdah1hjmvrly","","978","","<p>The volume calibration and headphone check are now complete.</p>","0","","","","","","","","","","","","","","","","","","","","","","","","","","","","","","","","","","","","","","","","","","",""
"instructions","20","55840","0.0-4.0-0.0","2","1","8f7wdah1hjmvrly","[{""page_index"":0,""viewing_time"":1076},{""page_index"":1,""viewing_time"":11264},{""page_index"":2,""viewing_time"":1689}]","14030","","","","","","","","","","","","","","","","","","","","","","","","","","","","","","","","","","","","","","","","","","","","","",""
"audio-keyboard-response","21","56150","0.0-4.0-1.0-0.0","2","1","8f7wdah1hjmvrly","","null","","sounds/induction/left/fe_SWS.wav","","null","","","","","","","","","","","","","","","","","","","","","","","","","","","","","","","","","","","","","","","","","",""
"html-button-response","22","58714","0.0-4.0-1.0-1.0","2","1","8f7wdah1hjmvrly","","2562","","What sound did you hear?","1","","","1","INDUCTION-JUDGMENT","left","1","","","","","","","","","","","","","","","","","","","","","","","","","","","","","","","","","","","","",""
"html-keyboard-response","23","59716","0.0-4.0-1.0-2.0","2","1","8f7wdah1hjmvrly","","null","","<p style=""color:green;""><b>Correct!</b></p>","","null","","","","","","","","","","","","","","","","","","","","","","","","","","","","","","","","","","","","","","","","","",""
"audio-keyboard-response","24","60523","0.0-4.0-1.0-0.1","2","1","8f7wdah1hjmvrly","","null","","sounds/induction/left/ni_SWS.wav","","null","","","","","","","","","","","","","","","","","","","","","","","","","","","","","","","","","","","","","","","","","",""
"html-button-response","25","61729","0.0-4.0-1.0-1.1","2","1","8f7wdah1hjmvrly","","1204.9999999999854","","What sound did you hear?","1","","","1","INDUCTION-JUDGMENT","left","1","","","","","","","","","","","","","","","","","","","","","","","","","","","","","","","","","","","","",""
"html-keyboard-response","26","62731","0.0-4.0-1.0-2.1","2","1","8f7wdah1hjmvrly","","null","","<p style=""color:green;""><b>Correct!</b></p>","","null","","","","","","","","","","","","","","","","","","","","","","","","","","","","","","","","","","","","","","","","","",""
"audio-keyboard-response","27","63541","0.0-4.0-1.0-0.2","2","1","8f7wdah1hjmvrly","","null","","sounds/induction/right/re_SWS.wav","","null","","","","","","","","","","","","","","","","","","","","","","","","","","","","","","","","","","","","","","","","","",""
"html-button-response","28","64835","0.0-4.0-1.0-1.2","2","1","8f7wdah1hjmvrly","","1292","","What sound did you hear?","1","","","1","INDUCTION-JUDGMENT","right","1","","","","","","","","","","","","","","","","","","","","","","","","","","","","","","","","","","","","",""
"html-keyboard-response","29","65838","0.0-4.0-1.0-2.2","2","1","8f7wdah1hjmvrly","","null","","<p style=""color:green;""><b>Correct!</b></p>","","null","","","","","","","","","","","","","","","","","","","","","","","","","","","","","","","","","","","","","","","","","",""
"audio-keyboard-response","30","66645","0.0-4.0-1.0-0.3","2","1","8f7wdah1hjmvrly","","null","","sounds/induction/left/re_SWS.wav","","null","","","","","","","","","","","","","","","","","","","","","","","","","","","","","","","","","","","","","","","","","",""
"html-button-response","31","67973","0.0-4.0-1.0-1.3","2","1","8f7wdah1hjmvrly","","1326","","What sound did you hear?","0","","","1","INDUCTION-JUDGMENT","left","0","","","","","","","","","","","","","","","","","","","","","","","","","","","","","","","","","","","","",""
"html-keyboard-response","32","68975","0.0-4.0-1.0-2.3","2","1","8f7wdah1hjmvrly","","null","","<p style=""color:green;""><b>Correct!</b></p>","","null","","","","","","","","","","","","","","","","","","","","","","","","","","","","","","","","","","","","","","","","","",""
"audio-keyboard-response","33","69781","0.0-4.0-1.0-0.4","2","1","8f7wdah1hjmvrly","","null","","sounds/induction/right/fu_SWS.wav","","null","","","","","","","","","","","","","","","","","","","","","","","","","","","","","","","","","","","","","","","","","",""
"html-button-response","34","70830","0.0-4.0-1.0-1.4","2","1","8f7wdah1hjmvrly","","1046.9999999999854","","What sound did you hear?","0","","","1","INDUCTION-JUDGMENT","right","0","","","","","","","","","","","","","","","","","","","","","","","","","","","","","","","","","","","","",""
"html-keyboard-response","35","71832","0.0-4.0-1.0-2.4","2","1","8f7wdah1hjmvrly","","null","","<p style=""color:green;""><b>Correct!</b></p>","","null","","","","","","","","","","","","","","","","","","","","","","","","","","","","","","","","","","","","","","","","","",""
"audio-keyboard-response","36","72640","0.0-4.0-1.0-0.5","2","1","8f7wdah1hjmvrly","","null","","sounds/induction/left/su_SWS.wav","","null","","","","","","","","","","","","","","","","","","","","","","","","","","","","","","","","","","","","","","","","","",""
"html-button-response","37","73951","0.0-4.0-1.0-1.5","2","1","8f7wdah1hjmvrly","","1310","","What sound did you hear?","0","","","1","INDUCTION-JUDGMENT","left","0","","","","","","","","","","","","","","","","","","","","","","","","","","","","","","","","","","","","",""
"html-keyboard-response","38","74953","0.0-4.0-1.0-2.5","2","1","8f7wdah1hjmvrly","","null","","<p style=""color:green;""><b>Correct!</b></p>","","null","","","","","","","","","","","","","","","","","","","","","","","","","","","","","","","","","","","","","","","","","",""
"audio-keyboard-response","39","75754","0.0-4.0-1.0-0.6","2","1","8f7wdah1hjmvrly","","null","","sounds/induction/right/ru_SWS.wav","","null","","","","","","","","","","","","","","","","","","","","","","","","","","","","","","","","","","","","","","","","","",""
"html-button-response","40","77211","0.0-4.0-1.0-1.6","2","1","8f7wdah1hjmvrly","","1455.9999999999854","","What sound did you hear?","1","","","1","INDUCTION-JUDGMENT","right","1","","","","","","","","","","","","","","","","","","","","","","","","","","","","","","","","","","","","",""
"html-keyboard-response","41","78214","0.0-4.0-1.0-2.6","2","1","8f7wdah1hjmvrly","","null","","<p style=""color:green;""><b>Correct!</b></p>","","null","","","","","","","","","","","","","","","","","","","","","","","","","","","","","","","","","","","","","","","","","",""
"audio-keyboard-response","42","79018","0.0-4.0-1.0-0.7","2","1","8f7wdah1hjmvrly","","null","","sounds/induction/right/ti_SWS.wav","","null","","","","","","","","","","","","","","","","","","","","","","","","","","","","","","","","","","","","","","","","","",""
"html-button-response","43","79922","0.0-4.0-1.0-1.7","2","1","8f7wdah1hjmvrly","","902","","What sound did you hear?","1","","","1","INDUCTION-JUDGMENT","right","1","","","","","","","","","","","","","","","","","","","","","","","","","","","","","","","","","","","","",""
"html-keyboard-response","44","80924","0.0-4.0-1.0-2.7","2","1","8f7wdah1hjmvrly","","null","","<p style=""color:green;""><b>Correct!</b></p>","","null","","","","","","","","","","","","","","","","","","","","","","","","","","","","","","","","","","","","","","","","","",""
"audio-keyboard-response","45","81728","0.0-4.0-1.0-0.8","2","1","8f7wdah1hjmvrly","","null","","sounds/induction/right/ta_SWS.wav","","null","","","","","","","","","","","","","","","","","","","","","","","","","","","","","","","","","","","","","","","","","",""
"html-button-response","46","82932","0.0-4.0-1.0-1.8","2","1","8f7wdah1hjmvrly","","1203","","What sound did you hear?","1","","","1","INDUCTION-JUDGMENT","right","1","","","","","","","","","","","","","","","","","","","","","","","","","","","","","","","","","","","","",""
"html-keyboard-response","47","83934","0.0-4.0-1.0-2.8","2","1","8f7wdah1hjmvrly","","null","","<p style=""color:green;""><b>Correct!</b></p>","","null","","","","","","","","","","","","","","","","","","","","","","","","","","","","","","","","","","","","","","","","","",""
"audio-keyboard-response","48","84736","0.0-4.0-1.0-0.9","2","1","8f7wdah1hjmvrly","","null","","sounds/induction/right/re_SWS.wav","","null","","","","","","","","","","","","","","","","","","","","","","","","","","","","","","","","","","","","","","","","","",""
"html-button-response","49","85554","0.0-4.0-1.0-1.9","2","1","8f7wdah1hjmvrly","","818","","What sound did you hear?","1","","","1","INDUCTION-JUDGMENT","right","1","","","","","","","","","","","","","","","","","","","","","","","","","","","","","","","","","","","","",""
"html-keyboard-response","50","86556","0.0-4.0-1.0-2.9","2","1","8f7wdah1hjmvrly","","null","","<p style=""color:green;""><b>Correct!</b></p>","","null","","","","","","","","","","","","","","","","","","","","","","","","","","","","","","","","","","","","","","","","","",""
"audio-keyboard-response","51","87360","0.0-4.0-1.0-0.10","2","1","8f7wdah1hjmvrly","","null","","sounds/induction/left/ru_SWS.wav","","null","","","","","","","","","","","","","","","","","","","","","","","","","","","","","","","","","","","","","","","","","",""
"html-button-response","52","88057","0.0-4.0-1.0-1.10","2","1","8f7wdah1hjmvrly","","696","","What sound did you hear?","0","","","1","INDUCTION-JUDGMENT","left","0","","","","","","","","","","","","","","","","","","","","","","","","","","","","","","","","","","","","",""
"html-keyboard-response","53","89058","0.0-4.0-1.0-2.10","2","1","8f7wdah1hjmvrly","","null","","<p style=""color:green;""><b>Correct!</b></p>","","null","","","","","","","","","","","","","","","","","","","","","","","","","","","","","","","","","","","","","","","","","",""
"audio-keyboard-response","54","89866","0.0-4.0-1.0-0.11","2","1","8f7wdah1hjmvrly","","null","","sounds/induction/right/su_SWS.wav","","null","","","","","","","","","","","","","","","","","","","","","","","","","","","","","","","","","","","","","","","","","",""
"html-button-response","55","90705","0.0-4.0-1.0-1.11","2","1","8f7wdah1hjmvrly","","837","","What sound did you hear?","1","","","1","INDUCTION-JUDGMENT","right","1","","","","","","","","","","","","","","","","","","","","","","","","","","","","","","","","","","","","",""
"html-keyboard-response","56","91708","0.0-4.0-1.0-2.11","2","1","8f7wdah1hjmvrly","","null","","<p style=""color:green;""><b>Correct!</b></p>","","null","","","","","","","","","","","","","","","","","","","","","","","","","","","","","","","","","","","","","","","","","",""
"audio-keyboard-response","57","92511","0.0-4.0-1.0-0.12","2","1","8f7wdah1hjmvrly","","null","","sounds/induction/left/ni_SWS.wav","","null","","","","","","","","","","","","","","","","","","","","","","","","","","","","","","","","","","","","","","","","","",""
"html-button-response","58","93513","0.0-4.0-1.0-1.12","2","1","8f7wdah1hjmvrly","","1000","","What sound did you hear?","1","","","1","INDUCTION-JUDGMENT","left","1","","","","","","","","","","","","","","","","","","","","","","","","","","","","","","","","","","","","",""
"html-keyboard-response","59","94515","0.0-4.0-1.0-2.12","2","1","8f7wdah1hjmvrly","","null","","<p style=""color:green;""><b>Correct!</b></p>","","null","","","","","","","","","","","","","","","","","","","","","","","","","","","","","","","","","","","","","","","","","",""
"audio-keyboard-response","60","95317","0.0-4.0-1.0-0.13","2","1","8f7wdah1hjmvrly","","null","","sounds/induction/left/ge_SWS.wav","","null","","","","","","","","","","","","","","","","","","","","","","","","","","","","","","","","","","","","","","","","","",""
"html-button-response","61","96426","0.0-4.0-1.0-1.13","2","1","8f7wdah1hjmvrly","","1107.0000000000146","","What sound did you hear?","0","","","0","INDUCTION-JUDGMENT","left","1","","","","","","","","","","","","","","","","","","","","","","","","","","","","","","","","","","","","",""
"html-keyboard-response","62","97428","0.0-4.0-1.0-2.13","2","1","8f7wdah1hjmvrly","","null","","<p style=""color:red;""><b>Incorrect!</b></p>","","null","","","","","","","","","","","","","","","","","","","","","","","","","","","","","","","","","","","","","","","","","",""
"audio-keyboard-response","63","98229","0.0-4.0-1.0-0.14","2","1","8f7wdah1hjmvrly","","null","","sounds/induction/left/su_SWS.wav","","null","","","","","","","","","","","","","","","","","","","","","","","","","","","","","","","","","","","","","","","","","",""
"html-button-response","64","99604","0.0-4.0-1.0-1.14","2","1","8f7wdah1hjmvrly","","1372.9999999999854","","What sound did you hear?","0","","","1","INDUCTION-JUDGMENT","left","0","","","","","","","","","","","","","","","","","","","","","","","","","","","","","","","","","","","","",""
"html-keyboard-response","65","100606","0.0-4.0-1.0-2.14","2","1","8f7wdah1hjmvrly","","null","","<p style=""color:green;""><b>Correct!</b></p>","","null","","","","","","","","","","","","","","","","","","","","","","","","","","","","","","","","","","","","","","","","","",""
"audio-keyboard-response","66","101407","0.0-4.0-1.0-0.15","2","1","8f7wdah1hjmvrly","","null","","sounds/induction/left/ge_SWS.wav","","null","","","","","","","","","","","","","","","","","","","","","","","","","","","","","","","","","","","","","","","","","",""
"html-button-response","67","102734","0.0-4.0-1.0-1.15","2","1","8f7wdah1hjmvrly","","1326","","What sound did you hear?","1","","","1","INDUCTION-JUDGMENT","left","1","","","","","","","","","","","","","","","","","","","","","","","","","","","","","","","","","","","","",""
"html-keyboard-response","68","103736","0.0-4.0-1.0-2.15","2","1","8f7wdah1hjmvrly","","null","","<p style=""color:green;""><b>Correct!</b></p>","","null","","","","","","","","","","","","","","","","","","","","","","","","","","","","","","","","","","","","","","","","","",""
"audio-keyboard-response","69","104543","0.0-4.0-1.0-0.16","2","1","8f7wdah1hjmvrly","","null","","sounds/induction/right/ko_SWS.wav","","null","","","","","","","","","","","","","","","","","","","","","","","","","","","","","","","","","","","","","","","","","",""
"html-button-response","70","105825","0.0-4.0-1.0-1.16","2","1","8f7wdah1hjmvrly","","1280.000000000029","","What sound did you hear?","0","","","1","INDUCTION-JUDGMENT","right","0","","","","","","","","","","","","","","","","","","","","","","","","","","","","","","","","","","","","",""
"html-keyboard-response","71","106827","0.0-4.0-1.0-2.16","2","1","8f7wdah1hjmvrly","","null","","<p style=""color:green;""><b>Correct!</b></p>","","null","","","","","","","","","","","","","","","","","","","","","","","","","","","","","","","","","","","","","","","","","",""
"audio-keyboard-response","72","107636","0.0-4.0-1.0-0.17","2","1","8f7wdah1hjmvrly","","null","","sounds/induction/right/fe_SWS.wav","","null","","","","","","","","","","","","","","","","","","","","","","","","","","","","","","","","","","","","","","","","","",""
"html-button-response","73","108641","0.0-4.0-1.0-1.17","2","1","8f7wdah1hjmvrly","","1003","","What sound did you hear?","0","","","1","INDUCTION-JUDGMENT","right","0","","","","","","","","","","","","","","","","","","","","","","","","","","","","","","","","","","","","",""
"html-keyboard-response","74","109642","0.0-4.0-1.0-2.17","2","1","8f7wdah1hjmvrly","","null","","<p style=""color:green;""><b>Correct!</b></p>","","null","","","","","","","","","","","","","","","","","","","","","","","","","","","","","","","","","","","","","","","","","",""
"audio-keyboard-response","75","110452","0.0-4.0-1.0-0.18","2","1","8f7wdah1hjmvrly","","null","","sounds/induction/right/me_SWS.wav","","null","","","","","","","","","","","","","","","","","","","","","","","","","","","","","","","","","","","","","","","","","",""
"html-button-response","76","111563","0.0-4.0-1.0-1.18","2","1","8f7wdah1hjmvrly","","1109.000000000029","","What sound did you hear?","0","","","1","INDUCTION-JUDGMENT","right","0","","","","","","","","","","","","","","","","","","","","","","","","","","","","","","","","","","","","",""
"html-keyboard-response","77","112565","0.0-4.0-1.0-2.18","2","1","8f7wdah1hjmvrly","","null","","<p style=""color:green;""><b>Correct!</b></p>","","null","","","","","","","","","","","","","","","","","","","","","","","","","","","","","","","","","","","","","","","","","",""
"audio-keyboard-response","78","113375","0.0-4.0-1.0-0.19","2","1","8f7wdah1hjmvrly","","null","","sounds/induction/right/ge_SWS.wav","","null","","","","","","","","","","","","","","","","","","","","","","","","","","","","","","","","","","","","","","","","","",""
"html-button-response","79","114299","0.0-4.0-1.0-1.19","2","1","8f7wdah1hjmvrly","","923","","What sound did you hear?","0","","","1","INDUCTION-JUDGMENT","right","0","","","","","","","","","","","","","","","","","","","","","","","","","","","","","","","","","","","","",""
"html-keyboard-response","80","115300","0.0-4.0-1.0-2.19","2","1","8f7wdah1hjmvrly","","null","","<p style=""color:green;""><b>Correct!</b></p>","","null","","","","","","","","","","","","","","","","","","","","","","","","","","","","","","","","","","","","","","","","","",""
"audio-keyboard-response","81","116106","0.0-4.0-1.0-0.20","2","1","8f7wdah1hjmvrly","","null","","sounds/induction/right/ni_SWS.wav","","null","","","","","","","","","","","","","","","","","","","","","","","","","","","","","","","","","","","","","","","","","",""
"html-button-response","82","117165","0.0-4.0-1.0-1.20","2","1","8f7wdah1hjmvrly","","1058","","What sound did you hear?","0","","","1","INDUCTION-JUDGMENT","right","0","","","","","","","","","","","","","","","","","","","","","","","","","","","","","","","","","","","","",""
"html-keyboard-response","83","118168","0.0-4.0-1.0-2.20","2","1","8f7wdah1hjmvrly","","null","","<p style=""color:green;""><b>Correct!</b></p>","","null","","","","","","","","","","","","","","","","","","","","","","","","","","","","","","","","","","","","","","","","","",""
"audio-keyboard-response","84","118975","0.0-4.0-1.0-0.21","2","1","8f7wdah1hjmvrly","","null","","sounds/induction/left/ta_SWS.wav","","null","","","","","","","","","","","","","","","","","","","","","","","","","","","","","","","","","","","","","","","","","",""
"html-button-response","85","120029","0.0-4.0-1.0-1.21","2","1","8f7wdah1hjmvrly","","1053","","What sound did you hear?","0","","","1","INDUCTION-JUDGMENT","left","0","","","","","","","","","","","","","","","","","","","","","","","","","","","","","","","","","","","","",""
"html-keyboard-response","86","121031","0.0-4.0-1.0-2.21","2","1","8f7wdah1hjmvrly","","null","","<p style=""color:green;""><b>Correct!</b></p>","","null","","","","","","","","","","","","","","","","","","","","","","","","","","","","","","","","","","","","","","","","","",""
"audio-keyboard-response","87","121833","0.0-4.0-1.0-0.22","2","1","8f7wdah1hjmvrly","","null","","sounds/induction/left/ta_SWS.wav","","null","","","","","","","","","","","","","","","","","","","","","","","","","","","","","","","","","","","","","","","","","",""
"html-button-response","88","122492","0.0-4.0-1.0-1.22","2","1","8f7wdah1hjmvrly","","657.0000000000291","","What sound did you hear?","0","","","1","INDUCTION-JUDGMENT","left","0","","","","","","","","","","","","","","","","","","","","","","","","","","","","","","","","","","","","",""
"html-keyboard-response","89","123494","0.0-4.0-1.0-2.22","2","1","8f7wdah1hjmvrly","","null","","<p style=""color:green;""><b>Correct!</b></p>","","null","","","","","","","","","","","","","","","","","","","","","","","","","","","","","","","","","","","","","","","","","",""
"audio-keyboard-response","90","124297","0.0-4.0-1.0-0.23","2","1","8f7wdah1hjmvrly","","null","","sounds/induction/left/fu_SWS.wav","","null","","","","","","","","","","","","","","","","","","","","","","","","","","","","","","","","","","","","","","","","","",""
"html-button-response","91","125125","0.0-4.0-1.0-1.23","2","1","8f7wdah1hjmvrly","","826","","What sound did you hear?","1","","","1","INDUCTION-JUDGMENT","left","1","","","","","","","","","","","","","","","","","","","","","","","","","","","","","","","","","","","","",""
"html-keyboard-response","92","126127","0.0-4.0-1.0-2.23","2","1","8f7wdah1hjmvrly","","null","","<p style=""color:green;""><b>Correct!</b></p>","","null","","","","","","","","","","","","","","","","","","","","","","","","","","","","","","","","","","","","","","","","","",""
"audio-keyboard-response","93","126932","0.0-4.0-1.0-0.24","2","1","8f7wdah1hjmvrly","","null","","sounds/induction/left/ti_SWS.wav","","null","","","","","","","","","","","","","","","","","","","","","","","","","","","","","","","","","","","","","","","","","",""
"html-button-response","94","127756","0.0-4.0-1.0-1.24","2","1","8f7wdah1hjmvrly","","822","","What sound did you hear?","0","","","1","INDUCTION-JUDGMENT","left","0","","","","","","","","","","","","","","","","","","","","","","","","","","","","","","","","","","","","",""
"html-keyboard-response","95","128758","0.0-4.0-1.0-2.24","2","1","8f7wdah1hjmvrly","","null","","<p style=""color:green;""><b>Correct!</b></p>","","null","","","","","","","","","","","","","","","","","","","","","","","","","","","","","","","","","","","","","","","","","",""
"audio-keyboard-response","96","129567","0.0-4.0-1.0-0.25","2","1","8f7wdah1hjmvrly","","null","","sounds/induction/left/re_SWS.wav","","null","","","","","","","","","","","","","","","","","","","","","","","","","","","","","","","","","","","","","","","","","",""
"html-button-response","97","130678","0.0-4.0-1.0-1.25","2","1","8f7wdah1hjmvrly","","1110","","What sound did you hear?","0","","","1","INDUCTION-JUDGMENT","left","0","","","","","","","","","","","","","","","","","","","","","","","","","","","","","","","","","","","","",""
"html-keyboard-response","98","131680","0.0-4.0-1.0-2.25","2","1","8f7wdah1hjmvrly","","null","","<p style=""color:green;""><b>Correct!</b></p>","","null","","","","","","","","","","","","","","","","","","","","","","","","","","","","","","","","","","","","","","","","","",""
"audio-keyboard-response","99","132489","0.0-4.0-1.0-0.26","2","1","8f7wdah1hjmvrly","","null","","sounds/induction/left/me_SWS.wav","","null","","","","","","","","","","","","","","","","","","","","","","","","","","","","","","","","","","","","","","","","","",""
"html-button-response","100","134265","0.0-4.0-1.0-1.26","2","1","8f7wdah1hjmvrly","","1775","","What sound did you hear?","1","","","1","INDUCTION-JUDGMENT","left","1","","","","","","","","","","","","","","","","","","","","","","","","","","","","","","","","","","","","",""
"html-keyboard-response","101","135267","0.0-4.0-1.0-2.26","2","1","8f7wdah1hjmvrly","","null","","<p style=""color:green;""><b>Correct!</b></p>","","null","","","","","","","","","","","","","","","","","","","","","","","","","","","","","","","","","","","","","","","","","",""
"audio-keyboard-response","102","136073","0.0-4.0-1.0-0.27","2","1","8f7wdah1hjmvrly","","null","","sounds/induction/left/fu_SWS.wav","","null","","","","","","","","","","","","","","","","","","","","","","","","","","","","","","","","","","","","","","","","","",""
"html-button-response","103","136874","0.0-4.0-1.0-1.27","2","1","8f7wdah1hjmvrly","","799.9999999999709","","What sound did you hear?","1","","","1","INDUCTION-JUDGMENT","left","1","","","","","","","","","","","","","","","","","","","","","","","","","","","","","","","","","","","","",""
"html-keyboard-response","104","137876","0.0-4.0-1.0-2.27","2","1","8f7wdah1hjmvrly","","null","","<p style=""color:green;""><b>Correct!</b></p>","","null","","","","","","","","","","","","","","","","","","","","","","","","","","","","","","","","","","","","","","","","","",""
"audio-keyboard-response","105","138686","0.0-4.0-1.0-0.28","2","1","8f7wdah1hjmvrly","","null","","sounds/induction/right/ta_SWS.wav","","null","","","","","","","","","","","","","","","","","","","","","","","","","","","","","","","","","","","","","","","","","",""
"html-button-response","106","139568","0.0-4.0-1.0-1.28","2","1","8f7wdah1hjmvrly","","881","","What sound did you hear?","1","","","1","INDUCTION-JUDGMENT","right","1","","","","","","","","","","","","","","","","","","","","","","","","","","","","","","","","","","","","",""
"html-keyboard-response","107","140571","0.0-4.0-1.0-2.28","2","1","8f7wdah1hjmvrly","","null","","<p style=""color:green;""><b>Correct!</b></p>","","null","","","","","","","","","","","","","","","","","","","","","","","","","","","","","","","","","","","","","","","","","",""
"audio-keyboard-response","108","141374","0.0-4.0-1.0-0.29","2","1","8f7wdah1hjmvrly","","null","","sounds/induction/right/ru_SWS.wav","","null","","","","","","","","","","","","","","","","","","","","","","","","","","","","","","","","","","","","","","","","","",""
"html-button-response","109","142442","0.0-4.0-1.0-1.29","2","1","8f7wdah1hjmvrly","","1066","","What sound did you hear?","1","","","1","INDUCTION-JUDGMENT","right","1","","","","","","","","","","","","","","","","","","","","","","","","","","","","","","","","","","","","",""
"html-keyboard-response","110","143443","0.0-4.0-1.0-2.29","2","1","8f7wdah1hjmvrly","","null","","<p style=""color:green;""><b>Correct!</b></p>","","null","","","","","","","","","","","","","","","","","","","","","","","","","","","","","","","","","","","","","","","","","",""
"audio-keyboard-response","111","144254","0.0-4.0-1.0-0.30","2","1","8f7wdah1hjmvrly","","null","","sounds/induction/left/pu_SWS.wav","","null","","","","","","","","","","","","","","","","","","","","","","","","","","","","","","","","","","","","","","","","","",""
"html-button-response","112","145614","0.0-4.0-1.0-1.30","2","1","8f7wdah1hjmvrly","","1358","","What sound did you hear?","0","","","1","INDUCTION-JUDGMENT","left","0","","","","","","","","","","","","","","","","","","","","","","","","","","","","","","","","","","","","",""
"html-keyboard-response","113","146616","0.0-4.0-1.0-2.30","2","1","8f7wdah1hjmvrly","","null","","<p style=""color:green;""><b>Correct!</b></p>","","null","","","","","","","","","","","","","","","","","","","","","","","","","","","","","","","","","","","","","","","","","",""
"audio-keyboard-response","114","147422","0.0-4.0-1.0-0.31","2","1","8f7wdah1hjmvrly","","null","","sounds/induction/left/pu_SWS.wav","","null","","","","","","","","","","","","","","","","","","","","","","","","","","","","","","","","","","","","","","","","","",""
"html-button-response","115","149218","0.0-4.0-1.0-1.31","2","1","8f7wdah1hjmvrly","","1794.000000000029","","What sound did you hear?","0","","","1","INDUCTION-JUDGMENT","left","0","","","","","","","","","","","","","","","","","","","","","","","","","","","","","","","","","","","","",""
"html-keyboard-response","116","150220","0.0-4.0-1.0-2.31","2","1","8f7wdah1hjmvrly","","null","","<p style=""color:green;""><b>Correct!</b></p>","","null","","","","","","","","","","","","","","","","","","","","","","","","","","","","","","","","","","","","","","","","","",""
"audio-keyboard-response","117","151028","0.0-4.0-1.0-0.32","2","1","8f7wdah1hjmvrly","","null","","sounds/induction/left/ko_SWS.wav","","null","","","","","","","","","","","","","","","","","","","","","","","","","","","","","","","","","","","","","","","","","",""
"html-button-response","118","152292","0.0-4.0-1.0-1.32","2","1","8f7wdah1hjmvrly","","1263","","What sound did you hear?","1","","","1","INDUCTION-JUDGMENT","left","1","","","","","","","","","","","","","","","","","","","","","","","","","","","","","","","","","","","","",""
"html-keyboard-response","119","153295","0.0-4.0-1.0-2.32","2","1","8f7wdah1hjmvrly","","null","","<p style=""color:green;""><b>Correct!</b></p>","","null","","","","","","","","","","","","","","","","","","","","","","","","","","","","","","","","","","","","","","","","","",""
"audio-keyboard-response","120","154099","0.0-4.0-1.0-0.33","2","1","8f7wdah1hjmvrly","","null","","sounds/induction/left/ko_SWS.wav","","null","","","","","","","","","","","","","","","","","","","","","","","","","","","","","","","","","","","","","","","","","",""
"html-button-response","121","154925","0.0-4.0-1.0-1.33","2","1","8f7wdah1hjmvrly","","824","","What sound did you hear?","1","","","1","INDUCTION-JUDGMENT","left","1","","","","","","","","","","","","","","","","","","","","","","","","","","","","","","","","","","","","",""
"html-keyboard-response","122","155927","0.0-4.0-1.0-2.33","2","1","8f7wdah1hjmvrly","","null","","<p style=""color:green;""><b>Correct!</b></p>","","null","","","","","","","","","","","","","","","","","","","","","","","","","","","","","","","","","","","","","","","","","",""
"audio-keyboard-response","123","156734","0.0-4.0-1.0-0.34","2","1","8f7wdah1hjmvrly","","null","","sounds/induction/right/fu_SWS.wav","","null","","","","","","","","","","","","","","","","","","","","","","","","","","","","","","","","","","","","","","","","","",""
"html-button-response","124","157619","0.0-4.0-1.0-1.34","2","1","8f7wdah1hjmvrly","","883.9999999999709","","What sound did you hear?","0","","","1","INDUCTION-JUDGMENT","right","0","","","","","","","","","","","","","","","","","","","","","","","","","","","","","","","","","","","","",""
"html-keyboard-response","125","158621","0.0-4.0-1.0-2.34","2","1","8f7wdah1hjmvrly","","null","","<p style=""color:green;""><b>Correct!</b></p>","","null","","","","","","","","","","","","","","","","","","","","","","","","","","","","","","","","","","","","","","","","","",""
"audio-keyboard-response","126","159422","0.0-4.0-1.0-0.35","2","1","8f7wdah1hjmvrly","","null","","sounds/induction/left/ru_SWS.wav","","null","","","","","","","","","","","","","","","","","","","","","","","","","","","","","","","","","","","","","","","","","",""
"html-button-response","127","160243","0.0-4.0-1.0-1.35","2","1","8f7wdah1hjmvrly","","820","","What sound did you hear?","0","","","1","INDUCTION-JUDGMENT","left","0","","","","","","","","","","","","","","","","","","","","","","","","","","","","","","","","","","","","",""
"html-keyboard-response","128","161244","0.0-4.0-1.0-2.35","2","1","8f7wdah1hjmvrly","","null","","<p style=""color:green;""><b>Correct!</b></p>","","null","","","","","","","","","","","","","","","","","","","","","","","","","","","","","","","","","","","","","","","","","",""
"audio-keyboard-response","129","162046","0.0-4.0-1.0-0.36","2","1","8f7wdah1hjmvrly","","null","","sounds/induction/right/pu_SWS.wav","","null","","","","","","","","","","","","","","","","","","","","","","","","","","","","","","","","","","","","","","","","","",""
"html-button-response","130","163003","0.0-4.0-1.0-1.36","2","1","8f7wdah1hjmvrly","","956.0000000000291","","What sound did you hear?","1","","","1","INDUCTION-JUDGMENT","right","1","","","","","","","","","","","","","","","","","","","","","","","","","","","","","","","","","","","","",""
"html-keyboard-response","131","164005","0.0-4.0-1.0-2.36","2","1","8f7wdah1hjmvrly","","null","","<p style=""color:green;""><b>Correct!</b></p>","","null","","","","","","","","","","","","","","","","","","","","","","","","","","","","","","","","","","","","","","","","","",""
"audio-keyboard-response","132","164809","0.0-4.0-1.0-0.37","2","1","8f7wdah1hjmvrly","","null","","sounds/induction/right/me_SWS.wav","","null","","","","","","","","","","","","","","","","","","","","","","","","","","","","","","","","","","","","","","","","","",""
"html-button-response","133","165509","0.0-4.0-1.0-1.37","2","1","8f7wdah1hjmvrly","","699.0000000000291","","What sound did you hear?","0","","","1","INDUCTION-JUDGMENT","right","0","","","","","","","","","","","","","","","","","","","","","","","","","","","","","","","","","","","","",""
"html-keyboard-response","134","166512","0.0-4.0-1.0-2.37","2","1","8f7wdah1hjmvrly","","null","","<p style=""color:green;""><b>Correct!</b></p>","","null","","","","","","","","","","","","","","","","","","","","","","","","","","","","","","","","","","","","","","","","","",""
"audio-keyboard-response","135","167315","0.0-4.0-1.0-0.38","2","1","8f7wdah1hjmvrly","","null","","sounds/induction/right/ko_SWS.wav","","null","","","","","","","","","","","","","","","","","","","","","","","","","","","","","","","","","","","","","","","","","",""
"html-button-response","136","168220","0.0-4.0-1.0-1.38","2","1","8f7wdah1hjmvrly","","903","","What sound did you hear?","0","","","1","INDUCTION-JUDGMENT","right","0","","","","","","","","","","","","","","","","","","","","","","","","","","","","","","","","","","","","",""
"html-keyboard-response","137","169221","0.0-4.0-1.0-2.38","2","1","8f7wdah1hjmvrly","","null","","<p style=""color:green;""><b>Correct!</b></p>","","null","","","","","","","","","","","","","","","","","","","","","","","","","","","","","","","","","","","","","","","","","",""
"audio-keyboard-response","138","170024","0.0-4.0-1.0-0.39","2","1","8f7wdah1hjmvrly","","null","","sounds/induction/left/fe_SWS.wav","","null","","","","","","","","","","","","","","","","","","","","","","","","","","","","","","","","","","","","","","","","","",""
"html-button-response","139","171132","0.0-4.0-1.0-1.39","2","1","8f7wdah1hjmvrly","","1106","","What sound did you hear?","1","","","1","INDUCTION-JUDGMENT","left","1","","","","","","","","","","","","","","","","","","","","","","","","","","","","","","","","","","","","",""
"html-keyboard-response","140","172134","0.0-4.0-1.0-2.39","2","1","8f7wdah1hjmvrly","","null","","<p style=""color:green;""><b>Correct!</b></p>","","null","","","","","","","","","","","","","","","","","","","","","","","","","","","","","","","","","","","","","","","","","",""
"audio-keyboard-response","141","172936","0.0-4.0-1.0-0.40","2","1","8f7wdah1hjmvrly","","null","","sounds/induction/left/ti_SWS.wav","","null","","","","","","","","","","","","","","","","","","","","","","","","","","","","","","","","","","","","","","","","","",""
"html-button-response","142","173651","0.0-4.0-1.0-1.40","2","1","8f7wdah1hjmvrly","","713","","What sound did you hear?","0","","","1","INDUCTION-JUDGMENT","left","0","","","","","","","","","","","","","","","","","","","","","","","","","","","","","","","","","","","","",""
"html-keyboard-response","143","174653","0.0-4.0-1.0-2.40","2","1","8f7wdah1hjmvrly","","null","","<p style=""color:green;""><b>Correct!</b></p>","","null","","","","","","","","","","","","","","","","","","","","","","","","","","","","","","","","","","","","","","","","","",""
"audio-keyboard-response","144","175464","0.0-4.0-1.0-0.41","2","1","8f7wdah1hjmvrly","","null","","sounds/induction/right/pu_SWS.wav","","null","","","","","","","","","","","","","","","","","","","","","","","","","","","","","","","","","","","","","","","","","",""
"html-button-response","145","176324","0.0-4.0-1.0-1.41","2","1","8f7wdah1hjmvrly","","858.0000000000291","","What sound did you hear?","1","","","1","INDUCTION-JUDGMENT","right","1","","","","","","","","","","","","","","","","","","","","","","","","","","","","","","","","","","","","",""
"html-keyboard-response","146","177326","0.0-4.0-1.0-2.41","2","1","8f7wdah1hjmvrly","","null","","<p style=""color:green;""><b>Correct!</b></p>","","null","","","","","","","","","","","","","","","","","","","","","","","","","","","","","","","","","","","","","","","","","",""
"audio-keyboard-response","147","178131","0.0-4.0-1.0-0.42","2","1","8f7wdah1hjmvrly","","null","","sounds/induction/left/me_SWS.wav","","null","","","","","","","","","","","","","","","","","","","","","","","","","","","","","","","","","","","","","","","","","",""
"html-button-response","148","179332","0.0-4.0-1.0-1.42","2","1","8f7wdah1hjmvrly","","1201","","What sound did you hear?","1","","","1","INDUCTION-JUDGMENT","left","1","","","","","","","","","","","","","","","","","","","","","","","","","","","","","","","","","","","","",""
"html-keyboard-response","149","180334","0.0-4.0-1.0-2.42","2","1","8f7wdah1hjmvrly","","null","","<p style=""color:green;""><b>Correct!</b></p>","","null","","","","","","","","","","","","","","","","","","","","","","","","","","","","","","","","","","","","","","","","","",""
"audio-keyboard-response","150","181139","0.0-4.0-1.0-0.43","2","1","8f7wdah1hjmvrly","","null","","sounds/induction/right/ge_SWS.wav","","null","","","","","","","","","","","","","","","","","","","","","","","","","","","","","","","","","","","","","","","","","",""
"html-button-response","151","182020","0.0-4.0-1.0-1.43","2","1","8f7wdah1hjmvrly","","879","","What sound did you hear?","0","","","1","INDUCTION-JUDGMENT","right","0","","","","","","","","","","","","","","","","","","","","","","","","","","","","","","","","","","","","",""
"html-keyboard-response","152","183022","0.0-4.0-1.0-2.43","2","1","8f7wdah1hjmvrly","","null","","<p style=""color:green;""><b>Correct!</b></p>","","null","","","","","","","","","","","","","","","","","","","","","","","","","","","","","","","","","","","","","","","","","",""
"audio-keyboard-response","153","183827","0.0-4.0-1.0-0.44","2","1","8f7wdah1hjmvrly","","null","","sounds/induction/right/su_SWS.wav","","null","","","","","","","","","","","","","","","","","","","","","","","","","","","","","","","","","","","","","","","","","",""
"html-button-response","154","184797","0.0-4.0-1.0-1.44","2","1","8f7wdah1hjmvrly","","968","","What sound did you hear?","1","","","1","INDUCTION-JUDGMENT","right","1","","","","","","","","","","","","","","","","","","","","","","","","","","","","","","","","","","","","",""
"html-keyboard-response","155","185798","0.0-4.0-1.0-2.44","2","1","8f7wdah1hjmvrly","","null","","<p style=""color:green;""><b>Correct!</b></p>","","null","","","","","","","","","","","","","","","","","","","","","","","","","","","","","","","","","","","","","","","","","",""
"audio-keyboard-response","156","186600","0.0-4.0-1.0-0.45","2","1","8f7wdah1hjmvrly","","null","","sounds/induction/right/ni_SWS.wav","","null","","","","","","","","","","","","","","","","","","","","","","","","","","","","","","","","","","","","","","","","","",""
"html-button-response","157","187339","0.0-4.0-1.0-1.45","2","1","8f7wdah1hjmvrly","","738","","What sound did you hear?","0","","","1","INDUCTION-JUDGMENT","right","0","","","","","","","","","","","","","","","","","","","","","","","","","","","","","","","","","","","","",""
"html-keyboard-response","158","188341","0.0-4.0-1.0-2.45","2","1","8f7wdah1hjmvrly","","null","","<p style=""color:green;""><b>Correct!</b></p>","","null","","","","","","","","","","","","","","","","","","","","","","","","","","","","","","","","","","","","","","","","","",""
"audio-keyboard-response","159","189149","0.0-4.0-1.0-0.46","2","1","8f7wdah1hjmvrly","","null","","sounds/induction/right/fe_SWS.wav","","null","","","","","","","","","","","","","","","","","","","","","","","","","","","","","","","","","","","","","","","","","",""
"html-button-response","160","189970","0.0-4.0-1.0-1.46","2","1","8f7wdah1hjmvrly","","820","","What sound did you hear?","0","","","1","INDUCTION-JUDGMENT","right","0","","","","","","","","","","","","","","","","","","","","","","","","","","","","","","","","","","","","",""
"html-keyboard-response","161","190972","0.0-4.0-1.0-2.46","2","1","8f7wdah1hjmvrly","","null","","<p style=""color:green;""><b>Correct!</b></p>","","null","","","","","","","","","","","","","","","","","","","","","","","","","","","","","","","","","","","","","","","","","",""
"audio-keyboard-response","162","191773","0.0-4.0-1.0-0.47","2","1","8f7wdah1hjmvrly","","null","","sounds/induction/right/ti_SWS.wav","","null","","","","","","","","","","","","","","","","","","","","","","","","","","","","","","","","","","","","","","","","","",""
"html-button-response","163","193010","0.0-4.0-1.0-1.47","2","1","8f7wdah1hjmvrly","","1236","","What sound did you hear?","1","","","1","INDUCTION-JUDGMENT","right","1","","","","","","","","","","","","","","","","","","","","","","","","","","","","","","","","","","","","",""
"html-keyboard-response","164","194012","0.0-4.0-1.0-2.47","2","1","8f7wdah1hjmvrly","","null","","<p style=""color:green;""><b>Correct!</b></p>","","null","","","","","","","","","","","","","","","","","","","","","","","","","","","","","","","","","","","","","","","","","",""
"html-button-response","165","204777","0.0-5.0-0.0","2","1","8f7wdah1hjmvrly","","10262.99999999997","","<p>Thank you for your answers.</p><p>You will now listen to similar sounds. The main difference is that the sounds will be longer and will make up complete sentences.</p><p>Please listen carefully to each sentence. After each sentence, you will be asked to type back what you heard to the best of your ability. After you provide your response, you will be given feedback about the correct answer.</p><p>There are 10 sentences in total.","0","","","","","","","","","","","","","","","","","","","","","","","","","","","","","","","","","","","","","","","","","","",""
"audio-keyboard-response","166","207602","0.0-5.0-1.0-0.0","2","1","8f7wdah1hjmvrly","","null","","sounds/sentences/left/14_02_cfSWS.wav","","null","","","","","","","","","","","","","","","","","","","","","","","","","","","","","","","","","","","","","","","","","",""
"sentence-resp","167","220210","0.0-5.0-1.0-1.0","2","1","8f7wdah1hjmvrly","","12605","","","","","","","SWS-SENT-RESPONSE","","","{""Q0"":""I ""}","He said the same phrase thirty times.","said,same,phrase,thirty,times","I ","0","0","0","0","0","0","0","","","","","","","","","","","","","","","","","","","","","","","","","",""
"html-keyboard-response","168","221464","0.0-5.0-1.0-2.0","2","1","8f7wdah1hjmvrly","","null","","","","null","","","","","","","","","","","","","","","","","","","","","","","","","","","","","","","","","","","","","","","","","",""
"audio-keyboard-response","169","223784","0.0-5.0-1.0-3.0","2","1","8f7wdah1hjmvrly","","null","","sounds/sentences/left/14_02_cfSWS.wav","","null","","","","","","","","","","","","","","","","","","","","","","","","","","","","","","","","","","","","","","","","","",""
"html-keyboard-response","170","224786","0.0-5.0-1.0-4.0","2","1","8f7wdah1hjmvrly","","null","","","","null","","","","","","","","","","","","","","","","","","","","","","","","","","","","","","","","","","","","","","","","","",""
"html-button-response","171","226832","0.0-5.0-1.0-5.0","2","1","8f7wdah1hjmvrly","","1543.999999999971","","<p>Press the button below when you are ready to continue.</p>","0","","","","","","","","","","","","","","","","","","","","","","","","","","","","","","","","","","","","","","","","","","",""
"audio-keyboard-response","172","229714","0.0-5.0-1.0-0.1","2","1","8f7wdah1hjmvrly","","null","","sounds/sentences/right/14_07_cfSWS.wav","","null","","","","","","","","","","","","","","","","","","","","","","","","","","","","","","","","","","","","","","","","","",""
"sentence-resp","173","241531","0.0-5.0-1.0-1.1","2","1","8f7wdah1hjmvrly","","11816","","","","","","","SWS-SENT-RESPONSE","","","{""Q0"":""she said the phrase twenty times""}","Write a fond note to the friend you cherish.","write,fond,note,friend,cherish","SHE SAID THE PHRASE TWENTY TIMES","0","0","0","0","0","0","0","","","","","","","","","","","","","","","","","","","","","","","","","",""
"html-keyboard-response","174","242784","0.0-5.0-1.0-2.1","2","1","8f7wdah1hjmvrly","","null","","","","null","","","","","","","","","","","","","","","","","","","","","","","","","","","","","","","","","","","","","","","","","",""
"audio-keyboard-response","175","245170","0.0-5.0-1.0-3.1","2","1","8f7wdah1hjmvrly","","null","","sounds/sentences/right/14_07_cfSWS.wav","","null","","","","","","","","","","","","","","","","","","","","","","","","","","","","","","","","","","","","","","","","","",""
"html-keyboard-response","176","246172","0.0-5.0-1.0-4.1","2","1","8f7wdah1hjmvrly","","null","","","","null","","","","","","","","","","","","","","","","","","","","","","","","","","","","","","","","","","","","","","","","","",""
"html-button-response","177","248354","0.0-5.0-1.0-5.1","2","1","8f7wdah1hjmvrly","","1679","","<p>Press the button below when you are ready to continue.</p>","0","","","","","","","","","","","","","","","","","","","","","","","","","","","","","","","","","","","","","","","","","","",""
"audio-keyboard-response","178","250908","0.0-5.0-1.0-0.2","2","1","8f7wdah1hjmvrly","","null","","sounds/sentences/left/14_04_cfSWS.wav","","null","","","","","","","","","","","","","","","","","","","","","","","","","","","","","","","","","","","","","","","","","",""
"sentence-resp","179","269832","0.0-5.0-1.0-1.2","2","1","8f7wdah1hjmvrly","","18922","","","","","","","SWS-SENT-RESPONSE","","","{""Q0"":""I found a friend to see""}","Two plus seven is less than ten.","two,plus,seven,less,ten","I FOUND A FRIEND TO SEE","0","0","0","0","0","0","0","","","","","","","","","","","","","","","","","","","","","","","","","",""
"html-keyboard-response","180","271085","0.0-5.0-1.0-2.2","2","1","8f7wdah1hjmvrly","","null","","","","null","","","","","","","","","","","","","","","","","","","","","","","","","","","","","","","","","","","","","","","","","",""
"audio-keyboard-response","181","273137","0.0-5.0-1.0-3.2","2","1","8f7wdah1hjmvrly","","null","","sounds/sentences/left/14_04_cfSWS.wav","","null","","","","","","","","","","","","","","","","","","","","","","","","","","","","","","","","","","","","","","","","","",""
"html-keyboard-response","182","274140","0.0-5.0-1.0-4.2","2","1","8f7wdah1hjmvrly","","null","","","","null","","","","","","","","","","","","","","","","","","","","","","","","","","","","","","","","","","","","","","","","","",""
"html-button-response","183","278133","0.0-5.0-1.0-5.2","2","1","8f7wdah1hjmvrly","","3491","","<p>Press the button below when you are ready to continue.</p>","0","","","","","","","","","","","","","","","","","","","","","","","","","","","","","","","","","","","","","","","","","","",""
"audio-keyboard-response","184","281254","0.0-5.0-1.0-0.3","2","1","8f7wdah1hjmvrly","","null","","sounds/sentences/left/14_01_cfSWS.wav","","null","","","","","","","","","","","","","","","","","","","","","","","","","","","","","","","","","","","","","","","","","",""
"sentence-resp","185","294686","0.0-5.0-1.0-1.3","2","1","8f7wdah1hjmvrly","","13431","","","","","","","SWS-SENT-RESPONSE","","","{""Q0"":""right now I am studying ""}","A cramp is no small danger on a swim.","cramp,no,small,danger,swim","RIGHT NOW I AM STUDYING ","0","0","0","0","0","0","0","","","","","","","","","","","","","","","","","","","","","","","","","",""
"html-keyboard-response","186","295939","0.0-5.0-1.0-2.3","2","1","8f7wdah1hjmvrly","","null","","","","null","","","","","","","","","","","","","","","","","","","","","","","","","","","","","","","","","","","","","","","","","",""
"audio-keyboard-response","187","298555","0.0-5.0-1.0-3.3","2","1","8f7wdah1hjmvrly","","null","","sounds/sentences/left/14_01_cfSWS.wav","","null","","","","","","","","","","","","","","","","","","","","","","","","","","","","","","","","","","","","","","","","","",""
"html-keyboard-response","188","299558","0.0-5.0-1.0-4.3","2","1","8f7wdah1hjmvrly","","null","","","","null","","","","","","","","","","","","","","","","","","","","","","","","","","","","","","","","","","","","","","","","","",""
"html-button-response","189","301784","0.0-5.0-1.0-5.3","2","1","8f7wdah1hjmvrly","","1724","","<p>Press the button below when you are ready to continue.</p>","0","","","","","","","","","","","","","","","","","","","","","","","","","","","","","","","","","","","","","","","","","","",""
"audio-keyboard-response","190","304774","0.0-5.0-1.0-0.4","2","1","8f7wdah1hjmvrly","","null","","sounds/sentences/left/14_05_cfSWS.wav","","null","","","","","","","","","","","","","","","","","","","","","","","","","","","","","","","","","","","","","","","","","",""
"sentence-resp","191","311814","0.0-5.0-1.0-1.4","2","1","8f7wdah1hjmvrly","","7039","","","","","","","SWS-SENT-RESPONSE","","","{""Q0"":""I saw a little girl""}","The glow deepened in the eyes of the sweet girl.","glow,deepened,eyes,sweet,girl","I SAW A LITTLE GIRL","0","0","0","0","1","1","0.2","","","","","","","","","","","","","","","","","","","","","","","","","",""
"html-keyboard-response","192","313068","0.0-5.0-1.0-2.4","2","1","8f7wdah1hjmvrly","","null","","","","null","","","","","","","","","","","","","","","","","","","","","","","","","","","","","","","","","","","","","","","","","",""
"audio-keyboard-response","193","315558","0.0-5.0-1.0-3.4","2","1","8f7wdah1hjmvrly","","null","","sounds/sentences/left/14_05_cfSWS.wav","","null","","","","","","","","","","","","","","","","","","","","","","","","","","","","","","","","","","","","","","","","","",""
"html-keyboard-response","194","316560","0.0-5.0-1.0-4.4","2","1","8f7wdah1hjmvrly","","null","","","","null","","","","","","","","","","","","","","","","","","","","","","","","","","","","","","","","","","","","","","","","","",""
"html-button-response","195","317906","0.0-5.0-1.0-5.4","2","1","8f7wdah1hjmvrly","","842.9999999999418","","<p>Press the button below when you are ready to continue.</p>","0","","","","","","","","","","","","","","","","","","","","","","","","","","","","","","","","","","","","","","","","","","",""
"audio-keyboard-response","196","320923","0.0-5.0-1.0-0.5","2","1","8f7wdah1hjmvrly","","null","","sounds/sentences/right/14_10_cfSWS.wav","","null","","","","","","","","","","","","","","","","","","","","","","","","","","","","","","","","","","","","","","","","","",""
"sentence-resp","197","331960","0.0-5.0-1.0-1.5","2","1","8f7wdah1hjmvrly","","11036","","","","","","","SWS-SENT-RESPONSE","","","{""Q0"":""there was a strong boy with a smoky face""}","Port is a strong wine with a smoky taste.","port,strong,wine,smoky,taste","THERE WAS A STRONG BOY WITH A SMOKY FACE","0","1","0","1","0","2","0.4","","","","","","","","","","","","","","","","","","","","","","","","","",""
"html-keyboard-response","198","333212","0.0-5.0-1.0-2.5","2","1","8f7wdah1hjmvrly","","null","","","","null","","","","","","","","","","","","","","","","","","","","","","","","","","","","","","","","","","","","","","","","","",""
"audio-keyboard-response","199","335728","0.0-5.0-1.0-3.5","2","1","8f7wdah1hjmvrly","","null","","sounds/sentences/right/14_10_cfSWS.wav","","null","","","","","","","","","","","","","","","","","","","","","","","","","","","","","","","","","","","","","","","","","",""
"html-keyboard-response","200","336731","0.0-5.0-1.0-4.5","2","1","8f7wdah1hjmvrly","","null","","","","null","","","","","","","","","","","","","","","","","","","","","","","","","","","","","","","","","","","","","","","","","",""
"html-button-response","201","338531","0.0-5.0-1.0-5.5","2","1","8f7wdah1hjmvrly","","1297","","<p>Press the button below when you are ready to continue.</p>","0","","","","","","","","","","","","","","","","","","","","","","","","","","","","","","","","","","","","","","","","","","",""
"audio-keyboard-response","202","341114","0.0-5.0-1.0-0.6","2","1","8f7wdah1hjmvrly","","null","","sounds/sentences/left/14_03_cfSWS.wav","","null","","","","","","","","","","","","","","","","","","","","","","","","","","","","","","","","","","","","","","","","","",""
"sentence-resp","203","352857","0.0-5.0-1.0-1.6","2","1","8f7wdah1hjmvrly","","11742","","","","","","","SWS-SENT-RESPONSE","","","{""Q0"":""one burger and fries to go please""}","Pluck the bright rose without leaves.","pluck,bright,rose,without,leaves","ONE BURGER AND FRIES TO GO PLEASE","0","0","0","0","0","0","0","","","","","","","","","","","","","","","","","","","","","","","","","",""
"html-keyboard-response","204","354111","0.0-5.0-1.0-2.6","2","1","8f7wdah1hjmvrly","","null","","","","null","","","","","","","","","","","","","","","","","","","","","","","","","","","","","","","","","","","","","","","","","",""
"audio-keyboard-response","205","356197","0.0-5.0-1.0-3.6","2","1","8f7wdah1hjmvrly","","null","","sounds/sentences/left/14_03_cfSWS.wav","","null","","","","","","","","","","","","","","","","","","","","","","","","","","","","","","","","","","","","","","","","","",""
"html-keyboard-response","206","357199","0.0-5.0-1.0-4.6","2","1","8f7wdah1hjmvrly","","null","","","","null","","","","","","","","","","","","","","","","","","","","","","","","","","","","","","","","","","","","","","","","","",""
"html-button-response","207","358882","0.0-5.0-1.0-5.6","2","1","8f7wdah1hjmvrly","","1181","","<p>Press the button below when you are ready to continue.</p>","0","","","","","","","","","","","","","","","","","","","","","","","","","","","","","","","","","","","","","","","","","","",""
"audio-keyboard-response","208","361604","0.0-5.0-1.0-0.7","2","1","8f7wdah1hjmvrly","","null","","sounds/sentences/right/14_09_cfSWS.wav","","null","","","","","","","","","","","","","","","","","","","","","","","","","","","","","","","","","","","","","","","","","",""
"sentence-resp","209","370853","0.0-5.0-1.0-1.7","2","1","8f7wdah1hjmvrly","","9247","","","","","","","SWS-SENT-RESPONSE","","","{""Q0"":""we saw the leaf on that tree""}","We frown when events take a bad turn.","frown,events,take,bad,turn","WE SAW THE LEAF ON THAT TREE","0","0","0","0","0","0","0","","","","","","","","","","","","","","","","","","","","","","","","","",""
"html-keyboard-response","210","372107","0.0-5.0-1.0-2.7","2","1","8f7wdah1hjmvrly","","null","","","","null","","","","","","","","","","","","","","","","","","","","","","","","","","","","","","","","","","","","","","","","","",""
"audio-keyboard-response","211","374329","0.0-5.0-1.0-3.7","2","1","8f7wdah1hjmvrly","","null","","sounds/sentences/right/14_09_cfSWS.wav","","null","","","","","","","","","","","","","","","","","","","","","","","","","","","","","","","","","","","","","","","","","",""
"html-keyboard-response","212","375331","0.0-5.0-1.0-4.7","2","1","8f7wdah1hjmvrly","","null","","","","null","","","","","","","","","","","","","","","","","","","","","","","","","","","","","","","","","","","","","","","","","",""
"html-button-response","213","376837","0.0-5.0-1.0-5.7","2","1","8f7wdah1hjmvrly","","1003","","<p>Press the button below when you are ready to continue.</p>","0","","","","","","","","","","","","","","","","","","","","","","","","","","","","","","","","","","","","","","","","","","",""
"audio-keyboard-response","214","379599","0.0-5.0-1.0-0.8","2","1","8f7wdah1hjmvrly","","null","","sounds/sentences/right/14_08_cfSWS.wav","","null","","","","","","","","","","","","","","","","","","","","","","","","","","","","","","","","","","","","","","","","","",""
"sentence-resp","215","393479","0.0-5.0-1.0-1.8","2","1","8f7wdah1hjmvrly","","13878","","","","","","","SWS-SENT-RESPONSE","","","{""Q0"":""I was watching you free from them""}","Clothes and lodging are free to new men.","clothes,lodging,free,new,men","I WAS WATCHING YOU FREE FROM THEM","0","0","1","0","0","1","0.2","","","","","","","","","","","","","","","","","","","","","","","","","",""
"html-keyboard-response","216","394732","0.0-5.0-1.0-2.8","2","1","8f7wdah1hjmvrly","","null","","","","null","","","","","","","","","","","","","","","","","","","","","","","","","","","","","","","","","","","","","","","","","",""
"audio-keyboard-response","217","396985","0.0-5.0-1.0-3.8","2","1","8f7wdah1hjmvrly","","null","","sounds/sentences/right/14_08_cfSWS.wav","","null","","","","","","","","","","","","","","","","","","","","","","","","","","","","","","","","","","","","","","","","","",""
"html-keyboard-response","218","397988","0.0-5.0-1.0-4.8","2","1","8f7wdah1hjmvrly","","null","","","","null","","","","","","","","","","","","","","","","","","","","","","","","","","","","","","","","","","","","","","","","","",""
"html-button-response","219","399345","0.0-5.0-1.0-5.8","2","1","8f7wdah1hjmvrly","","855","","<p>Press the button below when you are ready to continue.</p>","0","","","","","","","","","","","","","","","","","","","","","","","","","","","","","","","","","","","","","","","","","","",""
"audio-keyboard-response","220","402094","0.0-5.0-1.0-0.9","2","1","8f7wdah1hjmvrly","","null","","sounds/sentences/right/14_06_cfSWS.wav","","null","","","","","","","","","","","","","","","","","","","","","","","","","","","","","","","","","","","","","","","","","",""
"sentence-resp","221","414737","0.0-5.0-1.0-1.9","2","1","8f7wdah1hjmvrly","","12640","","","","","","","SWS-SENT-RESPONSE","","","{""Q0"":""bring me your problem to the wise chief""}","Bring your problems to the wise chief.","bring,your,problems,wise,chief","BRING ME YOUR PROBLEM TO THE WISE CHIEF","1","1","0","1","1","4","0.8","","","","","","","","","","","","","","","","","","","","","","","","","",""
"html-keyboard-response","222","415990","0.0-5.0-1.0-2.9","2","1","8f7wdah1hjmvrly","","null","","","","null","","","","","","","","","","","","","","","","","","","","","","","","","","","","","","","","","","","","","","","","","",""
"audio-keyboard-response","223","418233","0.0-5.0-1.0-3.9","2","1","8f7wdah1hjmvrly","","null","","sounds/sentences/right/14_06_cfSWS.wav","","null","","","","","","","","","","","","","","","","","","","","","","","","","","","","","","","","","","","","","","","","","",""
"html-keyboard-response","224","419235","0.0-5.0-1.0-4.9","2","1","8f7wdah1hjmvrly","","null","","","","null","","","","","","","","","","","","","","","","","","","","","","","","","","","","","","","","","","","","","","","","","",""
"html-button-response","225","420324","0.0-5.0-1.0-5.9","2","1","8f7wdah1hjmvrly","","588","","<p>Press the button below when you are ready to continue.</p>","0","","","","","","","","","","","","","","","","","","","","","","","","","","","","","","","","","","","","","","","","","","",""
"html-keyboard-response","226","432298","0.0-6.0-0.0","2","1","8f7wdah1hjmvrly","","11471","","<p>In this part of the study, you will hear sounds similar to those you just heard.</p><p>Please focus on these sounds, as you may be asked questions about them later.</p><p>Occasionally, the sounds will pause for up to two seconds. When this happens, please press SPACEBAR as quickly as you can.</br>This helps ensure that you are paying attention to the sounds.</p><p>This part of the study will take about 12 minutes to complete, and you will be given the opportunity to take a couple of short breaks every few minutes.</p><p><strong>Press SPACEBAR to begin</strong></p>","","32","","","","","","","","","","","","","","","","","","","","","","","","","","","","","","","","","","","","","","","","","",""
"html-keyboard-response","227","433300","0.0-6.0-1.0-0.0","2","1","8f7wdah1hjmvrly","","null","","<p style=""font-size: 40px;"">+</p>","","null","","","","","","","","","","","","","","","","","","","","","","","","","","","","","","","","","","","","","","","","","",""
"html-keyboard-response","228","618301","0.0-6.0-1.0-1.0","2","1","8f7wdah1hjmvrly","","null","","","","null","","","SL-TRAIN","","","","","","","","","","","","","","2","null","null","sounds/B/TRAIN/SEQ__06.mp3","56","","","","","","","","","","","","","","","","","","","","",""
"html-button-response","229","5496830","0.0-6.0-1.0-2.0","2","1","8f7wdah1hjmvrly","","1844822","","<p>You may take a short break if you wish.</p>","0","","","","","","","","","","","","","","","","","","","","","","","","","","","","","","","","","","","","","","","","","","",""
"html-keyboard-response","230","5497835","0.0-6.0-1.0-3.0","2","1","8f7wdah1hjmvrly","","null","","<p style=""font-size: 40px;"">+</p>","","null","","","","","","","","","","","","","","","","","","","","","","","","","","","","","","","","","","","","","","","","","",""
"html-keyboard-response","231","5682836","0.0-6.0-1.0-4.0","2","1","8f7wdah1hjmvrly","","null","","","","null","","","SL-TRAIN","","","","","","","","","","","","","","2","null","null","sounds/B/TRAIN/SEQ__07.mp3","20","","","","","","","","","","","","","","","","","","","","",""
"html-button-response","232","5732776","0.0-6.0-1.0-5.0","2","1","8f7wdah1hjmvrly","","49938","","<p>You may take a short break if you wish.</p>","0","","","","","","","","","","","","","","","","","","","","","","","","","","","","","","","","","","","","","","","","","","",""
"html-keyboard-response","233","5733777","0.0-6.0-1.0-6.0","2","1","8f7wdah1hjmvrly","","null","","<p style=""font-size: 40px;"">+</p>","","null","","","","","","","","","","","","","","","","","","","","","","","","","","","","","","","","","","","","","","","","","",""
"html-keyboard-response","234","5918776","0.0-6.0-1.0-7.0","2","1","8f7wdah1hjmvrly","","null","","","","null","","","SL-TRAIN","","","","","","","","","","","","","","2","null","null","sounds/B/TRAIN/SEQ__01.mp3","6","","","","","","","","","","","","","","","","","","","","",""
"html-button-response","235","6453274","0.0-6.0-1.0-8.0","2","1","8f7wdah1hjmvrly","","534509","","<p>You may take a short break if you wish.</p>","0","","","","","","","","","","","","","","","","","","","","","","","","","","","","","","","","","","","","","","","","","","",""
"html-keyboard-response","236","6454277","0.0-6.0-1.0-9.0","2","1","8f7wdah1hjmvrly","","null","","<p style=""font-size: 40px;"">+</p>","","null","","","","","","","","","","","","","","","","","","","","","","","","","","","","","","","","","","","","","","","","","",""
"html-keyboard-response","237","6639282","0.0-6.0-1.0-10.0","2","1","8f7wdah1hjmvrly","","null","","","","null","","","SL-TRAIN","","","","","","","","","","","","","","2","null","null","sounds/B/TRAIN/SEQ__10.mp3","28","","","","","","","","","","","","","","","","","","","","",""
"html-button-response","238","6814596","0.0-6.0-1.0-11.0","2","1","8f7wdah1hjmvrly","","175314","","<p>You may take a short break if you wish.</p>","0","","","","","","","","","","","","","","","","","","","","","","","","","","","","","","","","","","","","","","","","","","",""
"html-button-response","239","6822014","0.0-7.0-0.0","2","1","8f7wdah1hjmvrly","","7416","","<p>Welcome to the second part of the study. This is a <u>familiarity task</u>.</p><p>You will now hear short sounds and will be asked to rate how familiar they sound to you <b>based on what you heard in the previous part of the study</b>.</p><p>You will rate 12 sounds in total.</p>","0","","","","","","","","","","","","","","","","","","","","","","","","","","","","","","","","","","","","","","","","","","",""
"html-keyboard-response","240","6823017","0.0-7.0-1.0-0.0","2","1","8f7wdah1hjmvrly","","null","","","","null","","","","","","","","","","","","","","","","","","","","","","","","","","","","","","","","","","","","","","","","","",""
"audio-keyboard-response","241","6823959","0.0-7.0-1.0-1.0","2","1","8f7wdah1hjmvrly","","null","","sounds/B/FAM/N001.mp3","","null","","","","","","","","","","","","","","","","","","","","","","","","","","","","","","","","","","","","","","","","","",""
"html-keyboard-response","242","6839081","0.0-7.0-1.0-2.0","2","1","8f7wdah1hjmvrly","","14620","","<p>How familiar did this sound to you?</p><p>1&nbsp;&nbsp;&nbsp;&nbsp;&nbsp;&nbsp;&nbsp;&nbsp;&nbsp;&nbsp;&nbsp;&nbsp;&nbsp;&nbsp;&nbsp;&nbsp;&nbsp;&nbsp;&nbsp;2&nbsp;&nbsp;&nbsp;&nbsp;&nbsp;&nbsp;&nbsp;&nbsp;&nbsp;&nbsp;&nbsp;&nbsp;&nbsp;&nbsp;&nbsp;&nbsp;&nbsp;&nbsp;&nbsp;3&nbsp;&nbsp;&nbsp;&nbsp;&nbsp;&nbsp;&nbsp;&nbsp;&nbsp;&nbsp;&nbsp;&nbsp;&nbsp;&nbsp;&nbsp;&nbsp;&nbsp;&nbsp;&nbsp;4</p><p style=""font-size:14px"">Not at all familiar&nbsp;&nbsp;&nbsp;&nbsp;A little familiar&nbsp;&nbsp;&nbsp;Moderately familiar&nbsp;&nbsp;&nbsp;Extremely familiar</p><p>(press the corresponding number on your keyboard)</p>","","50","","","FAM-RESPONSE","","","","","","","","","","","","","","","","","","","sounds/B/FAM/N001.mp3","nonword","","","","","","","","","","","","","","","","","","",""
"html-keyboard-response","243","6841084","0.0-7.0-1.0-0.1","2","1","8f7wdah1hjmvrly","","null","","","","null","","","","","","","","","","","","","","","","","","","","","","","","","","","","","","","","","","","","","","","","","",""
"audio-keyboard-response","244","6842026","0.0-7.0-1.0-1.1","2","1","8f7wdah1hjmvrly","","null","","sounds/B/FAM/W001.mp3","","null","","","","","","","","","","","","","","","","","","","","","","","","","","","","","","","","","","","","","","","","","",""
"html-keyboard-response","245","6845578","0.0-7.0-1.0-2.1","2","1","8f7wdah1hjmvrly","","3049","","<p>How familiar did this sound to you?</p><p>1&nbsp;&nbsp;&nbsp;&nbsp;&nbsp;&nbsp;&nbsp;&nbsp;&nbsp;&nbsp;&nbsp;&nbsp;&nbsp;&nbsp;&nbsp;&nbsp;&nbsp;&nbsp;&nbsp;2&nbsp;&nbsp;&nbsp;&nbsp;&nbsp;&nbsp;&nbsp;&nbsp;&nbsp;&nbsp;&nbsp;&nbsp;&nbsp;&nbsp;&nbsp;&nbsp;&nbsp;&nbsp;&nbsp;3&nbsp;&nbsp;&nbsp;&nbsp;&nbsp;&nbsp;&nbsp;&nbsp;&nbsp;&nbsp;&nbsp;&nbsp;&nbsp;&nbsp;&nbsp;&nbsp;&nbsp;&nbsp;&nbsp;4</p><p style=""font-size:14px"">Not at all familiar&nbsp;&nbsp;&nbsp;&nbsp;A little familiar&nbsp;&nbsp;&nbsp;Moderately familiar&nbsp;&nbsp;&nbsp;Extremely familiar</p><p>(press the corresponding number on your keyboard)</p>","","49","","","FAM-RESPONSE","","","","","","","","","","","","","","","","","","","sounds/B/FAM/W001.mp3","word","","","","","","","","","","","","","","","","","","",""
"html-keyboard-response","246","6847581","0.0-7.0-1.0-0.2","2","1","8f7wdah1hjmvrly","","null","","","","null","","","","","","","","","","","","","","","","","","","","","","","","","","","","","","","","","","","","","","","","","",""
"audio-keyboard-response","247","6848522","0.0-7.0-1.0-1.2","2","1","8f7wdah1hjmvrly","","null","","sounds/B/FAM/W002.mp3","","null","","","","","","","","","","","","","","","","","","","","","","","","","","","","","","","","","","","","","","","","","",""
"html-keyboard-response","248","6850363","0.0-7.0-1.0-2.2","2","1","8f7wdah1hjmvrly","","1338","","<p>How familiar did this sound to you?</p><p>1&nbsp;&nbsp;&nbsp;&nbsp;&nbsp;&nbsp;&nbsp;&nbsp;&nbsp;&nbsp;&nbsp;&nbsp;&nbsp;&nbsp;&nbsp;&nbsp;&nbsp;&nbsp;&nbsp;2&nbsp;&nbsp;&nbsp;&nbsp;&nbsp;&nbsp;&nbsp;&nbsp;&nbsp;&nbsp;&nbsp;&nbsp;&nbsp;&nbsp;&nbsp;&nbsp;&nbsp;&nbsp;&nbsp;3&nbsp;&nbsp;&nbsp;&nbsp;&nbsp;&nbsp;&nbsp;&nbsp;&nbsp;&nbsp;&nbsp;&nbsp;&nbsp;&nbsp;&nbsp;&nbsp;&nbsp;&nbsp;&nbsp;4</p><p style=""font-size:14px"">Not at all familiar&nbsp;&nbsp;&nbsp;&nbsp;A little familiar&nbsp;&nbsp;&nbsp;Moderately familiar&nbsp;&nbsp;&nbsp;Extremely familiar</p><p>(press the corresponding number on your keyboard)</p>","","51","","","FAM-RESPONSE","","","","","","","","","","","","","","","","","","","sounds/B/FAM/W002.mp3","word","","","","","","","","","","","","","","","","","","",""
"html-keyboard-response","249","6852366","0.0-7.0-1.0-0.3","2","1","8f7wdah1hjmvrly","","null","","","","null","","","","","","","","","","","","","","","","","","","","","","","","","","","","","","","","","","","","","","","","","",""
"audio-keyboard-response","250","6853311","0.0-7.0-1.0-1.3","2","1","8f7wdah1hjmvrly","","null","","sounds/B/FAM/W003.mp3","","null","","","","","","","","","","","","","","","","","","","","","","","","","","","","","","","","","","","","","","","","","",""
"html-keyboard-response","251","6854838","0.0-7.0-1.0-2.3","2","1","8f7wdah1hjmvrly","","1024.0000000004657","","<p>How familiar did this sound to you?</p><p>1&nbsp;&nbsp;&nbsp;&nbsp;&nbsp;&nbsp;&nbsp;&nbsp;&nbsp;&nbsp;&nbsp;&nbsp;&nbsp;&nbsp;&nbsp;&nbsp;&nbsp;&nbsp;&nbsp;2&nbsp;&nbsp;&nbsp;&nbsp;&nbsp;&nbsp;&nbsp;&nbsp;&nbsp;&nbsp;&nbsp;&nbsp;&nbsp;&nbsp;&nbsp;&nbsp;&nbsp;&nbsp;&nbsp;3&nbsp;&nbsp;&nbsp;&nbsp;&nbsp;&nbsp;&nbsp;&nbsp;&nbsp;&nbsp;&nbsp;&nbsp;&nbsp;&nbsp;&nbsp;&nbsp;&nbsp;&nbsp;&nbsp;4</p><p style=""font-size:14px"">Not at all familiar&nbsp;&nbsp;&nbsp;&nbsp;A little familiar&nbsp;&nbsp;&nbsp;Moderately familiar&nbsp;&nbsp;&nbsp;Extremely familiar</p><p>(press the corresponding number on your keyboard)</p>","","50","","","FAM-RESPONSE","","","","","","","","","","","","","","","","","","","sounds/B/FAM/W003.mp3","word","","","","","","","","","","","","","","","","","","",""
"html-keyboard-response","252","6856841","0.0-7.0-1.0-0.4","2","1","8f7wdah1hjmvrly","","null","","","","null","","","","","","","","","","","","","","","","","","","","","","","","","","","","","","","","","","","","","","","","","",""
"audio-keyboard-response","253","6857791","0.0-7.0-1.0-1.4","2","1","8f7wdah1hjmvrly","","null","","sounds/B/FAM/N003.mp3","","null","","","","","","","","","","","","","","","","","","","","","","","","","","","","","","","","","","","","","","","","","",""
"html-keyboard-response","254","6859148","0.0-7.0-1.0-2.4","2","1","8f7wdah1hjmvrly","","855","","<p>How familiar did this sound to you?</p><p>1&nbsp;&nbsp;&nbsp;&nbsp;&nbsp;&nbsp;&nbsp;&nbsp;&nbsp;&nbsp;&nbsp;&nbsp;&nbsp;&nbsp;&nbsp;&nbsp;&nbsp;&nbsp;&nbsp;2&nbsp;&nbsp;&nbsp;&nbsp;&nbsp;&nbsp;&nbsp;&nbsp;&nbsp;&nbsp;&nbsp;&nbsp;&nbsp;&nbsp;&nbsp;&nbsp;&nbsp;&nbsp;&nbsp;3&nbsp;&nbsp;&nbsp;&nbsp;&nbsp;&nbsp;&nbsp;&nbsp;&nbsp;&nbsp;&nbsp;&nbsp;&nbsp;&nbsp;&nbsp;&nbsp;&nbsp;&nbsp;&nbsp;4</p><p style=""font-size:14px"">Not at all familiar&nbsp;&nbsp;&nbsp;&nbsp;A little familiar&nbsp;&nbsp;&nbsp;Moderately familiar&nbsp;&nbsp;&nbsp;Extremely familiar</p><p>(press the corresponding number on your keyboard)</p>","","51","","","FAM-RESPONSE","","","","","","","","","","","","","","","","","","","sounds/B/FAM/N003.mp3","nonword","","","","","","","","","","","","","","","","","","",""
"html-keyboard-response","255","6861152","0.0-7.0-1.0-0.5","2","1","8f7wdah1hjmvrly","","null","","","","null","","","","","","","","","","","","","","","","","","","","","","","","","","","","","","","","","","","","","","","","","",""
"audio-keyboard-response","256","6862100","0.0-7.0-1.0-1.5","2","1","8f7wdah1hjmvrly","","null","","sounds/B/FAM/P003.mp3","","null","","","","","","","","","","","","","","","","","","","","","","","","","","","","","","","","","","","","","","","","","",""
"html-keyboard-response","257","6862665","0.0-7.0-1.0-2.5","2","1","8f7wdah1hjmvrly","","61.00000000046566","","<p>How familiar did this sound to you?</p><p>1&nbsp;&nbsp;&nbsp;&nbsp;&nbsp;&nbsp;&nbsp;&nbsp;&nbsp;&nbsp;&nbsp;&nbsp;&nbsp;&nbsp;&nbsp;&nbsp;&nbsp;&nbsp;&nbsp;2&nbsp;&nbsp;&nbsp;&nbsp;&nbsp;&nbsp;&nbsp;&nbsp;&nbsp;&nbsp;&nbsp;&nbsp;&nbsp;&nbsp;&nbsp;&nbsp;&nbsp;&nbsp;&nbsp;3&nbsp;&nbsp;&nbsp;&nbsp;&nbsp;&nbsp;&nbsp;&nbsp;&nbsp;&nbsp;&nbsp;&nbsp;&nbsp;&nbsp;&nbsp;&nbsp;&nbsp;&nbsp;&nbsp;4</p><p style=""font-size:14px"">Not at all familiar&nbsp;&nbsp;&nbsp;&nbsp;A little familiar&nbsp;&nbsp;&nbsp;Moderately familiar&nbsp;&nbsp;&nbsp;Extremely familiar</p><p>(press the corresponding number on your keyboard)</p>","","52","","","FAM-RESPONSE","","","","","","","","","","","","","","","","","","","sounds/B/FAM/P003.mp3","partword","","","","","","","","","","","","","","","","","","",""
"html-keyboard-response","258","6864669","0.0-7.0-1.0-0.6","2","1","8f7wdah1hjmvrly","","null","","","","null","","","","","","","","","","","","","","","","","","","","","","","","","","","","","","","","","","","","","","","","","",""
"audio-keyboard-response","259","6865620","0.0-7.0-1.0-1.6","2","1","8f7wdah1hjmvrly","","null","","sounds/B/FAM/P001.mp3","","null","","","","","","","","","","","","","","","","","","","","","","","","","","","","","","","","","","","","","","","","","",""
"html-keyboard-response","260","6866281","0.0-7.0-1.0-2.6","2","1","8f7wdah1hjmvrly","","159","","<p>How familiar did this sound to you?</p><p>1&nbsp;&nbsp;&nbsp;&nbsp;&nbsp;&nbsp;&nbsp;&nbsp;&nbsp;&nbsp;&nbsp;&nbsp;&nbsp;&nbsp;&nbsp;&nbsp;&nbsp;&nbsp;&nbsp;2&nbsp;&nbsp;&nbsp;&nbsp;&nbsp;&nbsp;&nbsp;&nbsp;&nbsp;&nbsp;&nbsp;&nbsp;&nbsp;&nbsp;&nbsp;&nbsp;&nbsp;&nbsp;&nbsp;3&nbsp;&nbsp;&nbsp;&nbsp;&nbsp;&nbsp;&nbsp;&nbsp;&nbsp;&nbsp;&nbsp;&nbsp;&nbsp;&nbsp;&nbsp;&nbsp;&nbsp;&nbsp;&nbsp;4</p><p style=""font-size:14px"">Not at all familiar&nbsp;&nbsp;&nbsp;&nbsp;A little familiar&nbsp;&nbsp;&nbsp;Moderately familiar&nbsp;&nbsp;&nbsp;Extremely familiar</p><p>(press the corresponding number on your keyboard)</p>","","49","","","FAM-RESPONSE","","","","","","","","","","","","","","","","","","","sounds/B/FAM/P001.mp3","partword","","","","","","","","","","","","","","","","","","",""
"html-keyboard-response","261","6868285","0.0-7.0-1.0-0.7","2","1","8f7wdah1hjmvrly","","null","","","","null","","","","","","","","","","","","","","","","","","","","","","","","","","","","","","","","","","","","","","","","","",""
"audio-keyboard-response","262","6869225","0.0-7.0-1.0-1.7","2","1","8f7wdah1hjmvrly","","null","","sounds/B/FAM/W004.mp3","","null","","","","","","","","","","","","","","","","","","","","","","","","","","","","","","","","","","","","","","","","","",""
"html-keyboard-response","263","6870871","0.0-7.0-1.0-2.7","2","1","8f7wdah1hjmvrly","","1144","","<p>How familiar did this sound to you?</p><p>1&nbsp;&nbsp;&nbsp;&nbsp;&nbsp;&nbsp;&nbsp;&nbsp;&nbsp;&nbsp;&nbsp;&nbsp;&nbsp;&nbsp;&nbsp;&nbsp;&nbsp;&nbsp;&nbsp;2&nbsp;&nbsp;&nbsp;&nbsp;&nbsp;&nbsp;&nbsp;&nbsp;&nbsp;&nbsp;&nbsp;&nbsp;&nbsp;&nbsp;&nbsp;&nbsp;&nbsp;&nbsp;&nbsp;3&nbsp;&nbsp;&nbsp;&nbsp;&nbsp;&nbsp;&nbsp;&nbsp;&nbsp;&nbsp;&nbsp;&nbsp;&nbsp;&nbsp;&nbsp;&nbsp;&nbsp;&nbsp;&nbsp;4</p><p style=""font-size:14px"">Not at all familiar&nbsp;&nbsp;&nbsp;&nbsp;A little familiar&nbsp;&nbsp;&nbsp;Moderately familiar&nbsp;&nbsp;&nbsp;Extremely familiar</p><p>(press the corresponding number on your keyboard)</p>","","51","","","FAM-RESPONSE","","","","","","","","","","","","","","","","","","","sounds/B/FAM/W004.mp3","word","","","","","","","","","","","","","","","","","","",""
"html-keyboard-response","264","6872875","0.0-7.0-1.0-0.8","2","1","8f7wdah1hjmvrly","","null","","","","null","","","","","","","","","","","","","","","","","","","","","","","","","","","","","","","","","","","","","","","","","",""
"audio-keyboard-response","265","6873822","0.0-7.0-1.0-1.8","2","1","8f7wdah1hjmvrly","","null","","sounds/B/FAM/P004.mp3","","null","","","","","","","","","","","","","","","","","","","","","","","","","","","","","","","","","","","","","","","","","",""
"html-keyboard-response","266","6874865","0.0-7.0-1.0-2.8","2","1","8f7wdah1hjmvrly","","540","","<p>How familiar did this sound to you?</p><p>1&nbsp;&nbsp;&nbsp;&nbsp;&nbsp;&nbsp;&nbsp;&nbsp;&nbsp;&nbsp;&nbsp;&nbsp;&nbsp;&nbsp;&nbsp;&nbsp;&nbsp;&nbsp;&nbsp;2&nbsp;&nbsp;&nbsp;&nbsp;&nbsp;&nbsp;&nbsp;&nbsp;&nbsp;&nbsp;&nbsp;&nbsp;&nbsp;&nbsp;&nbsp;&nbsp;&nbsp;&nbsp;&nbsp;3&nbsp;&nbsp;&nbsp;&nbsp;&nbsp;&nbsp;&nbsp;&nbsp;&nbsp;&nbsp;&nbsp;&nbsp;&nbsp;&nbsp;&nbsp;&nbsp;&nbsp;&nbsp;&nbsp;4</p><p style=""font-size:14px"">Not at all familiar&nbsp;&nbsp;&nbsp;&nbsp;A little familiar&nbsp;&nbsp;&nbsp;Moderately familiar&nbsp;&nbsp;&nbsp;Extremely familiar</p><p>(press the corresponding number on your keyboard)</p>","","51","","","FAM-RESPONSE","","","","","","","","","","","","","","","","","","","sounds/B/FAM/P004.mp3","partword","","","","","","","","","","","","","","","","","","",""
"html-keyboard-response","267","6876869","0.0-7.0-1.0-0.9","2","1","8f7wdah1hjmvrly","","null","","","","null","","","","","","","","","","","","","","","","","","","","","","","","","","","","","","","","","","","","","","","","","",""
"audio-keyboard-response","268","6877812","0.0-7.0-1.0-1.9","2","1","8f7wdah1hjmvrly","","null","","sounds/B/FAM/P002.mp3","","null","","","","","","","","","","","","","","","","","","","","","","","","","","","","","","","","","","","","","","","","","",""
"html-keyboard-response","269","6878588","0.0-7.0-1.0-2.9","2","1","8f7wdah1hjmvrly","","274","","<p>How familiar did this sound to you?</p><p>1&nbsp;&nbsp;&nbsp;&nbsp;&nbsp;&nbsp;&nbsp;&nbsp;&nbsp;&nbsp;&nbsp;&nbsp;&nbsp;&nbsp;&nbsp;&nbsp;&nbsp;&nbsp;&nbsp;2&nbsp;&nbsp;&nbsp;&nbsp;&nbsp;&nbsp;&nbsp;&nbsp;&nbsp;&nbsp;&nbsp;&nbsp;&nbsp;&nbsp;&nbsp;&nbsp;&nbsp;&nbsp;&nbsp;3&nbsp;&nbsp;&nbsp;&nbsp;&nbsp;&nbsp;&nbsp;&nbsp;&nbsp;&nbsp;&nbsp;&nbsp;&nbsp;&nbsp;&nbsp;&nbsp;&nbsp;&nbsp;&nbsp;4</p><p style=""font-size:14px"">Not at all familiar&nbsp;&nbsp;&nbsp;&nbsp;A little familiar&nbsp;&nbsp;&nbsp;Moderately familiar&nbsp;&nbsp;&nbsp;Extremely familiar</p><p>(press the corresponding number on your keyboard)</p>","","50","","","FAM-RESPONSE","","","","","","","","","","","","","","","","","","","sounds/B/FAM/P002.mp3","partword","","","","","","","","","","","","","","","","","","",""
"html-keyboard-response","270","6880591","0.0-7.0-1.0-0.10","2","1","8f7wdah1hjmvrly","","null","","","","null","","","","","","","","","","","","","","","","","","","","","","","","","","","","","","","","","","","","","","","","","",""
"audio-keyboard-response","271","6881534","0.0-7.0-1.0-1.10","2","1","8f7wdah1hjmvrly","","null","","sounds/B/FAM/N002.mp3","","null","","","","","","","","","","","","","","","","","","","","","","","","","","","","","","","","","","","","","","","","","",""
"html-keyboard-response","272","6882215","0.0-7.0-1.0-2.10","2","1","8f7wdah1hjmvrly","","176","","<p>How familiar did this sound to you?</p><p>1&nbsp;&nbsp;&nbsp;&nbsp;&nbsp;&nbsp;&nbsp;&nbsp;&nbsp;&nbsp;&nbsp;&nbsp;&nbsp;&nbsp;&nbsp;&nbsp;&nbsp;&nbsp;&nbsp;2&nbsp;&nbsp;&nbsp;&nbsp;&nbsp;&nbsp;&nbsp;&nbsp;&nbsp;&nbsp;&nbsp;&nbsp;&nbsp;&nbsp;&nbsp;&nbsp;&nbsp;&nbsp;&nbsp;3&nbsp;&nbsp;&nbsp;&nbsp;&nbsp;&nbsp;&nbsp;&nbsp;&nbsp;&nbsp;&nbsp;&nbsp;&nbsp;&nbsp;&nbsp;&nbsp;&nbsp;&nbsp;&nbsp;4</p><p style=""font-size:14px"">Not at all familiar&nbsp;&nbsp;&nbsp;&nbsp;A little familiar&nbsp;&nbsp;&nbsp;Moderately familiar&nbsp;&nbsp;&nbsp;Extremely familiar</p><p>(press the corresponding number on your keyboard)</p>","","49","","","FAM-RESPONSE","","","","","","","","","","","","","","","","","","","sounds/B/FAM/N002.mp3","nonword","","","","","","","","","","","","","","","","","","",""
"html-keyboard-response","273","6884218","0.0-7.0-1.0-0.11","2","1","8f7wdah1hjmvrly","","null","","","","null","","","","","","","","","","","","","","","","","","","","","","","","","","","","","","","","","","","","","","","","","",""
"audio-keyboard-response","274","6885161","0.0-7.0-1.0-1.11","2","1","8f7wdah1hjmvrly","","null","","sounds/B/FAM/N004.mp3","","null","","","","","","","","","","","","","","","","","","","","","","","","","","","","","","","","","","","","","","","","","",""
"html-keyboard-response","275","6888141","0.0-7.0-1.0-2.11","2","1","8f7wdah1hjmvrly","","2477.9999999995343","","<p>How familiar did this sound to you?</p><p>1&nbsp;&nbsp;&nbsp;&nbsp;&nbsp;&nbsp;&nbsp;&nbsp;&nbsp;&nbsp;&nbsp;&nbsp;&nbsp;&nbsp;&nbsp;&nbsp;&nbsp;&nbsp;&nbsp;2&nbsp;&nbsp;&nbsp;&nbsp;&nbsp;&nbsp;&nbsp;&nbsp;&nbsp;&nbsp;&nbsp;&nbsp;&nbsp;&nbsp;&nbsp;&nbsp;&nbsp;&nbsp;&nbsp;3&nbsp;&nbsp;&nbsp;&nbsp;&nbsp;&nbsp;&nbsp;&nbsp;&nbsp;&nbsp;&nbsp;&nbsp;&nbsp;&nbsp;&nbsp;&nbsp;&nbsp;&nbsp;&nbsp;4</p><p style=""font-size:14px"">Not at all familiar&nbsp;&nbsp;&nbsp;&nbsp;A little familiar&nbsp;&nbsp;&nbsp;Moderately familiar&nbsp;&nbsp;&nbsp;Extremely familiar</p><p>(press the corresponding number on your keyboard)</p>","","50","","","FAM-RESPONSE","","","","","","","","","","","","","","","","","","","sounds/B/FAM/N004.mp3","nonword","","","","","","","","","","","","","","","","","","",""
"html-button-response","276","6902068","0.0-8.0-0.0","2","1","8f7wdah1hjmvrly","","12926","","<p>You will now listen to longer sound sequences.</p><p>Each sound sequence will last about 16 seconds.</p><p>On each trial, you will be given a <u>TARGET SOUND</u>. Your task is to listen very carefully for this sound.</p><p>Every time you hear the <u>TARGET SOUND</u>, you will press the <b>SPACEBAR</b> as quickly and accurately as you can.</p>","0","","","","","","","","","","","","","","","","","","","","","","","","","","","","","","","","","","","","","","","","","","",""
"html-button-response","277","6910252","0.0-8.0-1.0","2","1","8f7wdah1hjmvrly","","7932","","<p>It is very important that you make your responses as quickly and accurately as possible.</p><p>To help you make your responses, you will be able to listen to the <u>TARGET SOUND</u> at the beginning of each trial.</p><p>There will be 36 total trials.</p><p><b>Note: This is meant to be a difficult task. We simply want you to try your best.</p>","0","","","","","","","","","","","","","","","","","","","","","","","","","","","","","","","","","","","","","","","","","","",""
"html-button-response","278","6911999","0.0-8.0-2.0-0.0","2","1","8f7wdah1hjmvrly","","1493.0000000004657","","<p>Trial 1 of 36</p>","0","","","","","","","","","","","","","","","","","","","","","","","","","ME","sounds/syllables/me_SWS.wav","1200,3000,6600,12000","2","","","","","","","","","","","","","","",""
"html-keyboard-response","279","6914667","0.0-8.0-2.0-1.0","2","1","8f7wdah1hjmvrly","","2664","","","","80","","","","","","","","","","","","","","","","","","","","","","","","ME","","1200,3000,6600,12000","2","","","","","","","","","","","","","","",""
"audio-keyboard-response","280","6914973","0.0-8.0-2.0-2.0-0.0","2","1","8f7wdah1hjmvrly","","null","","sounds/syllables/me_SWS.wav","","null","","","","","","","","","","","","","","","","","","","","","","","","","","","","","","","","","","","","","","","","","",""
"html-keyboard-response","281","6918046","0.0-8.0-2.0-2.0-1.0","2","1","8f7wdah1hjmvrly","","3071.0000000004657","","<p>To replay the <u>TARGET SOUND</u>, press P.</p> When you are ready to begin, press SPACEBAR.","","80","","","","","","","","","","","","","","","","","","","","","","","","","","","","","","","","","","","","","","","","","",""
"audio-keyboard-response","282","6918856","0.0-8.0-2.0-2.1-0.1","2","1","8f7wdah1hjmvrly","","null","","sounds/syllables/me_SWS.wav","","null","","","","","","","","","","","","","","","","","","","","","","","","","","","","","","","","","","","","","","","","","",""
"html-keyboard-response","283","6919536","0.0-8.0-2.0-2.1-1.1","2","1","8f7wdah1hjmvrly","","679","","<p>To replay the <u>TARGET SOUND</u>, press P.</p> When you are ready to begin, press SPACEBAR.","","32","","","","","","","","","","","","","","","","","","","","","","","","","","","","","","","","","","","","","","","","","",""
"audio-keyboard-response","284","6934493","0.0-8.0-2.0-3.0","2","1","8f7wdah1hjmvrly","","1856","","sounds/B/TD/ME_04_TD.mp3","","32","","","TD_SUMMARY","","","","","","","","","","","","","","","","","","","","","ME","","1200,3000,6600,12000","2","1200","3000","6600","12000","658","1082","null","993","1858_3020_4082_5193_6523_7946_9178_10241_12993_14251","2","","","","",""
"html-button-response","285","6936107","0.0-8.0-2.0-0.1","2","1","8f7wdah1hjmvrly","","1610","","<p>Trial 2 of 36</p>","0","","","","","","","","","","","","","","","","","","","","","","","","","SU","sounds/syllables/su_SWS.wav","3000,4800,6600,10200","2","","","","","","","","","","","","","","",""
"html-keyboard-response","286","6937438","0.0-8.0-2.0-1.1","2","1","8f7wdah1hjmvrly","","1330","","","","80","","","","","","","","","","","","","","","","","","","","","","","","SU","","3000,4800,6600,10200","2","","","","","","","","","","","","","","",""
"audio-keyboard-response","287","6937746","0.0-8.0-2.0-2.2-0.2","2","1","8f7wdah1hjmvrly","","null","","sounds/syllables/su_SWS.wav","","null","","","","","","","","","","","","","","","","","","","","","","","","","","","","","","","","","","","","","","","","","",""
"html-keyboard-response","288","6938821","0.0-8.0-2.0-2.2-1.2","2","1","8f7wdah1hjmvrly","","1073","","<p>To replay the <u>TARGET SOUND</u>, press P.</p> When you are ready to begin, press SPACEBAR.","","80","","","","","","","","","","","","","","","","","","","","","","","","","","","","","","","","","","","","","","","","","",""
"audio-keyboard-response","289","6939623","0.0-8.0-2.0-2.3-0.3","2","1","8f7wdah1hjmvrly","","null","","sounds/syllables/su_SWS.wav","","null","","","","","","","","","","","","","","","","","","","","","","","","","","","","","","","","","","","","","","","","","",""
"html-keyboard-response","290","6941521","0.0-8.0-2.0-2.3-1.3","2","1","8f7wdah1hjmvrly","","1896","","<p>To replay the <u>TARGET SOUND</u>, press P.</p> When you are ready to begin, press SPACEBAR.","","32","","","","","","","","","","","","","","","","","","","","","","","","","","","","","","","","","","","","","","","","","",""
"audio-keyboard-response","291","6956477","0.0-8.0-2.0-3.1","2","1","8f7wdah1hjmvrly","","565","","sounds/B/TD/SU_05_TD.mp3","","32","","","TD_SUMMARY","","","","","","","","","","","","","","","","","","","","","SU","","3000,4800,6600,10200","2","3000","4800","6600","10200","732","1150","215","804","__________569_2211_2953_3732_4937_5950_6815_8028_9095_10076_11004_11875_12025_12233.000000000466_12701_13373_13861_14214","2","","","","",""
"html-button-response","292","6958628","0.0-8.0-2.0-0.2","2","1","8f7wdah1hjmvrly","","2149","","<p>Trial 3 of 36</p>","0","","","","","","","","","","","","","","","","","","","","","","","","","RE","sounds/syllables/re_SWS.wav","4200,6900,11400,13200","3","","","","","","","","","","","","","","",""
"html-keyboard-response","293","6960242","0.0-8.0-2.0-1.2","2","1","8f7wdah1hjmvrly","","1612","","","","80","","","","","","","","","","","","","","","","","","","","","","","","RE","","4200,6900,11400,13200","3","","","","","","","","","","","","","","",""
"audio-keyboard-response","294","6960551","0.0-8.0-2.0-2.4-0.4","2","1","8f7wdah1hjmvrly","","null","","sounds/syllables/re_SWS.wav","","null","","","","","","","","","","","","","","","","","","","","","","","","","","","","","","","","","","","","","","","","","",""
"html-keyboard-response","295","6961346","0.0-8.0-2.0-2.4-1.4","2","1","8f7wdah1hjmvrly","","795","","<p>To replay the <u>TARGET SOUND</u>, press P.</p> When you are ready to begin, press SPACEBAR.","","80","","","","","","","","","","","","","","","","","","","","","","","","","","","","","","","","","","","","","","","","","",""
"audio-keyboard-response","296","6962151","0.0-8.0-2.0-2.5-0.5","2","1","8f7wdah1hjmvrly","","null","","sounds/syllables/re_SWS.wav","","null","","","","","","","","","","","","","","","","","","","","","","","","","","","","","","","","","","","","","","","","","",""
"html-keyboard-response","297","6962541","0.0-8.0-2.0-2.5-1.5","2","1","8f7wdah1hjmvrly","","388.99999999953434","","<p>To replay the <u>TARGET SOUND</u>, press P.</p> When you are ready to begin, press SPACEBAR.","","80","","","","","","","","","","","","","","","","","","","","","","","","","","","","","","","","","","","","","","","","","",""
"audio-keyboard-response","298","6963345","0.0-8.0-2.0-2.6-0.6","2","1","8f7wdah1hjmvrly","","null","","sounds/syllables/re_SWS.wav","","null","","","","","","","","","","","","","","","","","","","","","","","","","","","","","","","","","","","","","","","","","",""
"html-keyboard-response","299","6963775","0.0-8.0-2.0-2.6-1.6","2","1","8f7wdah1hjmvrly","","427","","<p>To replay the <u>TARGET SOUND</u>, press P.</p> When you are ready to begin, press SPACEBAR.","","32","","","","","","","","","","","","","","","","","","","","","","","","","","","","","","","","","","","","","","","","","",""
"audio-keyboard-response","300","6978727","0.0-8.0-2.0-3.2","2","1","8f7wdah1hjmvrly","","1579","","sounds/B/TD/RE_03_TD.mp3","","32","","","TD_SUMMARY","","","","","","","","","","","","","","","","","","","","","RE","","4200,6900,11400,13200","3","4200","6900","11400","13200","757","705","570.0000000004657","568","____________________________1578_2522_3349_4105_4788_4957_6185_6566.000000000466_6836.000000000466_7605_8944_9128_9495_10686_11475_11678_11970.000000000466_13276_13524_13768","3","","","","",""
"html-button-response","301","6980207","0.0-8.0-2.0-0.3","2","1","8f7wdah1hjmvrly","","1476.9999999995343","","<p>Trial 4 of 36</p>","0","","","","","","","","","","","","","","","","","","","","","","","","","RE","sounds/syllables/re_SWS.wav","6000,7800,9600,13200","3","","","","","","","","","","","","","","",""
"html-keyboard-response","302","6981469","0.0-8.0-2.0-1.3","2","1","8f7wdah1hjmvrly","","1261","","","","80","","","","","","","","","","","","","","","","","","","","","","","","RE","","6000,7800,9600,13200","3","","","","","","","","","","","","","","",""
"audio-keyboard-response","303","6981777","0.0-8.0-2.0-2.7-0.7","2","1","8f7wdah1hjmvrly","","null","","sounds/syllables/re_SWS.wav","","null","","","","","","","","","","","","","","","","","","","","","","","","","","","","","","","","","","","","","","","","","",""
"html-keyboard-response","304","6982422","0.0-8.0-2.0-2.7-1.7","2","1","8f7wdah1hjmvrly","","645","","<p>To replay the <u>TARGET SOUND</u>, press P.</p> When you are ready to begin, press SPACEBAR.","","80","","","","","","","","","","","","","","","","","","","","","","","","","","","","","","","","","","","","","","","","","",""
"audio-keyboard-response","305","6983228","0.0-8.0-2.0-2.8-0.8","2","1","8f7wdah1hjmvrly","","null","","sounds/syllables/re_SWS.wav","","null","","","","","","","","","","","","","","","","","","","","","","","","","","","","","","","","","","","","","","","","","",""
"html-keyboard-response","306","6983584","0.0-8.0-2.0-2.8-1.8","2","1","8f7wdah1hjmvrly","","355","","<p>To replay the <u>TARGET SOUND</u>, press P.</p> When you are ready to begin, press SPACEBAR.","","32","","","","","","","","","","","","","","","","","","","","","","","","","","","","","","","","","","","","","","","","","",""
"audio-keyboard-response","307","6998534","0.0-8.0-2.0-3.3","2","1","8f7wdah1hjmvrly","","1525","","sounds/B/TD/RE_09_TD.mp3","","32","","","TD_SUMMARY","","","","","","","","","","","","","","","","","","","","","RE","","6000,7800,9600,13200","3","6000","7800","9600","13200","721","588","763","495","________________________________________________1528_1747_2076.0000000004657_4178_6253_6398_6721_7589_7726_7871_8388_9493_9664_9838_10186_10363_11536.000000000466_11696_12582_12926_13205_13695","2","","","","",""
"html-button-response","308","7016777","0.0-8.0-2.0-0.4","2","1","8f7wdah1hjmvrly","","18240.999999999534","","<p>Trial 5 of 36</p>","0","","","","","","","","","","","","","","","","","","","","","","","","","NI","sounds/syllables/ni_SWS.wav","2100,5700,9300,11100","2","","","","","","","","","","","","","","",""
"html-keyboard-response","309","7018013","0.0-8.0-2.0-1.4","2","1","8f7wdah1hjmvrly","","1233","","","","80","","","","","","","","","","","","","","","","","","","","","","","","NI","","2100,5700,9300,11100","2","","","","","","","","","","","","","","",""
"audio-keyboard-response","310","7018320","0.0-8.0-2.0-2.9-0.9","2","1","8f7wdah1hjmvrly","","null","","sounds/syllables/ni_SWS.wav","","null","","","","","","","","","","","","","","","","","","","","","","","","","","","","","","","","","","","","","","","","","",""
"html-keyboard-response","311","7018996","0.0-8.0-2.0-2.9-1.9","2","1","8f7wdah1hjmvrly","","674","","<p>To replay the <u>TARGET SOUND</u>, press P.</p> When you are ready to begin, press SPACEBAR.","","80","","","","","","","","","","","","","","","","","","","","","","","","","","","","","","","","","","","","","","","","","",""
"audio-keyboard-response","312","7019803","0.0-8.0-2.0-2.10-0.10","2","1","8f7wdah1hjmvrly","","null","","sounds/syllables/ni_SWS.wav","","null","","","","","","","","","","","","","","","","","","","","","","","","","","","","","","","","","","","","","","","","","",""
"html-keyboard-response","313","7020240","0.0-8.0-2.0-2.10-1.10","2","1","8f7wdah1hjmvrly","","435.99999999953434","","<p>To replay the <u>TARGET SOUND</u>, press P.</p> When you are ready to begin, press SPACEBAR.","","32","","","","","","","","","","","","","","","","","","","","","","","","","","","","","","","","","","","","","","","","","",""
"audio-keyboard-response","314","7035195","0.0-8.0-2.0-3.4","2","1","8f7wdah1hjmvrly","","2400","","sounds/B/TD/NI_08_TD.mp3","","32","","","TD_SUMMARY","","","","","","","","","","","","","","","","","","","","","NI","","2100,5700,9300,11100","2","2100","5700","9300","11100","1021","1037","1057","936","______________________________________________________________________2408_3121_5248_6217_6737_8434_9765_10357_11410_12036_13511_14261","2","","","","",""
"html-button-response","315","7036921","0.0-8.0-2.0-0.5","2","1","8f7wdah1hjmvrly","","1723.9999999995343","","<p>Trial 6 of 36</p>","0","","","","","","","","","","","","","","","","","","","","","","","","","PU","sounds/syllables/pu_SWS.wav","1800,6300,9900,12600","1","","","","","","","","","","","","","","",""
"html-keyboard-response","316","7038221","0.0-8.0-2.0-1.5","2","1","8f7wdah1hjmvrly","","1298","","","","80","","","","","","","","","","","","","","","","","","","","","","","","PU","","1800,6300,9900,12600","1","","","","","","","","","","","","","","",""
"audio-keyboard-response","317","7038522","0.0-8.0-2.0-2.11-0.11","2","1","8f7wdah1hjmvrly","","null","","sounds/syllables/pu_SWS.wav","","null","","","","","","","","","","","","","","","","","","","","","","","","","","","","","","","","","","","","","","","","","",""
