"trial_type","trial_index","time_elapsed","internal_node_id","counterbalance","lang_instruct","ParticipantID","view_history","rt","url","stimulus","button_pressed","key_press","correctRESP","correct","designation","location","correctanswer","responses","sentence","keywords","typed_resp","keyword1_acc","keyword2_acc","keyword3_acc","keyword4_acc","keyword5_acc","total_acc","prop_acc"
"pavlovia","0","1","0.0-0.0","3","1","fzjwka6kc72e2j2","","","","","","","","","","","","","","","","","","","","","",""
"instructions","1","4804","0.0-1.0","3","1","fzjwka6kc72e2j2","[{""page_index"":0,""viewing_time"":1742},{""page_index"":1,""viewing_time"":3056}]","4803","","","","","","","","","","","","","","","","","","","",""
"external-html","2","9113","0.0-2.0","3","1","fzjwka6kc72e2j2","","4306","consent/consent.html","","","","","","","","","","","","","","","","","","",""
"html-button-response","3","10481","0.0-3.0-0.0-0.0","3","1","fzjwka6kc72e2j2","","1366.9999999999982","","<p>Welcome to the study. You will first complete a short volume calibration and headphone check.</p><p>Please make sure you are in a quiet listening environment, that you are wearing headphones, and that your computer's volume is turned on.<p></p>","0","","","","","","","","","","","","","","","","",""
"html-button-response","4","11701","0.0-3.0-0.0-1.0","3","1","fzjwka6kc72e2j2","","966","","<p>The volume calibration will be first.</p><p>You will hear a thirty-second noise. Please adjust your computer's volume so that this noise is being presented at a comfortable level.<p></p>","0","","","","","","","","","","","","","","","","",""
"audio-button-response","5","16143","0.0-3.0-0.0-2.0","3","1","fzjwka6kc72e2j2","","3795","","audCalib/volumetest.mp3","0","","","","","","","","","","","","","","","","",""
"html-button-response","6","17374","0.0-3.0-1.0-0.0","3","1","fzjwka6kc72e2j2","","1229.9999999999964","","<p>You will now complete a short headphone check.</p><p>On each trial, you will hear three tones. One of these tones will be quieter than the others. Your task is to identify whether the quiet tone occured first, second, or third.</p><p>There are six trials in total.<p></p>","0","","","","","","","","","","","","","","","","",""
"html-keyboard-response","7","18128","0.0-3.0-1.0-1.0-0.0","3","1","fzjwka6kc72e2j2","","null","","<div style=""font-size:60px;"">+</div>","","null","","","","","","","","","","","","","","","",""
"audio-button-response","8","22344","0.0-3.0-1.0-1.0-1.0","3","1","fzjwka6kc72e2j2","","4213","","audCalib/t2_2.mp3","1","","1","1","headphone-test","","","","","","","","","","","","",""
"html-keyboard-response","9","23097","0.0-3.0-1.0-1.0-0.1","3","1","fzjwka6kc72e2j2","","null","","<div style=""font-size:60px;"">+</div>","","null","","","","","","","","","","","","","","","",""
"audio-button-response","10","27020","0.0-3.0-1.0-1.0-1.1","3","1","fzjwka6kc72e2j2","","3920","","audCalib/t2_1.mp3","0","","1","0","headphone-test","","","","","","","","","","","","",""
"html-keyboard-response","11","27773","0.0-3.0-1.0-1.0-0.2","3","1","fzjwka6kc72e2j2","","null","","<div style=""font-size:60px;"">+</div>","","null","","","","","","","","","","","","","","","",""
"audio-button-response","12","32431","0.0-3.0-1.0-1.0-1.2","3","1","fzjwka6kc72e2j2","","4656","","audCalib/t1_2.mp3","0","","0","1","headphone-test","","","","","","","","","","","","",""
"html-keyboard-response","13","33184","0.0-3.0-1.0-1.0-0.3","3","1","fzjwka6kc72e2j2","","null","","<div style=""font-size:60px;"">+</div>","","null","","","","","","","","","","","","","","","",""
"audio-button-response","14","37492","0.0-3.0-1.0-1.0-1.3","3","1","fzjwka6kc72e2j2","","4307","","audCalib/t1_1.mp3","0","","0","1","headphone-test","","","","","","","","","","","","",""
"html-keyboard-response","15","38245","0.0-3.0-1.0-1.0-0.4","3","1","fzjwka6kc72e2j2","","null","","<div style=""font-size:60px;"">+</div>","","null","","","","","","","","","","","","","","","",""
"audio-button-response","16","39305","0.0-3.0-1.0-1.0-1.4","3","1","fzjwka6kc72e2j2","","1056","","audCalib/t3_1.mp3","0","","2","0","headphone-test","","","","","","","","","","","","",""
"html-keyboard-response","17","40059","0.0-3.0-1.0-1.0-0.5","3","1","fzjwka6kc72e2j2","","null","","<div style=""font-size:60px;"">+</div>","","null","","","","","","","","","","","","","","","",""
"audio-button-response","18","40619","0.0-3.0-1.0-1.0-1.5","3","1","fzjwka6kc72e2j2","","560","","audCalib/t3_2.mp3","0","","2","0","headphone-test","","","","","","","","","","","","",""
"html-button-response","19","42248","0.0-3.0-2.0","3","1","fzjwka6kc72e2j2","","1375","","<p>The volume calibration and headphone check are now complete.</p>","0","","","","","","","","","","","","","","","","",""
"instructions","20","52014","0.0-4.0-0.0","3","1","fzjwka6kc72e2j2","[{""page_index"":0,""viewing_time"":7083.999999999993},{""page_index"":1,""viewing_time"":1079},{""page_index"":2,""viewing_time"":1602.0000000000073}]","9765.999999999993","","","","","","","","","","","","","","","","","","","",""
"audio-keyboard-response","21","52317","0.0-4.0-1.0-0.0","3","1","fzjwka6kc72e2j2","","null","","sounds/induction/right/fe_SWS.wav","","null","","","","","","","","","","","","","","","",""
"html-button-response","22","53813","0.0-4.0-1.0-1.0","3","1","fzjwka6kc72e2j2","","1494","","What sound did you hear?","1","","","0","INDUCTION-JUDGMENT","right","0","","","","","","","","","","",""
"html-keyboard-response","23","54816","0.0-4.0-1.0-2.0","3","1","fzjwka6kc72e2j2","","null","","<p style=""color:red;""><b>Incorrect!</b></p>","","null","","","","","","","","","","","","","","","",""
"audio-keyboard-response","24","55619","0.0-4.0-1.0-0.1","3","1","fzjwka6kc72e2j2","","null","","sounds/induction/left/ti_SWS.wav","","null","","","","","","","","","","","","","","","",""
"html-button-response","25","56061","0.0-4.0-1.0-1.1","3","1","fzjwka6kc72e2j2","","441","","What sound did you hear?","1","","","0","INDUCTION-JUDGMENT","left","0","","","","","","","","","","",""
"html-keyboard-response","26","57064","0.0-4.0-1.0-2.1","3","1","fzjwka6kc72e2j2","","null","","<p style=""color:red;""><b>Incorrect!</b></p>","","null","","","","","","","","","","","","","","","",""
"audio-keyboard-response","27","57867","0.0-4.0-1.0-0.2","3","1","fzjwka6kc72e2j2","","null","","sounds/induction/right/su_SWS.wav","","null","","","","","","","","","","","","","","","",""
"html-button-response","28","58220","0.0-4.0-1.0-1.2","3","1","fzjwka6kc72e2j2","","352","","What sound did you hear?","1","","","1","INDUCTION-JUDGMENT","right","1","","","","","","","","","","",""
"html-keyboard-response","29","59223","0.0-4.0-1.0-2.2","3","1","fzjwka6kc72e2j2","","null","","<p style=""color:green;""><b>Correct!</b></p>","","null","","","","","","","","","","","","","","","",""
"audio-keyboard-response","30","60024","0.0-4.0-1.0-0.3","3","1","fzjwka6kc72e2j2","","null","","sounds/induction/right/fu_SWS.wav","","null","","","","","","","","","","","","","","","",""
"html-button-response","31","60361","0.0-4.0-1.0-1.3","3","1","fzjwka6kc72e2j2","","334.9999999999927","","What sound did you hear?","1","","","0","INDUCTION-JUDGMENT","right","0","","","","","","","","","","",""
"html-keyboard-response","32","61363","0.0-4.0-1.0-2.3","3","1","fzjwka6kc72e2j2","","null","","<p style=""color:red;""><b>Incorrect!</b></p>","","null","","","","","","","","","","","","","","","",""
"audio-keyboard-response","33","62165","0.0-4.0-1.0-0.4","3","1","fzjwka6kc72e2j2","","null","","sounds/induction/right/me_SWS.wav","","null","","","","","","","","","","","","","","","",""
"html-button-response","34","62479","0.0-4.0-1.0-1.4","3","1","fzjwka6kc72e2j2","","313","","What sound did you hear?","1","","","0","INDUCTION-JUDGMENT","right","0","","","","","","","","","","",""
"html-keyboard-response","35","63482","0.0-4.0-1.0-2.4","3","1","fzjwka6kc72e2j2","","null","","<p style=""color:red;""><b>Incorrect!</b></p>","","null","","","","","","","","","","","","","","","",""
"audio-keyboard-response","36","64285","0.0-4.0-1.0-0.5","3","1","fzjwka6kc72e2j2","","null","","sounds/induction/right/su_SWS.wav","","null","","","","","","","","","","","","","","","",""
"html-button-response","37","64425","0.0-4.0-1.0-1.5","3","1","fzjwka6kc72e2j2","","137.99999999998545","","What sound did you hear?","1","","","1","INDUCTION-JUDGMENT","right","1","","","","","","","","","","",""
"html-keyboard-response","38","65427","0.0-4.0-1.0-2.5","3","1","fzjwka6kc72e2j2","","null","","<p style=""color:green;""><b>Correct!</b></p>","","null","","","","","","","","","","","","","","","",""
"audio-keyboard-response","39","66229","0.0-4.0-1.0-0.6","3","1","fzjwka6kc72e2j2","","null","","sounds/induction/left/pu_SWS.wav","","null","","","","","","","","","","","","","","","",""
"html-button-response","40","66428","0.0-4.0-1.0-1.6","3","1","fzjwka6kc72e2j2","","197","","What sound did you hear?","1","","","0","INDUCTION-JUDGMENT","left","0","","","","","","","","","","",""
"html-keyboard-response","41","67431","0.0-4.0-1.0-2.6","3","1","fzjwka6kc72e2j2","","null","","<p style=""color:red;""><b>Incorrect!</b></p>","","null","","","","","","","","","","","","","","","",""
"audio-keyboard-response","42","68234","0.0-4.0-1.0-0.7","3","1","fzjwka6kc72e2j2","","null","","sounds/induction/left/ni_SWS.wav","","null","","","","","","","","","","","","","","","",""
"html-button-response","43","68649","0.0-4.0-1.0-1.7","3","1","fzjwka6kc72e2j2","","414","","What sound did you hear?","1","","","1","INDUCTION-JUDGMENT","left","1","","","","","","","","","","",""
"html-keyboard-response","44","69652","0.0-4.0-1.0-2.7","3","1","fzjwka6kc72e2j2","","null","","<p style=""color:green;""><b>Correct!</b></p>","","null","","","","","","","","","","","","","","","",""
"audio-keyboard-response","45","70453","0.0-4.0-1.0-0.8","3","1","fzjwka6kc72e2j2","","null","","sounds/induction/left/ti_SWS.wav","","null","","","","","","","","","","","","","","","",""
"html-button-response","46","70612","0.0-4.0-1.0-1.8","3","1","fzjwka6kc72e2j2","","158","","What sound did you hear?","1","","","0","INDUCTION-JUDGMENT","left","0","","","","","","","","","","",""
"html-keyboard-response","47","71614","0.0-4.0-1.0-2.8","3","1","fzjwka6kc72e2j2","","null","","<p style=""color:red;""><b>Incorrect!</b></p>","","null","","","","","","","","","","","","","","","",""
"audio-keyboard-response","48","72415","0.0-4.0-1.0-0.9","3","1","fzjwka6kc72e2j2","","null","","sounds/induction/left/su_SWS.wav","","null","","","","","","","","","","","","","","","",""
"html-button-response","49","72802","0.0-4.0-1.0-1.9","3","1","fzjwka6kc72e2j2","","386","","What sound did you hear?","1","","","0","INDUCTION-JUDGMENT","left","0","","","","","","","","","","",""
"html-keyboard-response","50","73805","0.0-4.0-1.0-2.9","3","1","fzjwka6kc72e2j2","","null","","<p style=""color:red;""><b>Incorrect!</b></p>","","null","","","","","","","","","","","","","","","",""
"audio-keyboard-response","51","74607","0.0-4.0-1.0-0.10","3","1","fzjwka6kc72e2j2","","null","","sounds/induction/left/ge_SWS.wav","","null","","","","","","","","","","","","","","","",""
"html-button-response","52","74830","0.0-4.0-1.0-1.10","3","1","fzjwka6kc72e2j2","","221","","What sound did you hear?","1","","","1","INDUCTION-JUDGMENT","left","1","","","","","","","","","","",""
"html-keyboard-response","53","75832","0.0-4.0-1.0-2.10","3","1","fzjwka6kc72e2j2","","null","","<p style=""color:green;""><b>Correct!</b></p>","","null","","","","","","","","","","","","","","","",""
"audio-keyboard-response","54","76634","0.0-4.0-1.0-0.11","3","1","fzjwka6kc72e2j2","","null","","sounds/induction/right/pu_SWS.wav","","null","","","","","","","","","","","","","","","",""
"html-button-response","55","77517","0.0-4.0-1.0-1.11","3","1","fzjwka6kc72e2j2","","881","","What sound did you hear?","1","","","1","INDUCTION-JUDGMENT","right","1","","","","","","","","","","",""
"html-keyboard-response","56","78519","0.0-4.0-1.0-2.11","3","1","fzjwka6kc72e2j2","","null","","<p style=""color:green;""><b>Correct!</b></p>","","null","","","","","","","","","","","","","","","",""
"audio-keyboard-response","57","79322","0.0-4.0-1.0-0.12","3","1","fzjwka6kc72e2j2","","null","","sounds/induction/right/ni_SWS.wav","","null","","","","","","","","","","","","","","","",""
"html-button-response","58","80214","0.0-4.0-1.0-1.12","3","1","fzjwka6kc72e2j2","","891","","What sound did you hear?","1","","","0","INDUCTION-JUDGMENT","right","0","","","","","","","","","","",""
"html-keyboard-response","59","81216","0.0-4.0-1.0-2.12","3","1","fzjwka6kc72e2j2","","null","","<p style=""color:red;""><b>Incorrect!</b></p>","","null","","","","","","","","","","","","","","","",""
"audio-keyboard-response","60","82018","0.0-4.0-1.0-0.13","3","1","fzjwka6kc72e2j2","","null","","sounds/induction/left/ko_SWS.wav","","null","","","","","","","","","","","","","","","",""
"html-button-response","61","82134","0.0-4.0-1.0-1.13","3","1","fzjwka6kc72e2j2","","115","","What sound did you hear?","1","","","1","INDUCTION-JUDGMENT","left","1","","","","","","","","","","",""
"html-keyboard-response","62","83137","0.0-4.0-1.0-2.13","3","1","fzjwka6kc72e2j2","","null","","<p style=""color:green;""><b>Correct!</b></p>","","null","","","","","","","","","","","","","","","",""
"audio-keyboard-response","63","83938","0.0-4.0-1.0-0.14","3","1","fzjwka6kc72e2j2","","null","","sounds/induction/left/me_SWS.wav","","null","","","","","","","","","","","","","","","",""
"html-button-response","64","84268","0.0-4.0-1.0-1.14","3","1","fzjwka6kc72e2j2","","329","","What sound did you hear?","1","","","1","INDUCTION-JUDGMENT","left","1","","","","","","","","","","",""
"html-keyboard-response","65","85270","0.0-4.0-1.0-2.14","3","1","fzjwka6kc72e2j2","","null","","<p style=""color:green;""><b>Correct!</b></p>","","null","","","","","","","","","","","","","","","",""
"audio-keyboard-response","66","86071","0.0-4.0-1.0-0.15","3","1","fzjwka6kc72e2j2","","null","","sounds/induction/left/fu_SWS.wav","","null","","","","","","","","","","","","","","","",""
"html-button-response","67","86279","0.0-4.0-1.0-1.15","3","1","fzjwka6kc72e2j2","","206.99999999998545","","What sound did you hear?","1","","","1","INDUCTION-JUDGMENT","left","1","","","","","","","","","","",""
"html-keyboard-response","68","87282","0.0-4.0-1.0-2.15","3","1","fzjwka6kc72e2j2","","null","","<p style=""color:green;""><b>Correct!</b></p>","","null","","","","","","","","","","","","","","","",""
"audio-keyboard-response","69","88085","0.0-4.0-1.0-0.16","3","1","fzjwka6kc72e2j2","","null","","sounds/induction/right/ge_SWS.wav","","null","","","","","","","","","","","","","","","",""
"html-button-response","70","88387","0.0-4.0-1.0-1.16","3","1","fzjwka6kc72e2j2","","301","","What sound did you hear?","1","","","0","INDUCTION-JUDGMENT","right","0","","","","","","","","","","",""
"html-keyboard-response","71","89389","0.0-4.0-1.0-2.16","3","1","fzjwka6kc72e2j2","","null","","<p style=""color:red;""><b>Incorrect!</b></p>","","null","","","","","","","","","","","","","","","",""
"audio-keyboard-response","72","90191","0.0-4.0-1.0-0.17","3","1","fzjwka6kc72e2j2","","null","","sounds/induction/right/ge_SWS.wav","","null","","","","","","","","","","","","","","","",""
"html-button-response","73","91462","0.0-4.0-1.0-1.17","3","1","fzjwka6kc72e2j2","","1269","","What sound did you hear?","0","","","1","INDUCTION-JUDGMENT","right","0","","","","","","","","","","",""
"html-keyboard-response","74","92464","0.0-4.0-1.0-2.17","3","1","fzjwka6kc72e2j2","","null","","<p style=""color:green;""><b>Correct!</b></p>","","null","","","","","","","","","","","","","","","",""
"audio-keyboard-response","75","93266","0.0-4.0-1.0-0.18","3","1","fzjwka6kc72e2j2","","null","","sounds/induction/right/ti_SWS.wav","","null","","","","","","","","","","","","","","","",""
"html-button-response","76","93977","0.0-4.0-1.0-1.18","3","1","fzjwka6kc72e2j2","","710","","What sound did you hear?","0","","","0","INDUCTION-JUDGMENT","right","1","","","","","","","","","","",""
"html-keyboard-response","77","94979","0.0-4.0-1.0-2.18","3","1","fzjwka6kc72e2j2","","null","","<p style=""color:red;""><b>Incorrect!</b></p>","","null","","","","","","","","","","","","","","","",""
"audio-keyboard-response","78","95780","0.0-4.0-1.0-0.19","3","1","fzjwka6kc72e2j2","","null","","sounds/induction/right/fe_SWS.wav","","null","","","","","","","","","","","","","","","",""
"html-button-response","79","96805","0.0-4.0-1.0-1.19","3","1","fzjwka6kc72e2j2","","1024","","What sound did you hear?","1","","","0","INDUCTION-JUDGMENT","right","0","","","","","","","","","","",""
"html-keyboard-response","80","97807","0.0-4.0-1.0-2.19","3","1","fzjwka6kc72e2j2","","null","","<p style=""color:red;""><b>Incorrect!</b></p>","","null","","","","","","","","","","","","","","","",""
"audio-keyboard-response","81","98609","0.0-4.0-1.0-0.20","3","1","fzjwka6kc72e2j2","","null","","sounds/induction/left/fe_SWS.wav","","null","","","","","","","","","","","","","","","",""
"html-button-response","82","98914","0.0-4.0-1.0-1.20","3","1","fzjwka6kc72e2j2","","303.00000000001455","","What sound did you hear?","0","","","0","INDUCTION-JUDGMENT","left","1","","","","","","","","","","",""
"html-keyboard-response","83","99917","0.0-4.0-1.0-2.20","3","1","fzjwka6kc72e2j2","","null","","<p style=""color:red;""><b>Incorrect!</b></p>","","null","","","","","","","","","","","","","","","",""
"audio-keyboard-response","84","100719","0.0-4.0-1.0-0.21","3","1","fzjwka6kc72e2j2","","null","","sounds/induction/left/fe_SWS.wav","","null","","","","","","","","","","","","","","","",""
"html-button-response","85","101202","0.0-4.0-1.0-1.21","3","1","fzjwka6kc72e2j2","","482","","What sound did you hear?","0","","","0","INDUCTION-JUDGMENT","left","1","","","","","","","","","","",""
"html-keyboard-response","86","102205","0.0-4.0-1.0-2.21","3","1","fzjwka6kc72e2j2","","null","","<p style=""color:red;""><b>Incorrect!</b></p>","","null","","","","","","","","","","","","","","","",""
"audio-keyboard-response","87","103007","0.0-4.0-1.0-0.22","3","1","fzjwka6kc72e2j2","","null","","sounds/induction/right/ni_SWS.wav","","null","","","","","","","","","","","","","","","",""
"html-button-response","88","103329","0.0-4.0-1.0-1.22","3","1","fzjwka6kc72e2j2","","321","","What sound did you hear?","0","","","1","INDUCTION-JUDGMENT","right","0","","","","","","","","","","",""
"html-keyboard-response","89","104332","0.0-4.0-1.0-2.22","3","1","fzjwka6kc72e2j2","","null","","<p style=""color:green;""><b>Correct!</b></p>","","null","","","","","","","","","","","","","","","",""
"audio-keyboard-response","90","105134","0.0-4.0-1.0-0.23","3","1","fzjwka6kc72e2j2","","null","","sounds/induction/left/re_SWS.wav","","null","","","","","","","","","","","","","","","",""
"html-button-response","91","105846","0.0-4.0-1.0-1.23","3","1","fzjwka6kc72e2j2","","711","","What sound did you hear?","0","","","1","INDUCTION-JUDGMENT","left","0","","","","","","","","","","",""
"html-keyboard-response","92","106849","0.0-4.0-1.0-2.23","3","1","fzjwka6kc72e2j2","","null","","<p style=""color:green;""><b>Correct!</b></p>","","null","","","","","","","","","","","","","","","",""
"audio-keyboard-response","93","107652","0.0-4.0-1.0-0.24","3","1","fzjwka6kc72e2j2","","null","","sounds/induction/right/me_SWS.wav","","null","","","","","","","","","","","","","","","",""
"html-button-response","94","108232","0.0-4.0-1.0-1.24","3","1","fzjwka6kc72e2j2","","579","","What sound did you hear?","0","","","1","INDUCTION-JUDGMENT","right","0","","","","","","","","","","",""
"html-keyboard-response","95","109234","0.0-4.0-1.0-2.24","3","1","fzjwka6kc72e2j2","","null","","<p style=""color:green;""><b>Correct!</b></p>","","null","","","","","","","","","","","","","","","",""
"audio-keyboard-response","96","110036","0.0-4.0-1.0-0.25","3","1","fzjwka6kc72e2j2","","null","","sounds/induction/right/fu_SWS.wav","","null","","","","","","","","","","","","","","","",""
"html-button-response","97","110530","0.0-4.0-1.0-1.25","3","1","fzjwka6kc72e2j2","","493.00000000001455","","What sound did you hear?","0","","","1","INDUCTION-JUDGMENT","right","0","","","","","","","","","","",""
"html-keyboard-response","98","111531","0.0-4.0-1.0-2.25","3","1","fzjwka6kc72e2j2","","null","","<p style=""color:green;""><b>Correct!</b></p>","","null","","","","","","","","","","","","","","","",""
"audio-keyboard-response","99","112334","0.0-4.0-1.0-0.26","3","1","fzjwka6kc72e2j2","","null","","sounds/induction/left/su_SWS.wav","","null","","","","","","","","","","","","","","","",""
"html-button-response","100","112613","0.0-4.0-1.0-1.26","3","1","fzjwka6kc72e2j2","","278","","What sound did you hear?","0","","","1","INDUCTION-JUDGMENT","left","0","","","","","","","","","","",""
"html-keyboard-response","101","113615","0.0-4.0-1.0-2.26","3","1","fzjwka6kc72e2j2","","null","","<p style=""color:green;""><b>Correct!</b></p>","","null","","","","","","","","","","","","","","","",""
"audio-keyboard-response","102","114417","0.0-4.0-1.0-0.27","3","1","fzjwka6kc72e2j2","","null","","sounds/induction/right/ru_SWS.wav","","null","","","","","","","","","","","","","","","",""
"html-button-response","103","114624","0.0-4.0-1.0-1.27","3","1","fzjwka6kc72e2j2","","206","","What sound did you hear?","0","","","0","INDUCTION-JUDGMENT","right","1","","","","","","","","","","",""
"html-keyboard-response","104","115627","0.0-4.0-1.0-2.27","3","1","fzjwka6kc72e2j2","","null","","<p style=""color:red;""><b>Incorrect!</b></p>","","null","","","","","","","","","","","","","","","",""
"audio-keyboard-response","105","116428","0.0-4.0-1.0-0.28","3","1","fzjwka6kc72e2j2","","null","","sounds/induction/left/ru_SWS.wav","","null","","","","","","","","","","","","","","","",""
"html-button-response","106","116677","0.0-4.0-1.0-1.28","3","1","fzjwka6kc72e2j2","","247.99999999998545","","What sound did you hear?","0","","","1","INDUCTION-JUDGMENT","left","0","","","","","","","","","","",""
"html-keyboard-response","107","117679","0.0-4.0-1.0-2.28","3","1","fzjwka6kc72e2j2","","null","","<p style=""color:green;""><b>Correct!</b></p>","","null","","","","","","","","","","","","","","","",""
"audio-keyboard-response","108","118481","0.0-4.0-1.0-0.29","3","1","fzjwka6kc72e2j2","","null","","sounds/induction/right/pu_SWS.wav","","null","","","","","","","","","","","","","","","",""
"html-button-response","109","118974","0.0-4.0-1.0-1.29","3","1","fzjwka6kc72e2j2","","492","","What sound did you hear?","0","","","0","INDUCTION-JUDGMENT","right","1","","","","","","","","","","",""
"html-keyboard-response","110","119976","0.0-4.0-1.0-2.29","3","1","fzjwka6kc72e2j2","","null","","<p style=""color:red;""><b>Incorrect!</b></p>","","null","","","","","","","","","","","","","","","",""
"audio-keyboard-response","111","120779","0.0-4.0-1.0-0.30","3","1","fzjwka6kc72e2j2","","null","","sounds/induction/left/fu_SWS.wav","","null","","","","","","","","","","","","","","","",""
"html-button-response","112","121230","0.0-4.0-1.0-1.30","3","1","fzjwka6kc72e2j2","","449","","What sound did you hear?","0","","","0","INDUCTION-JUDGMENT","left","1","","","","","","","","","","",""
"html-keyboard-response","113","122232","0.0-4.0-1.0-2.30","3","1","fzjwka6kc72e2j2","","null","","<p style=""color:red;""><b>Incorrect!</b></p>","","null","","","","","","","","","","","","","","","",""
"audio-keyboard-response","114","123035","0.0-4.0-1.0-0.31","3","1","fzjwka6kc72e2j2","","null","","sounds/induction/right/ru_SWS.wav","","null","","","","","","","","","","","","","","","",""
"html-button-response","115","123635","0.0-4.0-1.0-1.31","3","1","fzjwka6kc72e2j2","","599.0000000000146","","What sound did you hear?","0","","","0","INDUCTION-JUDGMENT","right","1","","","","","","","","","","",""
"html-keyboard-response","116","124638","0.0-4.0-1.0-2.31","3","1","fzjwka6kc72e2j2","","null","","<p style=""color:red;""><b>Incorrect!</b></p>","","null","","","","","","","","","","","","","","","",""
"audio-keyboard-response","117","125441","0.0-4.0-1.0-0.32","3","1","fzjwka6kc72e2j2","","null","","sounds/induction/left/ta_SWS.wav","","null","","","","","","","","","","","","","","","",""
"html-button-response","118","125816","0.0-4.0-1.0-1.32","3","1","fzjwka6kc72e2j2","","374","","What sound did you hear?","0","","","1","INDUCTION-JUDGMENT","left","0","","","","","","","","","","",""
"html-keyboard-response","119","126818","0.0-4.0-1.0-2.32","3","1","fzjwka6kc72e2j2","","null","","<p style=""color:green;""><b>Correct!</b></p>","","null","","","","","","","","","","","","","","","",""
"audio-keyboard-response","120","127619","0.0-4.0-1.0-0.33","3","1","fzjwka6kc72e2j2","","null","","sounds/induction/left/pu_SWS.wav","","null","","","","","","","","","","","","","","","",""
"html-button-response","121","127990","0.0-4.0-1.0-1.33","3","1","fzjwka6kc72e2j2","","370","","What sound did you hear?","0","","","1","INDUCTION-JUDGMENT","left","0","","","","","","","","","","",""
"html-keyboard-response","122","128993","0.0-4.0-1.0-2.33","3","1","fzjwka6kc72e2j2","","null","","<p style=""color:green;""><b>Correct!</b></p>","","null","","","","","","","","","","","","","","","",""
"audio-keyboard-response","123","129795","0.0-4.0-1.0-0.34","3","1","fzjwka6kc72e2j2","","null","","sounds/induction/left/re_SWS.wav","","null","","","","","","","","","","","","","","","",""
"html-button-response","124","130115","0.0-4.0-1.0-1.34","3","1","fzjwka6kc72e2j2","","319","","What sound did you hear?","0","","","1","INDUCTION-JUDGMENT","left","0","","","","","","","","","","",""
"html-keyboard-response","125","131117","0.0-4.0-1.0-2.34","3","1","fzjwka6kc72e2j2","","null","","<p style=""color:green;""><b>Correct!</b></p>","","null","","","","","","","","","","","","","","","",""
"audio-keyboard-response","126","131920","0.0-4.0-1.0-0.35","3","1","fzjwka6kc72e2j2","","null","","sounds/induction/left/me_SWS.wav","","null","","","","","","","","","","","","","","","",""
"html-button-response","127","132305","0.0-4.0-1.0-1.35","3","1","fzjwka6kc72e2j2","","383","","What sound did you hear?","0","","","0","INDUCTION-JUDGMENT","left","1","","","","","","","","","","",""
"html-keyboard-response","128","133308","0.0-4.0-1.0-2.35","3","1","fzjwka6kc72e2j2","","null","","<p style=""color:red;""><b>Incorrect!</b></p>","","null","","","","","","","","","","","","","","","",""
"audio-keyboard-response","129","134110","0.0-4.0-1.0-0.36","3","1","fzjwka6kc72e2j2","","null","","sounds/induction/right/ko_SWS.wav","","null","","","","","","","","","","","","","","","",""
"html-button-response","130","134455","0.0-4.0-1.0-1.36","3","1","fzjwka6kc72e2j2","","343.9999999999709","","What sound did you hear?","0","","","1","INDUCTION-JUDGMENT","right","0","","","","","","","","","","",""
"html-keyboard-response","131","135457","0.0-4.0-1.0-2.36","3","1","fzjwka6kc72e2j2","","null","","<p style=""color:green;""><b>Correct!</b></p>","","null","","","","","","","","","","","","","","","",""
"audio-keyboard-response","132","136259","0.0-4.0-1.0-0.37","3","1","fzjwka6kc72e2j2","","null","","sounds/induction/left/ko_SWS.wav","","null","","","","","","","","","","","","","","","",""
"html-button-response","133","136605","0.0-4.0-1.0-1.37","3","1","fzjwka6kc72e2j2","","345","","What sound did you hear?","0","","","0","INDUCTION-JUDGMENT","left","1","","","","","","","","","","",""
"html-keyboard-response","134","137607","0.0-4.0-1.0-2.37","3","1","fzjwka6kc72e2j2","","null","","<p style=""color:red;""><b>Incorrect!</b></p>","","null","","","","","","","","","","","","","","","",""
"audio-keyboard-response","135","138408","0.0-4.0-1.0-0.38","3","1","fzjwka6kc72e2j2","","null","","sounds/induction/right/ko_SWS.wav","","null","","","","","","","","","","","","","","","",""
"html-button-response","136","139154","0.0-4.0-1.0-1.38","3","1","fzjwka6kc72e2j2","","744","","What sound did you hear?","0","","","1","INDUCTION-JUDGMENT","right","0","","","","","","","","","","",""
"html-keyboard-response","137","140156","0.0-4.0-1.0-2.38","3","1","fzjwka6kc72e2j2","","null","","<p style=""color:green;""><b>Correct!</b></p>","","null","","","","","","","","","","","","","","","",""
"audio-keyboard-response","138","140957","0.0-4.0-1.0-0.39","3","1","fzjwka6kc72e2j2","","null","","sounds/induction/left/ta_SWS.wav","","null","","","","","","","","","","","","","","","",""
"html-button-response","139","141762","0.0-4.0-1.0-1.39","3","1","fzjwka6kc72e2j2","","803","","What sound did you hear?","0","","","1","INDUCTION-JUDGMENT","left","0","","","","","","","","","","",""
"html-keyboard-response","140","142764","0.0-4.0-1.0-2.39","3","1","fzjwka6kc72e2j2","","null","","<p style=""color:green;""><b>Correct!</b></p>","","null","","","","","","","","","","","","","","","",""
"audio-keyboard-response","141","143565","0.0-4.0-1.0-0.40","3","1","fzjwka6kc72e2j2","","null","","sounds/induction/left/ni_SWS.wav","","null","","","","","","","","","","","","","","","",""
"html-button-response","142","144198","0.0-4.0-1.0-1.40","3","1","fzjwka6kc72e2j2","","631","","What sound did you hear?","0","","","0","INDUCTION-JUDGMENT","left","1","","","","","","","","","","",""
"html-keyboard-response","143","145200","0.0-4.0-1.0-2.40","3","1","fzjwka6kc72e2j2","","null","","<p style=""color:red;""><b>Incorrect!</b></p>","","null","","","","","","","","","","","","","","","",""
"audio-keyboard-response","144","146003","0.0-4.0-1.0-0.41","3","1","fzjwka6kc72e2j2","","null","","sounds/induction/right/re_SWS.wav","","null","","","","","","","","","","","","","","","",""
"html-button-response","145","150568","0.0-4.0-1.0-1.41","3","1","fzjwka6kc72e2j2","","4563","","What sound did you hear?","1","","","1","INDUCTION-JUDGMENT","right","1","","","","","","","","","","",""
"html-keyboard-response","146","151571","0.0-4.0-1.0-2.41","3","1","fzjwka6kc72e2j2","","null","","<p style=""color:green;""><b>Correct!</b></p>","","null","","","","","","","","","","","","","","","",""
"audio-keyboard-response","147","152373","0.0-4.0-1.0-0.42","3","1","fzjwka6kc72e2j2","","null","","sounds/induction/left/ge_SWS.wav","","null","","","","","","","","","","","","","","","",""
"html-button-response","148","153044","0.0-4.0-1.0-1.42","3","1","fzjwka6kc72e2j2","","670","","What sound did you hear?","0","","","0","INDUCTION-JUDGMENT","left","1","","","","","","","","","","",""
"html-keyboard-response","149","154047","0.0-4.0-1.0-2.42","3","1","fzjwka6kc72e2j2","","null","","<p style=""color:red;""><b>Incorrect!</b></p>","","null","","","","","","","","","","","","","","","",""
"audio-keyboard-response","150","154848","0.0-4.0-1.0-0.43","3","1","fzjwka6kc72e2j2","","null","","sounds/induction/left/ru_SWS.wav","","null","","","","","","","","","","","","","","","",""
"html-button-response","151","155251","0.0-4.0-1.0-1.43","3","1","fzjwka6kc72e2j2","","402.9999999999709","","What sound did you hear?","0","","","1","INDUCTION-JUDGMENT","left","0","","","","","","","","","","",""
"html-keyboard-response","152","156253","0.0-4.0-1.0-2.43","3","1","fzjwka6kc72e2j2","","null","","<p style=""color:green;""><b>Correct!</b></p>","","null","","","","","","","","","","","","","","","",""
"audio-keyboard-response","153","157056","0.0-4.0-1.0-0.44","3","1","fzjwka6kc72e2j2","","null","","sounds/induction/right/re_SWS.wav","","null","","","","","","","","","","","","","","","",""
"html-button-response","154","157491","0.0-4.0-1.0-1.44","3","1","fzjwka6kc72e2j2","","434.0000000000291","","What sound did you hear?","0","","","0","INDUCTION-JUDGMENT","right","1","","","","","","","","","","",""
"html-keyboard-response","155","158493","0.0-4.0-1.0-2.44","3","1","fzjwka6kc72e2j2","","null","","<p style=""color:red;""><b>Incorrect!</b></p>","","null","","","","","","","","","","","","","","","",""
"audio-keyboard-response","156","159296","0.0-4.0-1.0-0.45","3","1","fzjwka6kc72e2j2","","null","","sounds/induction/right/ti_SWS.wav","","null","","","","","","","","","","","","","","","",""
"html-button-response","157","159967","0.0-4.0-1.0-1.45","3","1","fzjwka6kc72e2j2","","671","","What sound did you hear?","0","","","0","INDUCTION-JUDGMENT","right","1","","","","","","","","","","",""
"html-keyboard-response","158","160970","0.0-4.0-1.0-2.45","3","1","fzjwka6kc72e2j2","","null","","<p style=""color:red;""><b>Incorrect!</b></p>","","null","","","","","","","","","","","","","","","",""
"audio-keyboard-response","159","161773","0.0-4.0-1.0-0.46","3","1","fzjwka6kc72e2j2","","null","","sounds/induction/right/ta_SWS.wav","","null","","","","","","","","","","","","","","","",""
"html-button-response","160","162059","0.0-4.0-1.0-1.46","3","1","fzjwka6kc72e2j2","","285","","What sound did you hear?","0","","","0","INDUCTION-JUDGMENT","right","1","","","","","","","","","","",""
"html-keyboard-response","161","163061","0.0-4.0-1.0-2.46","3","1","fzjwka6kc72e2j2","","null","","<p style=""color:red;""><b>Incorrect!</b></p>","","null","","","","","","","","","","","","","","","",""
"audio-keyboard-response","162","163863","0.0-4.0-1.0-0.47","3","1","fzjwka6kc72e2j2","","null","","sounds/induction/right/ta_SWS.wav","","null","","","","","","","","","","","","","","","",""
"html-button-response","163","164258","0.0-4.0-1.0-1.47","3","1","fzjwka6kc72e2j2","","389","","What sound did you hear?","0","","","0","INDUCTION-JUDGMENT","right","1","","","","","","","","","","",""
"html-keyboard-response","164","165260","0.0-4.0-1.0-2.47","3","1","fzjwka6kc72e2j2","","null","","<p style=""color:red;""><b>Incorrect!</b></p>","","null","","","","","","","","","","","","","","","",""
"html-button-response","165","167562","0.0-5.0-0.0","3","1","fzjwka6kc72e2j2","","1799","","<p>Thank you for your answers.</p><p>You will now listen to similar sounds. The main difference is that the sounds will be longer and will make up complete sentences.</p><p>Please listen carefully to each sentence. After each sentence, you will be asked to type back what you heard to the best of your ability. After you provide your response, you will be given feedback about the correct answer.</p><p>There are 10 sentences in total.","0","","","","","","","","","","","","","","","","",""
"audio-keyboard-response","166","170290","0.0-5.0-1.0-0.0","3","1","fzjwka6kc72e2j2","","null","","sounds/sentences/right/14_09_cfSWS.wav","","null","","","","","","","","","","","","","","","",""
"sentence-resp","167","182775","0.0-5.0-1.0-1.0","3","1","fzjwka6kc72e2j2","","12483","","","","","","","SWS-SENT-RESPONSE","","","{""Q0"":""you need to stop being like this ""}","We frown when events take a bad turn.","frown,events,take,bad,turn","YOU NEED TO STOP BEING LIKE THIS ","0","0","0","0","0","0","0"
"html-keyboard-response","168","184028","0.0-5.0-1.0-2.0","3","1","fzjwka6kc72e2j2","","null","","","","null","","","","","","","","","","","","","","","",""
"audio-keyboard-response","169","186255","0.0-5.0-1.0-3.0","3","1","fzjwka6kc72e2j2","","null","","sounds/sentences/right/14_09_cfSWS.wav","","null","","","","","","","","","","","","","","","",""
"html-keyboard-response","170","187257","0.0-5.0-1.0-4.0","3","1","fzjwka6kc72e2j2","","null","","","","null","","","","","","","","","","","","","","","",""
"html-button-response","171","188448","0.0-5.0-1.0-5.0","3","1","fzjwka6kc72e2j2","","689","","<p>Press the button below when you are ready to continue.</p>","0","","","","","","","","","","","","","","","","",""
"audio-keyboard-response","172","191564","0.0-5.0-1.0-0.1","3","1","fzjwka6kc72e2j2","","null","","sounds/sentences/left/14_01_cfSWS.wav","","null","","","","","","","","","","","","","","","",""
"sentence-resp","173","204581","0.0-5.0-1.0-1.1","3","1","fzjwka6kc72e2j2","","13016","","","","","","","SWS-SENT-RESPONSE","","","{""Q0"":""there is nothing I can do first of all ""}","A cramp is no small danger on a swim.","cramp,no,small,danger,swim","THERE IS NOTHING I CAN DO FIRST OF ALL ","0","0","0","0","0","0","0"
"html-keyboard-response","174","205835","0.0-5.0-1.0-2.1","3","1","fzjwka6kc72e2j2","","null","","","","null","","","","","","","","","","","","","","","",""
"audio-keyboard-response","175","208449","0.0-5.0-1.0-3.1","3","1","fzjwka6kc72e2j2","","null","","sounds/sentences/left/14_01_cfSWS.wav","","null","","","","","","","","","","","","","","","",""
"html-keyboard-response","176","209450","0.0-5.0-1.0-4.1","3","1","fzjwka6kc72e2j2","","null","","","","null","","","","","","","","","","","","","","","",""
"html-button-response","177","210875","0.0-5.0-1.0-5.1","3","1","fzjwka6kc72e2j2","","923","","<p>Press the button below when you are ready to continue.</p>","0","","","","","","","","","","","","","","","","",""
"audio-keyboard-response","178","213865","0.0-5.0-1.0-0.2","3","1","fzjwka6kc72e2j2","","null","","sounds/sentences/left/14_05_cfSWS.wav","","null","","","","","","","","","","","","","","","",""
"sentence-resp","179","228542","0.0-5.0-1.0-1.2","3","1","fzjwka6kc72e2j2","","14676","","","","","","","SWS-SENT-RESPONSE","","","{""Q0"":""he told me that she is such a sweet girl""}","The glow deepened in the eyes of the sweet girl.","glow,deepened,eyes,sweet,girl","HE TOLD ME THAT SHE IS SUCH A SWEET GIRL","0","0","0","1","1","2","0.4"
"html-keyboard-response","180","229795","0.0-5.0-1.0-2.2","3","1","fzjwka6kc72e2j2","","null","","","","null","","","","","","","","","","","","","","","",""
"audio-keyboard-response","181","232283","0.0-5.0-1.0-3.2","3","1","fzjwka6kc72e2j2","","null","","sounds/sentences/left/14_05_cfSWS.wav","","null","","","","","","","","","","","","","","","",""
"html-keyboard-response","182","233286","0.0-5.0-1.0-4.2","3","1","fzjwka6kc72e2j2","","null","","","","null","","","","","","","","","","","","","","","",""
"html-button-response","183","235786","0.0-5.0-1.0-5.2","3","1","fzjwka6kc72e2j2","","1998","","<p>Press the button below when you are ready to continue.</p>","0","","","","","","","","","","","","","","","","",""
"audio-keyboard-response","184","238531","0.0-5.0-1.0-0.3","3","1","fzjwka6kc72e2j2","","null","","sounds/sentences/right/14_06_cfSWS.wav","","null","","","","","","","","","","","","","","","",""
"sentence-resp","185","252091","0.0-5.0-1.0-1.3","3","1","fzjwka6kc72e2j2","","13558","","","","","","","SWS-SENT-RESPONSE","","","{""Q0"":""you should take your problems to the vice principal ""}","Bring your problems to the wise chief.","bring,your,problems,wise,chief","YOU SHOULD TAKE YOUR PROBLEMS TO THE VICE PRINCIPAL ","0","1","1","0","0","2","0.4"
"html-keyboard-response","186","253343","0.0-5.0-1.0-2.3","3","1","fzjwka6kc72e2j2","","null","","","","null","","","","","","","","","","","","","","","",""
"audio-keyboard-response","187","255586","0.0-5.0-1.0-3.3","3","1","fzjwka6kc72e2j2","","null","","sounds/sentences/right/14_06_cfSWS.wav","","null","","","","","","","","","","","","","","","",""
"html-keyboard-response","188","256589","0.0-5.0-1.0-4.3","3","1","fzjwka6kc72e2j2","","null","","","","null","","","","","","","","","","","","","","","",""
"html-button-response","189","258008","0.0-5.0-1.0-5.3","3","1","fzjwka6kc72e2j2","","915.9999999999709","","<p>Press the button below when you are ready to continue.</p>","0","","","","","","","","","","","","","","","","",""
"audio-keyboard-response","190","260826","0.0-5.0-1.0-0.4","3","1","fzjwka6kc72e2j2","","null","","sounds/sentences/left/14_02_cfSWS.wav","","null","","","","","","","","","","","","","","","",""
"sentence-resp","191","281430","0.0-5.0-1.0-1.4","3","1","fzjwka6kc72e2j2","","20602","","","","","","","SWS-SENT-RESPONSE","","","{""Q0"":""seven plus two is less than ten\n""}","He said the same phrase thirty times.","said,same,phrase,thirty,times","SEVEN PLUS TWO IS LESS THAN TEN ","0","0","0","0","0","0","0"
"html-keyboard-response","192","282683","0.0-5.0-1.0-2.4","3","1","fzjwka6kc72e2j2","","null","","","","null","","","","","","","","","","","","","","","",""
"audio-keyboard-response","193","285002","0.0-5.0-1.0-3.4","3","1","fzjwka6kc72e2j2","","null","","sounds/sentences/left/14_02_cfSWS.wav","","null","","","","","","","","","","","","","","","",""
"html-keyboard-response","194","286004","0.0-5.0-1.0-4.4","3","1","fzjwka6kc72e2j2","","null","","","","null","","","","","","","","","","","","","","","",""
"html-button-response","195","287045","0.0-5.0-1.0-5.4","3","1","fzjwka6kc72e2j2","","538.0000000000582","","<p>Press the button below when you are ready to continue.</p>","0","","","","","","","","","","","","","","","","",""
"audio-keyboard-response","196","289935","0.0-5.0-1.0-0.5","3","1","fzjwka6kc72e2j2","","null","","sounds/sentences/right/14_07_cfSWS.wav","","null","","","","","","","","","","","","","","","",""
"sentence-resp","197","308943","0.0-5.0-1.0-1.5","3","1","fzjwka6kc72e2j2","","19007","","","","","","","SWS-SENT-RESPONSE","","","{""Q0"":""small things like these help my friends cherish ""}","Write a fond note to the friend you cherish.","write,fond,note,friend,cherish","SMALL THINGS LIKE THESE HELP MY FRIENDS CHERISH ","0","0","0","0","1","1","0.2"
"html-keyboard-response","198","310195","0.0-5.0-1.0-2.5","3","1","fzjwka6kc72e2j2","","null","","","","null","","","","","","","","","","","","","","","",""
"audio-keyboard-response","199","312585","0.0-5.0-1.0-3.5","3","1","fzjwka6kc72e2j2","","null","","sounds/sentences/right/14_07_cfSWS.wav","","null","","","","","","","","","","","","","","","",""
"html-keyboard-response","200","313587","0.0-5.0-1.0-4.5","3","1","fzjwka6kc72e2j2","","null","","","","null","","","","","","","","","","","","","","","",""
"html-button-response","201","317247","0.0-5.0-1.0-5.5","3","1","fzjwka6kc72e2j2","","3158","","<p>Press the button below when you are ready to continue.</p>","0","","","","","","","","","","","","","","","","",""
"audio-keyboard-response","202","320262","0.0-5.0-1.0-0.6","3","1","fzjwka6kc72e2j2","","null","","sounds/sentences/right/14_10_cfSWS.wav","","null","","","","","","","","","","","","","","","",""
"sentence-resp","203","331175","0.0-5.0-1.0-1.6","3","1","fzjwka6kc72e2j2","","10912","","","","","","","SWS-SENT-RESPONSE","","","{""Q0"":""strong blind with a smart taste ""}","Port is a strong wine with a smoky taste.","port,strong,wine,smoky,taste","STRONG BLIND WITH A SMART TASTE ","0","1","0","0","1","2","0.4"
"html-keyboard-response","204","332429","0.0-5.0-1.0-2.6","3","1","fzjwka6kc72e2j2","","null","","","","null","","","","","","","","","","","","","","","",""
"audio-keyboard-response","205","334944","0.0-5.0-1.0-3.6","3","1","fzjwka6kc72e2j2","","null","","sounds/sentences/right/14_10_cfSWS.wav","","null","","","","","","","","","","","","","","","",""
"html-keyboard-response","206","335946","0.0-5.0-1.0-4.6","3","1","fzjwka6kc72e2j2","","null","","","","null","","","","","","","","","","","","","","","",""
"html-button-response","207","337625","0.0-5.0-1.0-5.6","3","1","fzjwka6kc72e2j2","","1176","","<p>Press the button below when you are ready to continue.</p>","0","","","","","","","","","","","","","","","","",""
"audio-keyboard-response","208","340208","0.0-5.0-1.0-0.7","3","1","fzjwka6kc72e2j2","","null","","sounds/sentences/left/14_03_cfSWS.wav","","null","","","","","","","","","","","","","","","",""
"sentence-resp","209","348482","0.0-5.0-1.0-1.7","3","1","fzjwka6kc72e2j2","","8273","","","","","","","SWS-SENT-RESPONSE","","","{""Q0"":""what is this place without leaves ""}","Pluck the bright rose without leaves.","pluck,bright,rose,without,leaves","WHAT IS THIS PLACE WITHOUT LEAVES ","0","0","0","1","1","2","0.4"
"html-keyboard-response","210","349736","0.0-5.0-1.0-2.7","3","1","fzjwka6kc72e2j2","","null","","","","null","","","","","","","","","","","","","","","",""
"audio-keyboard-response","211","351818","0.0-5.0-1.0-3.7","3","1","fzjwka6kc72e2j2","","null","","sounds/sentences/left/14_03_cfSWS.wav","","null","","","","","","","","","","","","","","","",""
"html-keyboard-response","212","352820","0.0-5.0-1.0-4.7","3","1","fzjwka6kc72e2j2","","null","","","","null","","","","","","","","","","","","","","","",""
"html-button-response","213","354400","0.0-5.0-1.0-5.7","3","1","fzjwka6kc72e2j2","","1078","","<p>Press the button below when you are ready to continue.</p>","0","","","","","","","","","","","","","","","","",""
"audio-keyboard-response","214","357157","0.0-5.0-1.0-0.8","3","1","fzjwka6kc72e2j2","","null","","sounds/sentences/right/14_08_cfSWS.wav","","null","","","","","","","","","","","","","","","",""
"sentence-resp","215","367404","0.0-5.0-1.0-1.8","3","1","fzjwka6kc72e2j2","","10246","","","","","","","SWS-SENT-RESPONSE","","","{""Q0"":""I can't spell what this phrase is ""}","Clothes and lodging are free to new men.","clothes,lodging,free,new,men","I CAN'T SPELL WHAT THIS PHRASE IS ","0","0","0","0","0","0","0"
"html-keyboard-response","216","368657","0.0-5.0-1.0-2.8","3","1","fzjwka6kc72e2j2","","null","","","","null","","","","","","","","","","","","","","","",""
"audio-keyboard-response","217","370914","0.0-5.0-1.0-3.8","3","1","fzjwka6kc72e2j2","","null","","sounds/sentences/right/14_08_cfSWS.wav","","null","","","","","","","","","","","","","","","",""
"html-keyboard-response","218","371916","0.0-5.0-1.0-4.8","3","1","fzjwka6kc72e2j2","","null","","","","null","","","","","","","","","","","","","","","",""
"html-button-response","219","373630","0.0-5.0-1.0-5.8","3","1","fzjwka6kc72e2j2","","1212","","<p>Press the button below when you are ready to continue.</p>","0","","","","","","","","","","","","","","","","",""
"audio-keyboard-response","220","376183","0.0-5.0-1.0-0.9","3","1","fzjwka6kc72e2j2","","null","","sounds/sentences/left/14_04_cfSWS.wav","","null","","","","","","","","","","","","","","","",""
"sentence-resp","221","387018","0.0-5.0-1.0-1.9","3","1","fzjwka6kc72e2j2","","10834","","","","","","","SWS-SENT-RESPONSE","","","{""Q0"":""two plus seven is less than ten\n""}","Two plus seven is less than ten.","two,plus,seven,less,ten","TWO PLUS SEVEN IS LESS THAN TEN ","1","1","1","1","1","5","1"
"html-keyboard-response","222","388271","0.0-5.0-1.0-2.9","3","1","fzjwka6kc72e2j2","","null","","","","null","","","","","","","","","","","","","","","",""
"audio-keyboard-response","223","390324","0.0-5.0-1.0-3.9","3","1","fzjwka6kc72e2j2","","null","","sounds/sentences/left/14_04_cfSWS.wav","","null","","","","","","","","","","","","","","","",""
"html-keyboard-response","224","391326","0.0-5.0-1.0-4.9","3","1","fzjwka6kc72e2j2","","null","","","","null","","","","","","","","","","","","","","","",""
"html-button-response","225","392566","0.0-5.0-1.0-5.9","3","1","fzjwka6kc72e2j2","","738","","<p>Press the button below when you are ready to continue.</p>","0","","","","","","","","","","","","","","","","",""
"html-keyboard-response","226","406331","0.0-6.0-0.0","3","1","fzjwka6kc72e2j2","","13262","","<p>In this part of the study, you will hear sounds similar to those you just heard.</p><p>Please focus on these sounds, as you may be asked questions about them later.</p><p>Occasionally, the sounds will pause for up to two seconds. When this happens, please press SPACEBAR as quickly as you can.</br>This helps ensure that you are paying attention to the sounds.</p><p>This part of the study will take about 12 minutes to complete, and you will be given the opportunity to take a couple of short breaks every few minutes.</p><p><strong>Press SPACEBAR to begin</strong></p>","","32","","","","","","","","","","","","","","","",""
"html-keyboard-response","227","407333","0.0-6.0-1.0-0.0","3","1","fzjwka6kc72e2j2","","null","","<p style=""font-size: 40px;"">+</p>","","null","","","","","","","","","","","","","","","",""
