"trial_type","trial_index","time_elapsed","internal_node_id","counterbalance","lang_instruct","ParticipantID","view_history","rt","url","stimulus","button_pressed","key_press","correctRESP","correct","designation","location","correctanswer","responses","sentence","keywords","typed_resp","keyword1_acc","keyword2_acc","keyword3_acc","keyword4_acc","keyword5_acc","total_acc","prop_acc","timeouts","pause_rt01","pause_rt02","train_file","numKeyPress","sound","fam_type","SYLLABLE","EXEMPLAR","TD_LOCS","TD_TYPE","TDLOC_01","TDLOC_02","TDLOC_03","TDLOC_04","TD_RT_01","TD_RT_02","TD_RT_03","TD_RT_04","TD_SUBJ_RTs","number_of_plays","slider_start","response","question_order","syllable","syllable_type"
"pavlovia","0","3","0.0-0.0","2","1","vmk20zou5p8xpw9","","","","","","","","","","","","","","","","","","","","","","","","","","","","","","","","","","","","","","","","","","","","","","","",""
"instructions","1","4416","0.0-1.0","2","1","vmk20zou5p8xpw9","[{""page_index"":0,""viewing_time"":1099},{""page_index"":1,""viewing_time"":3311}]","4413","","","","","","","","","","","","","","","","","","","","","","","","","","","","","","","","","","","","","","","","","","","","","",""
"external-html","2","7897","0.0-2.0","2","1","vmk20zou5p8xpw9","","3470.999999999998","consent/consent.html","","","","","","","","","","","","","","","","","","","","","","","","","","","","","","","","","","","","","","","","","","","","",""
"html-button-response","3","9661","0.0-3.0-0.0-0.0","2","1","vmk20zou5p8xpw9","","1761.9999999999964","","<p>Welcome to the study. You will first complete a short volume calibration and headphone check.</p><p>Please make sure you are in a quiet listening environment, that you are wearing headphones, and that your computer's volume is turned on.<p></p>","0","","","","","","","","","","","","","","","","","","","","","","","","","","","","","","","","","","","","","","","","","","",""
"html-button-response","4","10877","0.0-3.0-0.0-1.0","2","1","vmk20zou5p8xpw9","","963","","<p>The volume calibration will be first.</p><p>You will hear a thirty-second noise. Please adjust your computer's volume so that this noise is being presented at a comfortable level.<p></p>","0","","","","","","","","","","","","","","","","","","","","","","","","","","","","","","","","","","","","","","","","","","",""
"audio-button-response","5","14115","0.0-3.0-0.0-2.0","2","1","vmk20zou5p8xpw9","","2955","","audCalib/volumetest.mp3","0","","","","","","","","","","","","","","","","","","","","","","","","","","","","","","","","","","","","","","","","","","",""
"html-button-response","6","15274","0.0-3.0-1.0-0.0","2","1","vmk20zou5p8xpw9","","1158","","<p>You will now complete a short headphone check.</p><p>On each trial, you will hear three tones. One of these tones will be quieter than the others. Your task is to identify whether the quiet tone occured first, second, or third.</p><p>There are six trials in total.<p></p>","0","","","","","","","","","","","","","","","","","","","","","","","","","","","","","","","","","","","","","","","","","","",""
"html-keyboard-response","7","16028","0.0-3.0-1.0-1.0-0.0","2","1","vmk20zou5p8xpw9","","null","","<div style=""font-size:60px;"">+</div>","","null","","","","","","","","","","","","","","","","","","","","","","","","","","","","","","","","","","","","","","","","","",""
"audio-button-response","8","16835","0.0-3.0-1.0-1.0-1.0","2","1","vmk20zou5p8xpw9","","805","","audCalib/t1_2.mp3","1","","0","0","headphone-test","","","","","","","","","","","","","","","","","","","","","","","","","","","","","","","","","","","","","","",""
"html-keyboard-response","9","17590","0.0-3.0-1.0-1.0-0.1","2","1","vmk20zou5p8xpw9","","null","","<div style=""font-size:60px;"">+</div>","","null","","","","","","","","","","","","","","","","","","","","","","","","","","","","","","","","","","","","","","","","","",""
"audio-button-response","10","18020","0.0-3.0-1.0-1.0-1.1","2","1","vmk20zou5p8xpw9","","429","","audCalib/t3_1.mp3","1","","2","0","headphone-test","","","","","","","","","","","","","","","","","","","","","","","","","","","","","","","","","","","","","","",""
"html-keyboard-response","11","18773","0.0-3.0-1.0-1.0-0.2","2","1","vmk20zou5p8xpw9","","null","","<div style=""font-size:60px;"">+</div>","","null","","","","","","","","","","","","","","","","","","","","","","","","","","","","","","","","","","","","","","","","","",""
"audio-button-response","12","19222","0.0-3.0-1.0-1.0-1.2","2","1","vmk20zou5p8xpw9","","445","","audCalib/t3_2.mp3","0","","2","0","headphone-test","","","","","","","","","","","","","","","","","","","","","","","","","","","","","","","","","","","","","","",""
"html-keyboard-response","13","19976","0.0-3.0-1.0-1.0-0.3","2","1","vmk20zou5p8xpw9","","null","","<div style=""font-size:60px;"">+</div>","","null","","","","","","","","","","","","","","","","","","","","","","","","","","","","","","","","","","","","","","","","","",""
"audio-button-response","14","20358","0.0-3.0-1.0-1.0-1.3","2","1","vmk20zou5p8xpw9","","379","","audCalib/t1_1.mp3","2","","0","0","headphone-test","","","","","","","","","","","","","","","","","","","","","","","","","","","","","","","","","","","","","","",""
"html-keyboard-response","15","21111","0.0-3.0-1.0-1.0-0.4","2","1","vmk20zou5p8xpw9","","null","","<div style=""font-size:60px;"">+</div>","","null","","","","","","","","","","","","","","","","","","","","","","","","","","","","","","","","","","","","","","","","","",""
"audio-button-response","16","21444","0.0-3.0-1.0-1.0-1.4","2","1","vmk20zou5p8xpw9","","333","","audCalib/t2_1.mp3","1","","1","1","headphone-test","","","","","","","","","","","","","","","","","","","","","","","","","","","","","","","","","","","","","","",""
"html-keyboard-response","17","22198","0.0-3.0-1.0-1.0-0.5","2","1","vmk20zou5p8xpw9","","null","","<div style=""font-size:60px;"">+</div>","","null","","","","","","","","","","","","","","","","","","","","","","","","","","","","","","","","","","","","","","","","","",""
"audio-button-response","18","22514","0.0-3.0-1.0-1.0-1.5","2","1","vmk20zou5p8xpw9","","315","","audCalib/t2_2.mp3","2","","1","0","headphone-test","","","","","","","","","","","","","","","","","","","","","","","","","","","","","","","","","","","","","","",""
"html-button-response","19","23578","0.0-3.0-2.0","2","1","vmk20zou5p8xpw9","","810.9999999999964","","<p>The volume calibration and headphone check are now complete.</p>","0","","","","","","","","","","","","","","","","","","","","","","","","","","","","","","","","","","","","","","","","","","",""
"instructions","20","26397","0.0-4.0-0.0","2","1","vmk20zou5p8xpw9","[{""page_index"":0,""viewing_time"":668},{""page_index"":1,""viewing_time"":1022},{""page_index"":2,""viewing_time"":1128}]","2818","","","","","","","","","","","","","","","","","","","","","","","","","","","","","","","","","","","","","","","","","","","","","",""
"audio-keyboard-response","21","26700","0.0-4.0-1.0-0.0","2","1","vmk20zou5p8xpw9","","null","","sounds/induction/right/ge_SWS.wav","","null","","","","","","","","","","","","","","","","","","","","","","","","","","","","","","","","","","","","","","","","","",""
"html-button-response","22","28088","0.0-4.0-1.0-1.0","2","1","vmk20zou5p8xpw9","","1386","","What sound did you hear?","0","","","1","INDUCTION-JUDGMENT","right","0","","","","","","","","","","","","","","","","","","","","","","","","","","","","","","","","","","","","",""
"html-keyboard-response","23","29090","0.0-4.0-1.0-2.0","2","1","vmk20zou5p8xpw9","","null","","<p style=""color:green;""><b>Correct!</b></p>","","null","","","","","","","","","","","","","","","","","","","","","","","","","","","","","","","","","","","","","","","","","",""
"audio-keyboard-response","24","29894","0.0-4.0-1.0-0.1","2","1","vmk20zou5p8xpw9","","null","","sounds/induction/right/fe_SWS.wav","","null","","","","","","","","","","","","","","","","","","","","","","","","","","","","","","","","","","","","","","","","","",""
"html-button-response","25","30091","0.0-4.0-1.0-1.1","2","1","vmk20zou5p8xpw9","","196","","What sound did you hear?","0","","","1","INDUCTION-JUDGMENT","right","0","","","","","","","","","","","","","","","","","","","","","","","","","","","","","","","","","","","","",""
"html-keyboard-response","26","31094","0.0-4.0-1.0-2.1","2","1","vmk20zou5p8xpw9","","null","","<p style=""color:green;""><b>Correct!</b></p>","","null","","","","","","","","","","","","","","","","","","","","","","","","","","","","","","","","","","","","","","","","","",""
"audio-keyboard-response","27","31897","0.0-4.0-1.0-0.2","2","1","vmk20zou5p8xpw9","","null","","sounds/induction/left/ti_SWS.wav","","null","","","","","","","","","","","","","","","","","","","","","","","","","","","","","","","","","","","","","","","","","",""
"html-button-response","28","32133","0.0-4.0-1.0-1.2","2","1","vmk20zou5p8xpw9","","235","","What sound did you hear?","0","","","1","INDUCTION-JUDGMENT","left","0","","","","","","","","","","","","","","","","","","","","","","","","","","","","","","","","","","","","",""
"html-keyboard-response","29","33136","0.0-4.0-1.0-2.2","2","1","vmk20zou5p8xpw9","","null","","<p style=""color:green;""><b>Correct!</b></p>","","null","","","","","","","","","","","","","","","","","","","","","","","","","","","","","","","","","","","","","","","","","",""
"audio-keyboard-response","30","33939","0.0-4.0-1.0-0.3","2","1","vmk20zou5p8xpw9","","null","","sounds/induction/right/ge_SWS.wav","","null","","","","","","","","","","","","","","","","","","","","","","","","","","","","","","","","","","","","","","","","","",""
"html-button-response","31","34136","0.0-4.0-1.0-1.3","2","1","vmk20zou5p8xpw9","","195","","What sound did you hear?","0","","","1","INDUCTION-JUDGMENT","right","0","","","","","","","","","","","","","","","","","","","","","","","","","","","","","","","","","","","","",""
"html-keyboard-response","32","35138","0.0-4.0-1.0-2.3","2","1","vmk20zou5p8xpw9","","null","","<p style=""color:green;""><b>Correct!</b></p>","","null","","","","","","","","","","","","","","","","","","","","","","","","","","","","","","","","","","","","","","","","","",""
"audio-keyboard-response","33","35940","0.0-4.0-1.0-0.4","2","1","vmk20zou5p8xpw9","","null","","sounds/induction/left/ko_SWS.wav","","null","","","","","","","","","","","","","","","","","","","","","","","","","","","","","","","","","","","","","","","","","",""
"html-button-response","34","36490","0.0-4.0-1.0-1.4","2","1","vmk20zou5p8xpw9","","549","","What sound did you hear?","0","","","0","INDUCTION-JUDGMENT","left","1","","","","","","","","","","","","","","","","","","","","","","","","","","","","","","","","","","","","",""
"html-keyboard-response","35","37493","0.0-4.0-1.0-2.4","2","1","vmk20zou5p8xpw9","","null","","<p style=""color:red;""><b>Incorrect!</b></p>","","null","","","","","","","","","","","","","","","","","","","","","","","","","","","","","","","","","","","","","","","","","",""
"audio-keyboard-response","36","38297","0.0-4.0-1.0-0.5","2","1","vmk20zou5p8xpw9","","null","","sounds/induction/right/fe_SWS.wav","","null","","","","","","","","","","","","","","","","","","","","","","","","","","","","","","","","","","","","","","","","","",""
"html-button-response","37","38532","0.0-4.0-1.0-1.5","2","1","vmk20zou5p8xpw9","","234","","What sound did you hear?","0","","","1","INDUCTION-JUDGMENT","right","0","","","","","","","","","","","","","","","","","","","","","","","","","","","","","","","","","","","","",""
"html-keyboard-response","38","39535","0.0-4.0-1.0-2.5","2","1","vmk20zou5p8xpw9","","null","","<p style=""color:green;""><b>Correct!</b></p>","","null","","","","","","","","","","","","","","","","","","","","","","","","","","","","","","","","","","","","","","","","","",""
"audio-keyboard-response","39","40337","0.0-4.0-1.0-0.6","2","1","vmk20zou5p8xpw9","","null","","sounds/induction/left/re_SWS.wav","","null","","","","","","","","","","","","","","","","","","","","","","","","","","","","","","","","","","","","","","","","","",""
"html-button-response","40","40690","0.0-4.0-1.0-1.6","2","1","vmk20zou5p8xpw9","","352","","What sound did you hear?","0","","","1","INDUCTION-JUDGMENT","left","0","","","","","","","","","","","","","","","","","","","","","","","","","","","","","","","","","","","","",""
"html-keyboard-response","41","41693","0.0-4.0-1.0-2.6","2","1","vmk20zou5p8xpw9","","null","","<p style=""color:green;""><b>Correct!</b></p>","","null","","","","","","","","","","","","","","","","","","","","","","","","","","","","","","","","","","","","","","","","","",""
"audio-keyboard-response","42","42494","0.0-4.0-1.0-0.7","2","1","vmk20zou5p8xpw9","","null","","sounds/induction/left/ta_SWS.wav","","null","","","","","","","","","","","","","","","","","","","","","","","","","","","","","","","","","","","","","","","","","",""
"html-button-response","43","42675","0.0-4.0-1.0-1.7","2","1","vmk20zou5p8xpw9","","180","","What sound did you hear?","0","","","1","INDUCTION-JUDGMENT","left","0","","","","","","","","","","","","","","","","","","","","","","","","","","","","","","","","","","","","",""
"html-keyboard-response","44","43678","0.0-4.0-1.0-2.7","2","1","vmk20zou5p8xpw9","","null","","<p style=""color:green;""><b>Correct!</b></p>","","null","","","","","","","","","","","","","","","","","","","","","","","","","","","","","","","","","","","","","","","","","",""
"audio-keyboard-response","45","44481","0.0-4.0-1.0-0.8","2","1","vmk20zou5p8xpw9","","null","","sounds/induction/left/pu_SWS.wav","","null","","","","","","","","","","","","","","","","","","","","","","","","","","","","","","","","","","","","","","","","","",""
"html-button-response","46","44875","0.0-4.0-1.0-1.8","2","1","vmk20zou5p8xpw9","","393","","What sound did you hear?","0","","","1","INDUCTION-JUDGMENT","left","0","","","","","","","","","","","","","","","","","","","","","","","","","","","","","","","","","","","","",""
"html-keyboard-response","47","45877","0.0-4.0-1.0-2.8","2","1","vmk20zou5p8xpw9","","null","","<p style=""color:green;""><b>Correct!</b></p>","","null","","","","","","","","","","","","","","","","","","","","","","","","","","","","","","","","","","","","","","","","","",""
"audio-keyboard-response","48","46678","0.0-4.0-1.0-0.9","2","1","vmk20zou5p8xpw9","","null","","sounds/induction/left/pu_SWS.wav","","null","","","","","","","","","","","","","","","","","","","","","","","","","","","","","","","","","","","","","","","","","",""
"html-button-response","49","46926","0.0-4.0-1.0-1.9","2","1","vmk20zou5p8xpw9","","247","","What sound did you hear?","0","","","1","INDUCTION-JUDGMENT","left","0","","","","","","","","","","","","","","","","","","","","","","","","","","","","","","","","","","","","",""
"html-keyboard-response","50","47928","0.0-4.0-1.0-2.9","2","1","vmk20zou5p8xpw9","","null","","<p style=""color:green;""><b>Correct!</b></p>","","null","","","","","","","","","","","","","","","","","","","","","","","","","","","","","","","","","","","","","","","","","",""
"audio-keyboard-response","51","48731","0.0-4.0-1.0-0.10","2","1","vmk20zou5p8xpw9","","null","","sounds/induction/right/ni_SWS.wav","","null","","","","","","","","","","","","","","","","","","","","","","","","","","","","","","","","","","","","","","","","","",""
"html-button-response","52","49157","0.0-4.0-1.0-1.10","2","1","vmk20zou5p8xpw9","","424.9999999999927","","What sound did you hear?","0","","","1","INDUCTION-JUDGMENT","right","0","","","","","","","","","","","","","","","","","","","","","","","","","","","","","","","","","","","","",""
"html-keyboard-response","53","50160","0.0-4.0-1.0-2.10","2","1","vmk20zou5p8xpw9","","null","","<p style=""color:green;""><b>Correct!</b></p>","","null","","","","","","","","","","","","","","","","","","","","","","","","","","","","","","","","","","","","","","","","","",""
"audio-keyboard-response","54","50960","0.0-4.0-1.0-0.11","2","1","vmk20zou5p8xpw9","","null","","sounds/induction/right/ru_SWS.wav","","null","","","","","","","","","","","","","","","","","","","","","","","","","","","","","","","","","","","","","","","","","",""
"html-button-response","55","51454","0.0-4.0-1.0-1.11","2","1","vmk20zou5p8xpw9","","493","","What sound did you hear?","0","","","0","INDUCTION-JUDGMENT","right","1","","","","","","","","","","","","","","","","","","","","","","","","","","","","","","","","","","","","",""
"html-keyboard-response","56","52457","0.0-4.0-1.0-2.11","2","1","vmk20zou5p8xpw9","","null","","<p style=""color:red;""><b>Incorrect!</b></p>","","null","","","","","","","","","","","","","","","","","","","","","","","","","","","","","","","","","","","","","","","","","",""
"audio-keyboard-response","57","53259","0.0-4.0-1.0-0.12","2","1","vmk20zou5p8xpw9","","null","","sounds/induction/left/ru_SWS.wav","","null","","","","","","","","","","","","","","","","","","","","","","","","","","","","","","","","","","","","","","","","","",""
"html-button-response","58","53815","0.0-4.0-1.0-1.12","2","1","vmk20zou5p8xpw9","","555","","What sound did you hear?","0","","","1","INDUCTION-JUDGMENT","left","0","","","","","","","","","","","","","","","","","","","","","","","","","","","","","","","","","","","","",""
"html-keyboard-response","59","54817","0.0-4.0-1.0-2.12","2","1","vmk20zou5p8xpw9","","null","","<p style=""color:green;""><b>Correct!</b></p>","","null","","","","","","","","","","","","","","","","","","","","","","","","","","","","","","","","","","","","","","","","","",""
"audio-keyboard-response","60","55619","0.0-4.0-1.0-0.13","2","1","vmk20zou5p8xpw9","","null","","sounds/induction/right/su_SWS.wav","","null","","","","","","","","","","","","","","","","","","","","","","","","","","","","","","","","","","","","","","","","","",""
"html-button-response","61","56218","0.0-4.0-1.0-1.13","2","1","vmk20zou5p8xpw9","","598","","What sound did you hear?","0","","","0","INDUCTION-JUDGMENT","right","1","","","","","","","","","","","","","","","","","","","","","","","","","","","","","","","","","","","","",""
"html-keyboard-response","62","57220","0.0-4.0-1.0-2.13","2","1","vmk20zou5p8xpw9","","null","","<p style=""color:red;""><b>Incorrect!</b></p>","","null","","","","","","","","","","","","","","","","","","","","","","","","","","","","","","","","","","","","","","","","","",""
"audio-keyboard-response","63","58022","0.0-4.0-1.0-0.14","2","1","vmk20zou5p8xpw9","","null","","sounds/induction/left/ko_SWS.wav","","null","","","","","","","","","","","","","","","","","","","","","","","","","","","","","","","","","","","","","","","","","",""
"html-button-response","64","58916","0.0-4.0-1.0-1.14","2","1","vmk20zou5p8xpw9","","892.9999999999854","","What sound did you hear?","0","","","0","INDUCTION-JUDGMENT","left","1","","","","","","","","","","","","","","","","","","","","","","","","","","","","","","","","","","","","",""
"html-keyboard-response","65","59918","0.0-4.0-1.0-2.14","2","1","vmk20zou5p8xpw9","","null","","<p style=""color:red;""><b>Incorrect!</b></p>","","null","","","","","","","","","","","","","","","","","","","","","","","","","","","","","","","","","","","","","","","","","",""
"audio-keyboard-response","66","60720","0.0-4.0-1.0-0.15","2","1","vmk20zou5p8xpw9","","null","","sounds/induction/left/fe_SWS.wav","","null","","","","","","","","","","","","","","","","","","","","","","","","","","","","","","","","","","","","","","","","","",""
"html-button-response","67","61595","0.0-4.0-1.0-1.15","2","1","vmk20zou5p8xpw9","","873","","What sound did you hear?","0","","","0","INDUCTION-JUDGMENT","left","1","","","","","","","","","","","","","","","","","","","","","","","","","","","","","","","","","","","","",""
"html-keyboard-response","68","62597","0.0-4.0-1.0-2.15","2","1","vmk20zou5p8xpw9","","null","","<p style=""color:red;""><b>Incorrect!</b></p>","","null","","","","","","","","","","","","","","","","","","","","","","","","","","","","","","","","","","","","","","","","","",""
"audio-keyboard-response","69","63400","0.0-4.0-1.0-0.16","2","1","vmk20zou5p8xpw9","","null","","sounds/induction/left/me_SWS.wav","","null","","","","","","","","","","","","","","","","","","","","","","","","","","","","","","","","","","","","","","","","","",""
"html-button-response","70","63866","0.0-4.0-1.0-1.16","2","1","vmk20zou5p8xpw9","","464","","What sound did you hear?","0","","","0","INDUCTION-JUDGMENT","left","1","","","","","","","","","","","","","","","","","","","","","","","","","","","","","","","","","","","","",""
"html-keyboard-response","71","64868","0.0-4.0-1.0-2.16","2","1","vmk20zou5p8xpw9","","null","","<p style=""color:red;""><b>Incorrect!</b></p>","","null","","","","","","","","","","","","","","","","","","","","","","","","","","","","","","","","","","","","","","","","","",""
"audio-keyboard-response","72","65670","0.0-4.0-1.0-0.17","2","1","vmk20zou5p8xpw9","","null","","sounds/induction/right/ti_SWS.wav","","null","","","","","","","","","","","","","","","","","","","","","","","","","","","","","","","","","","","","","","","","","",""
"html-button-response","73","66075","0.0-4.0-1.0-1.17","2","1","vmk20zou5p8xpw9","","405","","What sound did you hear?","0","","","0","INDUCTION-JUDGMENT","right","1","","","","","","","","","","","","","","","","","","","","","","","","","","","","","","","","","","","","",""
"html-keyboard-response","74","67078","0.0-4.0-1.0-2.17","2","1","vmk20zou5p8xpw9","","null","","<p style=""color:red;""><b>Incorrect!</b></p>","","null","","","","","","","","","","","","","","","","","","","","","","","","","","","","","","","","","","","","","","","","","",""
"audio-keyboard-response","75","67880","0.0-4.0-1.0-0.18","2","1","vmk20zou5p8xpw9","","null","","sounds/induction/right/me_SWS.wav","","null","","","","","","","","","","","","","","","","","","","","","","","","","","","","","","","","","","","","","","","","","",""
"html-button-response","76","68745","0.0-4.0-1.0-1.18","2","1","vmk20zou5p8xpw9","","864","","What sound did you hear?","0","","","1","INDUCTION-JUDGMENT","right","0","","","","","","","","","","","","","","","","","","","","","","","","","","","","","","","","","","","","",""
"html-keyboard-response","77","69748","0.0-4.0-1.0-2.18","2","1","vmk20zou5p8xpw9","","null","","<p style=""color:green;""><b>Correct!</b></p>","","null","","","","","","","","","","","","","","","","","","","","","","","","","","","","","","","","","","","","","","","","","",""
"audio-keyboard-response","78","70550","0.0-4.0-1.0-0.19","2","1","vmk20zou5p8xpw9","","null","","sounds/induction/left/ni_SWS.wav","","null","","","","","","","","","","","","","","","","","","","","","","","","","","","","","","","","","","","","","","","","","",""
"html-button-response","79","71091","0.0-4.0-1.0-1.19","2","1","vmk20zou5p8xpw9","","540","","What sound did you hear?","0","","","0","INDUCTION-JUDGMENT","left","1","","","","","","","","","","","","","","","","","","","","","","","","","","","","","","","","","","","","",""
"html-keyboard-response","80","72093","0.0-4.0-1.0-2.19","2","1","vmk20zou5p8xpw9","","null","","<p style=""color:red;""><b>Incorrect!</b></p>","","null","","","","","","","","","","","","","","","","","","","","","","","","","","","","","","","","","","","","","","","","","",""
"audio-keyboard-response","81","72896","0.0-4.0-1.0-0.20","2","1","vmk20zou5p8xpw9","","null","","sounds/induction/left/fu_SWS.wav","","null","","","","","","","","","","","","","","","","","","","","","","","","","","","","","","","","","","","","","","","","","",""
"html-button-response","82","73290","0.0-4.0-1.0-1.20","2","1","vmk20zou5p8xpw9","","393","","What sound did you hear?","0","","","0","INDUCTION-JUDGMENT","left","1","","","","","","","","","","","","","","","","","","","","","","","","","","","","","","","","","","","","",""
"html-keyboard-response","83","74292","0.0-4.0-1.0-2.20","2","1","vmk20zou5p8xpw9","","null","","<p style=""color:red;""><b>Incorrect!</b></p>","","null","","","","","","","","","","","","","","","","","","","","","","","","","","","","","","","","","","","","","","","","","",""
"audio-keyboard-response","84","75093","0.0-4.0-1.0-0.21","2","1","vmk20zou5p8xpw9","","null","","sounds/induction/left/fu_SWS.wav","","null","","","","","","","","","","","","","","","","","","","","","","","","","","","","","","","","","","","","","","","","","",""
"html-button-response","85","75783","0.0-4.0-1.0-1.21","2","1","vmk20zou5p8xpw9","","689","","What sound did you hear?","0","","","0","INDUCTION-JUDGMENT","left","1","","","","","","","","","","","","","","","","","","","","","","","","","","","","","","","","","","","","",""
"html-keyboard-response","86","76785","0.0-4.0-1.0-2.21","2","1","vmk20zou5p8xpw9","","null","","<p style=""color:red;""><b>Incorrect!</b></p>","","null","","","","","","","","","","","","","","","","","","","","","","","","","","","","","","","","","","","","","","","","","",""
"audio-keyboard-response","87","77587","0.0-4.0-1.0-0.22","2","1","vmk20zou5p8xpw9","","null","","sounds/induction/right/ko_SWS.wav","","null","","","","","","","","","","","","","","","","","","","","","","","","","","","","","","","","","","","","","","","","","",""
"html-button-response","88","78019","0.0-4.0-1.0-1.22","2","1","vmk20zou5p8xpw9","","431.00000000001455","","What sound did you hear?","0","","","1","INDUCTION-JUDGMENT","right","0","","","","","","","","","","","","","","","","","","","","","","","","","","","","","","","","","","","","",""
"html-keyboard-response","89","79022","0.0-4.0-1.0-2.22","2","1","vmk20zou5p8xpw9","","null","","<p style=""color:green;""><b>Correct!</b></p>","","null","","","","","","","","","","","","","","","","","","","","","","","","","","","","","","","","","","","","","","","","","",""
"audio-keyboard-response","90","79824","0.0-4.0-1.0-0.23","2","1","vmk20zou5p8xpw9","","null","","sounds/induction/right/ko_SWS.wav","","null","","","","","","","","","","","","","","","","","","","","","","","","","","","","","","","","","","","","","","","","","",""
"html-button-response","91","80367","0.0-4.0-1.0-1.23","2","1","vmk20zou5p8xpw9","","541","","What sound did you hear?","0","","","1","INDUCTION-JUDGMENT","right","0","","","","","","","","","","","","","","","","","","","","","","","","","","","","","","","","","","","","",""
"html-keyboard-response","92","81369","0.0-4.0-1.0-2.23","2","1","vmk20zou5p8xpw9","","null","","<p style=""color:green;""><b>Correct!</b></p>","","null","","","","","","","","","","","","","","","","","","","","","","","","","","","","","","","","","","","","","","","","","",""
"audio-keyboard-response","93","82171","0.0-4.0-1.0-0.24","2","1","vmk20zou5p8xpw9","","null","","sounds/induction/right/ta_SWS.wav","","null","","","","","","","","","","","","","","","","","","","","","","","","","","","","","","","","","","","","","","","","","",""
"html-button-response","94","82660","0.0-4.0-1.0-1.24","2","1","vmk20zou5p8xpw9","","488","","What sound did you hear?","0","","","0","INDUCTION-JUDGMENT","right","1","","","","","","","","","","","","","","","","","","","","","","","","","","","","","","","","","","","","",""
"html-keyboard-response","95","83661","0.0-4.0-1.0-2.24","2","1","vmk20zou5p8xpw9","","null","","<p style=""color:red;""><b>Incorrect!</b></p>","","null","","","","","","","","","","","","","","","","","","","","","","","","","","","","","","","","","","","","","","","","","",""
"audio-keyboard-response","96","84464","0.0-4.0-1.0-0.25","2","1","vmk20zou5p8xpw9","","null","","sounds/induction/left/ni_SWS.wav","","null","","","","","","","","","","","","","","","","","","","","","","","","","","","","","","","","","","","","","","","","","",""
"html-button-response","97","84850","0.0-4.0-1.0-1.25","2","1","vmk20zou5p8xpw9","","385","","What sound did you hear?","0","","","0","INDUCTION-JUDGMENT","left","1","","","","","","","","","","","","","","","","","","","","","","","","","","","","","","","","","","","","",""
"html-keyboard-response","98","85852","0.0-4.0-1.0-2.25","2","1","vmk20zou5p8xpw9","","null","","<p style=""color:red;""><b>Incorrect!</b></p>","","null","","","","","","","","","","","","","","","","","","","","","","","","","","","","","","","","","","","","","","","","","",""
"audio-keyboard-response","99","86654","0.0-4.0-1.0-0.26","2","1","vmk20zou5p8xpw9","","null","","sounds/induction/right/re_SWS.wav","","null","","","","","","","","","","","","","","","","","","","","","","","","","","","","","","","","","","","","","","","","","",""
"html-button-response","100","86867","0.0-4.0-1.0-1.26","2","1","vmk20zou5p8xpw9","","212","","What sound did you hear?","0","","","0","INDUCTION-JUDGMENT","right","1","","","","","","","","","","","","","","","","","","","","","","","","","","","","","","","","","","","","",""
"html-keyboard-response","101","87870","0.0-4.0-1.0-2.26","2","1","vmk20zou5p8xpw9","","null","","<p style=""color:red;""><b>Incorrect!</b></p>","","null","","","","","","","","","","","","","","","","","","","","","","","","","","","","","","","","","","","","","","","","","",""
"audio-keyboard-response","102","88672","0.0-4.0-1.0-0.27","2","1","vmk20zou5p8xpw9","","null","","sounds/induction/left/me_SWS.wav","","null","","","","","","","","","","","","","","","","","","","","","","","","","","","","","","","","","","","","","","","","","",""
"html-button-response","103","89288","0.0-4.0-1.0-1.27","2","1","vmk20zou5p8xpw9","","615","","What sound did you hear?","0","","","0","INDUCTION-JUDGMENT","left","1","","","","","","","","","","","","","","","","","","","","","","","","","","","","","","","","","","","","",""
"html-keyboard-response","104","90291","0.0-4.0-1.0-2.27","2","1","vmk20zou5p8xpw9","","null","","<p style=""color:red;""><b>Incorrect!</b></p>","","null","","","","","","","","","","","","","","","","","","","","","","","","","","","","","","","","","","","","","","","","","",""
"audio-keyboard-response","105","91093","0.0-4.0-1.0-0.28","2","1","vmk20zou5p8xpw9","","null","","sounds/induction/left/su_SWS.wav","","null","","","","","","","","","","","","","","","","","","","","","","","","","","","","","","","","","","","","","","","","","",""
"html-button-response","106","91237","0.0-4.0-1.0-1.28","2","1","vmk20zou5p8xpw9","","142","","What sound did you hear?","0","","","1","INDUCTION-JUDGMENT","left","0","","","","","","","","","","","","","","","","","","","","","","","","","","","","","","","","","","","","",""
"html-keyboard-response","107","92239","0.0-4.0-1.0-2.28","2","1","vmk20zou5p8xpw9","","null","","<p style=""color:green;""><b>Correct!</b></p>","","null","","","","","","","","","","","","","","","","","","","","","","","","","","","","","","","","","","","","","","","","","",""
"audio-keyboard-response","108","93042","0.0-4.0-1.0-0.29","2","1","vmk20zou5p8xpw9","","null","","sounds/induction/right/ta_SWS.wav","","null","","","","","","","","","","","","","","","","","","","","","","","","","","","","","","","","","","","","","","","","","",""
"html-button-response","109","93333","0.0-4.0-1.0-1.29","2","1","vmk20zou5p8xpw9","","289","","What sound did you hear?","0","","","0","INDUCTION-JUDGMENT","right","1","","","","","","","","","","","","","","","","","","","","","","","","","","","","","","","","","","","","",""
"html-keyboard-response","110","94334","0.0-4.0-1.0-2.29","2","1","vmk20zou5p8xpw9","","null","","<p style=""color:red;""><b>Incorrect!</b></p>","","null","","","","","","","","","","","","","","","","","","","","","","","","","","","","","","","","","","","","","","","","","",""
"audio-keyboard-response","111","95136","0.0-4.0-1.0-0.30","2","1","vmk20zou5p8xpw9","","null","","sounds/induction/left/ta_SWS.wav","","null","","","","","","","","","","","","","","","","","","","","","","","","","","","","","","","","","","","","","","","","","",""
"html-button-response","112","95819","0.0-4.0-1.0-1.30","2","1","vmk20zou5p8xpw9","","682","","What sound did you hear?","0","","","1","INDUCTION-JUDGMENT","left","0","","","","","","","","","","","","","","","","","","","","","","","","","","","","","","","","","","","","",""
"html-keyboard-response","113","96821","0.0-4.0-1.0-2.30","2","1","vmk20zou5p8xpw9","","null","","<p style=""color:green;""><b>Correct!</b></p>","","null","","","","","","","","","","","","","","","","","","","","","","","","","","","","","","","","","","","","","","","","","",""
"audio-keyboard-response","114","97621","0.0-4.0-1.0-0.31","2","1","vmk20zou5p8xpw9","","null","","sounds/induction/left/re_SWS.wav","","null","","","","","","","","","","","","","","","","","","","","","","","","","","","","","","","","","","","","","","","","","",""
"html-button-response","115","98483","0.0-4.0-1.0-1.31","2","1","vmk20zou5p8xpw9","","860","","What sound did you hear?","0","","","1","INDUCTION-JUDGMENT","left","0","","","","","","","","","","","","","","","","","","","","","","","","","","","","","","","","","","","","",""
"html-keyboard-response","116","99485","0.0-4.0-1.0-2.31","2","1","vmk20zou5p8xpw9","","null","","<p style=""color:green;""><b>Correct!</b></p>","","null","","","","","","","","","","","","","","","","","","","","","","","","","","","","","","","","","","","","","","","","","",""
"audio-keyboard-response","117","100288","0.0-4.0-1.0-0.32","2","1","vmk20zou5p8xpw9","","null","","sounds/induction/right/ru_SWS.wav","","null","","","","","","","","","","","","","","","","","","","","","","","","","","","","","","","","","","","","","","","","","",""
"html-button-response","118","100723","0.0-4.0-1.0-1.32","2","1","vmk20zou5p8xpw9","","435","","What sound did you hear?","0","","","0","INDUCTION-JUDGMENT","right","1","","","","","","","","","","","","","","","","","","","","","","","","","","","","","","","","","","","","",""
"html-keyboard-response","119","101725","0.0-4.0-1.0-2.32","2","1","vmk20zou5p8xpw9","","null","","<p style=""color:red;""><b>Incorrect!</b></p>","","null","","","","","","","","","","","","","","","","","","","","","","","","","","","","","","","","","","","","","","","","","",""
"audio-keyboard-response","120","102528","0.0-4.0-1.0-0.33","2","1","vmk20zou5p8xpw9","","null","","sounds/induction/right/re_SWS.wav","","null","","","","","","","","","","","","","","","","","","","","","","","","","","","","","","","","","","","","","","","","","",""
"html-button-response","121","102754","0.0-4.0-1.0-1.33","2","1","vmk20zou5p8xpw9","","225","","What sound did you hear?","0","","","0","INDUCTION-JUDGMENT","right","1","","","","","","","","","","","","","","","","","","","","","","","","","","","","","","","","","","","","",""
"html-keyboard-response","122","103756","0.0-4.0-1.0-2.33","2","1","vmk20zou5p8xpw9","","null","","<p style=""color:red;""><b>Incorrect!</b></p>","","null","","","","","","","","","","","","","","","","","","","","","","","","","","","","","","","","","","","","","","","","","",""
"audio-keyboard-response","123","104557","0.0-4.0-1.0-0.34","2","1","vmk20zou5p8xpw9","","null","","sounds/induction/left/ru_SWS.wav","","null","","","","","","","","","","","","","","","","","","","","","","","","","","","","","","","","","","","","","","","","","",""
"html-button-response","124","105007","0.0-4.0-1.0-1.34","2","1","vmk20zou5p8xpw9","","448","","What sound did you hear?","0","","","1","INDUCTION-JUDGMENT","left","0","","","","","","","","","","","","","","","","","","","","","","","","","","","","","","","","","","","","",""
"html-keyboard-response","125","106009","0.0-4.0-1.0-2.34","2","1","vmk20zou5p8xpw9","","null","","<p style=""color:green;""><b>Correct!</b></p>","","null","","","","","","","","","","","","","","","","","","","","","","","","","","","","","","","","","","","","","","","","","",""
"audio-keyboard-response","126","106810","0.0-4.0-1.0-0.35","2","1","vmk20zou5p8xpw9","","null","","sounds/induction/left/ge_SWS.wav","","null","","","","","","","","","","","","","","","","","","","","","","","","","","","","","","","","","","","","","","","","","",""
"html-button-response","127","107288","0.0-4.0-1.0-1.35","2","1","vmk20zou5p8xpw9","","477","","What sound did you hear?","0","","","0","INDUCTION-JUDGMENT","left","1","","","","","","","","","","","","","","","","","","","","","","","","","","","","","","","","","","","","",""
"html-keyboard-response","128","108290","0.0-4.0-1.0-2.35","2","1","vmk20zou5p8xpw9","","null","","<p style=""color:red;""><b>Incorrect!</b></p>","","null","","","","","","","","","","","","","","","","","","","","","","","","","","","","","","","","","","","","","","","","","",""
"audio-keyboard-response","129","109093","0.0-4.0-1.0-0.36","2","1","vmk20zou5p8xpw9","","null","","sounds/induction/right/me_SWS.wav","","null","","","","","","","","","","","","","","","","","","","","","","","","","","","","","","","","","","","","","","","","","",""
"html-button-response","130","109493","0.0-4.0-1.0-1.36","2","1","vmk20zou5p8xpw9","","399","","What sound did you hear?","0","","","1","INDUCTION-JUDGMENT","right","0","","","","","","","","","","","","","","","","","","","","","","","","","","","","","","","","","","","","",""
"html-keyboard-response","131","110495","0.0-4.0-1.0-2.36","2","1","vmk20zou5p8xpw9","","null","","<p style=""color:green;""><b>Correct!</b></p>","","null","","","","","","","","","","","","","","","","","","","","","","","","","","","","","","","","","","","","","","","","","",""
"audio-keyboard-response","132","111298","0.0-4.0-1.0-0.37","2","1","vmk20zou5p8xpw9","","null","","sounds/induction/right/ti_SWS.wav","","null","","","","","","","","","","","","","","","","","","","","","","","","","","","","","","","","","","","","","","","","","",""
"html-button-response","133","112369","0.0-4.0-1.0-1.37","2","1","vmk20zou5p8xpw9","","1071","","What sound did you hear?","0","","","0","INDUCTION-JUDGMENT","right","1","","","","","","","","","","","","","","","","","","","","","","","","","","","","","","","","","","","","",""
"html-keyboard-response","134","113372","0.0-4.0-1.0-2.37","2","1","vmk20zou5p8xpw9","","null","","<p style=""color:red;""><b>Incorrect!</b></p>","","null","","","","","","","","","","","","","","","","","","","","","","","","","","","","","","","","","","","","","","","","","",""
"audio-keyboard-response","135","114173","0.0-4.0-1.0-0.38","2","1","vmk20zou5p8xpw9","","null","","sounds/induction/right/pu_SWS.wav","","null","","","","","","","","","","","","","","","","","","","","","","","","","","","","","","","","","","","","","","","","","",""
"html-button-response","136","114609","0.0-4.0-1.0-1.38","2","1","vmk20zou5p8xpw9","","435","","What sound did you hear?","0","","","0","INDUCTION-JUDGMENT","right","1","","","","","","","","","","","","","","","","","","","","","","","","","","","","","","","","","","","","",""
"html-keyboard-response","137","115611","0.0-4.0-1.0-2.38","2","1","vmk20zou5p8xpw9","","null","","<p style=""color:red;""><b>Incorrect!</b></p>","","null","","","","","","","","","","","","","","","","","","","","","","","","","","","","","","","","","","","","","","","","","",""
"audio-keyboard-response","138","116413","0.0-4.0-1.0-0.39","2","1","vmk20zou5p8xpw9","","null","","sounds/induction/right/pu_SWS.wav","","null","","","","","","","","","","","","","","","","","","","","","","","","","","","","","","","","","","","","","","","","","",""
"html-button-response","139","117390","0.0-4.0-1.0-1.39","2","1","vmk20zou5p8xpw9","","976","","What sound did you hear?","0","","","0","INDUCTION-JUDGMENT","right","1","","","","","","","","","","","","","","","","","","","","","","","","","","","","","","","","","","","","",""
"html-keyboard-response","140","118392","0.0-4.0-1.0-2.39","2","1","vmk20zou5p8xpw9","","null","","<p style=""color:red;""><b>Incorrect!</b></p>","","null","","","","","","","","","","","","","","","","","","","","","","","","","","","","","","","","","","","","","","","","","",""
"audio-keyboard-response","141","119194","0.0-4.0-1.0-0.40","2","1","vmk20zou5p8xpw9","","null","","sounds/induction/left/ge_SWS.wav","","null","","","","","","","","","","","","","","","","","","","","","","","","","","","","","","","","","","","","","","","","","",""
"html-button-response","142","119449","0.0-4.0-1.0-1.40","2","1","vmk20zou5p8xpw9","","252.99999999998545","","What sound did you hear?","0","","","0","INDUCTION-JUDGMENT","left","1","","","","","","","","","","","","","","","","","","","","","","","","","","","","","","","","","","","","",""
"html-keyboard-response","143","120451","0.0-4.0-1.0-2.40","2","1","vmk20zou5p8xpw9","","null","","<p style=""color:red;""><b>Incorrect!</b></p>","","null","","","","","","","","","","","","","","","","","","","","","","","","","","","","","","","","","","","","","","","","","",""
"audio-keyboard-response","144","121253","0.0-4.0-1.0-0.41","2","1","vmk20zou5p8xpw9","","null","","sounds/induction/left/fe_SWS.wav","","null","","","","","","","","","","","","","","","","","","","","","","","","","","","","","","","","","","","","","","","","","",""
"html-button-response","145","121696","0.0-4.0-1.0-1.41","2","1","vmk20zou5p8xpw9","","442","","What sound did you hear?","0","","","0","INDUCTION-JUDGMENT","left","1","","","","","","","","","","","","","","","","","","","","","","","","","","","","","","","","","","","","",""
"html-keyboard-response","146","122698","0.0-4.0-1.0-2.41","2","1","vmk20zou5p8xpw9","","null","","<p style=""color:red;""><b>Incorrect!</b></p>","","null","","","","","","","","","","","","","","","","","","","","","","","","","","","","","","","","","","","","","","","","","",""
"audio-keyboard-response","147","123501","0.0-4.0-1.0-0.42","2","1","vmk20zou5p8xpw9","","null","","sounds/induction/right/fu_SWS.wav","","null","","","","","","","","","","","","","","","","","","","","","","","","","","","","","","","","","","","","","","","","","",""
"html-button-response","148","124115","0.0-4.0-1.0-1.42","2","1","vmk20zou5p8xpw9","","613.9999999999709","","What sound did you hear?","0","","","1","INDUCTION-JUDGMENT","right","0","","","","","","","","","","","","","","","","","","","","","","","","","","","","","","","","","","","","",""
"html-keyboard-response","149","125118","0.0-4.0-1.0-2.42","2","1","vmk20zou5p8xpw9","","null","","<p style=""color:green;""><b>Correct!</b></p>","","null","","","","","","","","","","","","","","","","","","","","","","","","","","","","","","","","","","","","","","","","","",""
"audio-keyboard-response","150","125919","0.0-4.0-1.0-0.43","2","1","vmk20zou5p8xpw9","","null","","sounds/induction/left/ti_SWS.wav","","null","","","","","","","","","","","","","","","","","","","","","","","","","","","","","","","","","","","","","","","","","",""
"html-button-response","151","126419","0.0-4.0-1.0-1.43","2","1","vmk20zou5p8xpw9","","499","","What sound did you hear?","0","","","1","INDUCTION-JUDGMENT","left","0","","","","","","","","","","","","","","","","","","","","","","","","","","","","","","","","","","","","",""
"html-keyboard-response","152","127421","0.0-4.0-1.0-2.43","2","1","vmk20zou5p8xpw9","","null","","<p style=""color:green;""><b>Correct!</b></p>","","null","","","","","","","","","","","","","","","","","","","","","","","","","","","","","","","","","","","","","","","","","",""
"audio-keyboard-response","153","128223","0.0-4.0-1.0-0.44","2","1","vmk20zou5p8xpw9","","null","","sounds/induction/right/su_SWS.wav","","null","","","","","","","","","","","","","","","","","","","","","","","","","","","","","","","","","","","","","","","","","",""
"html-button-response","154","128397","0.0-4.0-1.0-1.44","2","1","vmk20zou5p8xpw9","","173","","What sound did you hear?","0","","","0","INDUCTION-JUDGMENT","right","1","","","","","","","","","","","","","","","","","","","","","","","","","","","","","","","","","","","","",""
"html-keyboard-response","155","129399","0.0-4.0-1.0-2.44","2","1","vmk20zou5p8xpw9","","null","","<p style=""color:red;""><b>Incorrect!</b></p>","","null","","","","","","","","","","","","","","","","","","","","","","","","","","","","","","","","","","","","","","","","","",""
"audio-keyboard-response","156","130202","0.0-4.0-1.0-0.45","2","1","vmk20zou5p8xpw9","","null","","sounds/induction/right/fu_SWS.wav","","null","","","","","","","","","","","","","","","","","","","","","","","","","","","","","","","","","","","","","","","","","",""
"html-button-response","157","130653","0.0-4.0-1.0-1.45","2","1","vmk20zou5p8xpw9","","449.9999999999709","","What sound did you hear?","0","","","1","INDUCTION-JUDGMENT","right","0","","","","","","","","","","","","","","","","","","","","","","","","","","","","","","","","","","","","",""
"html-keyboard-response","158","131655","0.0-4.0-1.0-2.45","2","1","vmk20zou5p8xpw9","","null","","<p style=""color:green;""><b>Correct!</b></p>","","null","","","","","","","","","","","","","","","","","","","","","","","","","","","","","","","","","","","","","","","","","",""
"audio-keyboard-response","159","132458","0.0-4.0-1.0-0.46","2","1","vmk20zou5p8xpw9","","null","","sounds/induction/left/su_SWS.wav","","null","","","","","","","","","","","","","","","","","","","","","","","","","","","","","","","","","","","","","","","","","",""
"html-button-response","160","133155","0.0-4.0-1.0-1.46","2","1","vmk20zou5p8xpw9","","695.9999999999709","","What sound did you hear?","0","","","1","INDUCTION-JUDGMENT","left","0","","","","","","","","","","","","","","","","","","","","","","","","","","","","","","","","","","","","",""
"html-keyboard-response","161","134157","0.0-4.0-1.0-2.46","2","1","vmk20zou5p8xpw9","","null","","<p style=""color:green;""><b>Correct!</b></p>","","null","","","","","","","","","","","","","","","","","","","","","","","","","","","","","","","","","","","","","","","","","",""
"audio-keyboard-response","162","134959","0.0-4.0-1.0-0.47","2","1","vmk20zou5p8xpw9","","null","","sounds/induction/right/ni_SWS.wav","","null","","","","","","","","","","","","","","","","","","","","","","","","","","","","","","","","","","","","","","","","","",""
"html-button-response","163","136153","0.0-4.0-1.0-1.47","2","1","vmk20zou5p8xpw9","","1193","","What sound did you hear?","0","","","1","INDUCTION-JUDGMENT","right","0","","","","","","","","","","","","","","","","","","","","","","","","","","","","","","","","","","","","",""
"html-keyboard-response","164","137155","0.0-4.0-1.0-2.47","2","1","vmk20zou5p8xpw9","","null","","<p style=""color:green;""><b>Correct!</b></p>","","null","","","","","","","","","","","","","","","","","","","","","","","","","","","","","","","","","","","","","","","","","",""
"html-button-response","165","141039","0.0-5.0-0.0","2","1","vmk20zou5p8xpw9","","3381","","<p>Thank you for your answers.</p><p>You will now listen to similar sounds. The main difference is that the sounds will be longer and will make up complete sentences.</p><p>Please listen carefully to each sentence. After each sentence, you will be asked to type back what you heard to the best of your ability. After you provide your response, you will be given feedback about the correct answer.</p><p>There are 10 sentences in total.","0","","","","","","","","","","","","","","","","","","","","","","","","","","","","","","","","","","","","","","","","","","",""
"audio-keyboard-response","166","143858","0.0-5.0-1.0-0.0","2","1","vmk20zou5p8xpw9","","null","","sounds/sentences/left/14_02_cfSWS.wav","","null","","","","","","","","","","","","","","","","","","","","","","","","","","","","","","","","","","","","","","","","","",""
"sentence-resp","167","162568","0.0-5.0-1.0-1.0","2","1","vmk20zou5p8xpw9","","18707","","","","","","","SWS-SENT-RESPONSE","","","{""Q0"":""Is he going to the party next week ""}","He said the same phrase thirty times.","said,same,phrase,thirty,times","IS HE GOING TO THE PARTY NEXT WEEK ","0","0","0","0","0","0","0","","","","","","","","","","","","","","","","","","","","","","","","","",""
"html-keyboard-response","168","163823","0.0-5.0-1.0-2.0","2","1","vmk20zou5p8xpw9","","null","","","","null","","","","","","","","","","","","","","","","","","","","","","","","","","","","","","","","","","","","","","","","","",""
"audio-keyboard-response","169","166140","0.0-5.0-1.0-3.0","2","1","vmk20zou5p8xpw9","","null","","sounds/sentences/left/14_02_cfSWS.wav","","null","","","","","","","","","","","","","","","","","","","","","","","","","","","","","","","","","","","","","","","","","",""
"html-keyboard-response","170","167142","0.0-5.0-1.0-4.0","2","1","vmk20zou5p8xpw9","","null","","","","null","","","","","","","","","","","","","","","","","","","","","","","","","","","","","","","","","","","","","","","","","",""
"html-button-response","171","168747","0.0-5.0-1.0-5.0","2","1","vmk20zou5p8xpw9","","1103","","<p>Press the button below when you are ready to continue.</p>","0","","","","","","","","","","","","","","","","","","","","","","","","","","","","","","","","","","","","","","","","","","",""
"audio-keyboard-response","172","171473","0.0-5.0-1.0-0.1","2","1","vmk20zou5p8xpw9","","null","","sounds/sentences/right/14_09_cfSWS.wav","","null","","","","","","","","","","","","","","","","","","","","","","","","","","","","","","","","","","","","","","","","","",""
"sentence-resp","173","189270","0.0-5.0-1.0-1.1","2","1","vmk20zou5p8xpw9","","17794","","","","","","","SWS-SENT-RESPONSE","","","{""Q0"":""what ""}","We frown when events take a bad turn.","frown,events,take,bad,turn","WHAT ","0","0","0","0","0","0","0","","","","","","","","","","","","","","","","","","","","","","","","","",""
"html-keyboard-response","174","190524","0.0-5.0-1.0-2.1","2","1","vmk20zou5p8xpw9","","null","","","","null","","","","","","","","","","","","","","","","","","","","","","","","","","","","","","","","","","","","","","","","","",""
"audio-keyboard-response","175","192750","0.0-5.0-1.0-3.1","2","1","vmk20zou5p8xpw9","","null","","sounds/sentences/right/14_09_cfSWS.wav","","null","","","","","","","","","","","","","","","","","","","","","","","","","","","","","","","","","","","","","","","","","",""
"html-keyboard-response","176","193753","0.0-5.0-1.0-4.1","2","1","vmk20zou5p8xpw9","","null","","","","null","","","","","","","","","","","","","","","","","","","","","","","","","","","","","","","","","","","","","","","","","",""
"html-button-response","177","207832","0.0-5.0-1.0-5.1","2","1","vmk20zou5p8xpw9","","13577.99999999997","","<p>Press the button below when you are ready to continue.</p>","0","","","","","","","","","","","","","","","","","","","","","","","","","","","","","","","","","","","","","","","","","","",""
"audio-keyboard-response","178","210417","0.0-5.0-1.0-0.2","2","1","vmk20zou5p8xpw9","","null","","sounds/sentences/left/14_03_cfSWS.wav","","null","","","","","","","","","","","","","","","","","","","","","","","","","","","","","","","","","","","","","","","","","",""
"sentence-resp","179","226503","0.0-5.0-1.0-1.2","2","1","vmk20zou5p8xpw9","","16085","","","","","","","SWS-SENT-RESPONSE","","","{""Q0"":""can you go get the roses please ""}","Pluck the bright rose without leaves.","pluck,bright,rose,without,leaves","CAN YOU GO GET THE ROSES PLEASE ","0","0","0","0","0","0","0","","","","","","","","","","","","","","","","","","","","","","","","","",""
"html-keyboard-response","180","227756","0.0-5.0-1.0-2.2","2","1","vmk20zou5p8xpw9","","null","","","","null","","","","","","","","","","","","","","","","","","","","","","","","","","","","","","","","","","","","","","","","","",""
"audio-keyboard-response","181","229838","0.0-5.0-1.0-3.2","2","1","vmk20zou5p8xpw9","","null","","sounds/sentences/left/14_03_cfSWS.wav","","null","","","","","","","","","","","","","","","","","","","","","","","","","","","","","","","","","","","","","","","","","",""
"html-keyboard-response","182","230840","0.0-5.0-1.0-4.2","2","1","vmk20zou5p8xpw9","","null","","","","null","","","","","","","","","","","","","","","","","","","","","","","","","","","","","","","","","","","","","","","","","",""
"html-button-response","183","238097","0.0-5.0-1.0-5.2","2","1","vmk20zou5p8xpw9","","6754.999999999971","","<p>Press the button below when you are ready to continue.</p>","0","","","","","","","","","","","","","","","","","","","","","","","","","","","","","","","","","","","","","","","","","","",""
"audio-keyboard-response","184","240651","0.0-5.0-1.0-0.3","2","1","vmk20zou5p8xpw9","","null","","sounds/sentences/left/14_04_cfSWS.wav","","null","","","","","","","","","","","","","","","","","","","","","","","","","","","","","","","","","","","","","","","","","",""
"sentence-resp","185","254212","0.0-5.0-1.0-1.3","2","1","vmk20zou5p8xpw9","","13559","","","","","","","SWS-SENT-RESPONSE","","","{""Q0"":""you are less than me ""}","Two plus seven is less than ten.","two,plus,seven,less,ten","YOU ARE LESS THAN ME ","0","0","0","1","0","1","0.2","","","","","","","","","","","","","","","","","","","","","","","","","",""
"html-keyboard-response","186","255465","0.0-5.0-1.0-2.3","2","1","vmk20zou5p8xpw9","","null","","","","null","","","","","","","","","","","","","","","","","","","","","","","","","","","","","","","","","","","","","","","","","",""
"audio-keyboard-response","187","257517","0.0-5.0-1.0-3.3","2","1","vmk20zou5p8xpw9","","null","","sounds/sentences/left/14_04_cfSWS.wav","","null","","","","","","","","","","","","","","","","","","","","","","","","","","","","","","","","","","","","","","","","","",""
"html-keyboard-response","188","258520","0.0-5.0-1.0-4.3","2","1","vmk20zou5p8xpw9","","null","","","","null","","","","","","","","","","","","","","","","","","","","","","","","","","","","","","","","","","","","","","","","","",""
"html-button-response","189","265166","0.0-5.0-1.0-5.3","2","1","vmk20zou5p8xpw9","","6143.999999999942","","<p>Press the button below when you are ready to continue.</p>","0","","","","","","","","","","","","","","","","","","","","","","","","","","","","","","","","","","","","","","","","","","",""
"audio-keyboard-response","190","268056","0.0-5.0-1.0-0.4","2","1","vmk20zou5p8xpw9","","null","","sounds/sentences/right/14_07_cfSWS.wav","","null","","","","","","","","","","","","","","","","","","","","","","","","","","","","","","","","","","","","","","","","","",""
"sentence-resp","191","294445","0.0-5.0-1.0-1.4","2","1","vmk20zou5p8xpw9","","26388","","","","","","","SWS-SENT-RESPONSE","","","{""Q0"":""they are the friends cherish ""}","Write a fond note to the friend you cherish.","write,fond,note,friend,cherish","THEY ARE THE FRIENDS CHERISH ","0","0","0","0","1","1","0.2","","","","","","","","","","","","","","","","","","","","","","","","","",""
"html-keyboard-response","192","295698","0.0-5.0-1.0-2.4","2","1","vmk20zou5p8xpw9","","null","","","","null","","","","","","","","","","","","","","","","","","","","","","","","","","","","","","","","","","","","","","","","","",""
"audio-keyboard-response","193","298087","0.0-5.0-1.0-3.4","2","1","vmk20zou5p8xpw9","","null","","sounds/sentences/right/14_07_cfSWS.wav","","null","","","","","","","","","","","","","","","","","","","","","","","","","","","","","","","","","","","","","","","","","",""
"html-keyboard-response","194","299089","0.0-5.0-1.0-4.4","2","1","vmk20zou5p8xpw9","","null","","","","null","","","","","","","","","","","","","","","","","","","","","","","","","","","","","","","","","","","","","","","","","",""
"html-button-response","195","304073","0.0-5.0-1.0-5.4","2","1","vmk20zou5p8xpw9","","4482","","<p>Press the button below when you are ready to continue.</p>","0","","","","","","","","","","","","","","","","","","","","","","","","","","","","","","","","","","","","","","","","","","",""
"audio-keyboard-response","196","307191","0.0-5.0-1.0-0.5","2","1","vmk20zou5p8xpw9","","null","","sounds/sentences/left/14_01_cfSWS.wav","","null","","","","","","","","","","","","","","","","","","","","","","","","","","","","","","","","","","","","","","","","","",""
"sentence-resp","197","332686","0.0-5.0-1.0-1.5","2","1","vmk20zou5p8xpw9","","25493","","","","","","","SWS-SENT-RESPONSE","","","{""Q0"":""cramps are not a small danger on the swim ""}","A cramp is no small danger on a swim.","cramp,no,small,danger,swim","CRAMPS ARE NOT A SMALL DANGER ON THE SWIM ","0","0","1","1","1","3","0.6","","","","","","","","","","","","","","","","","","","","","","","","","",""
"html-keyboard-response","198","333939","0.0-5.0-1.0-2.5","2","1","vmk20zou5p8xpw9","","null","","","","null","","","","","","","","","","","","","","","","","","","","","","","","","","","","","","","","","","","","","","","","","",""
"audio-keyboard-response","199","336556","0.0-5.0-1.0-3.5","2","1","vmk20zou5p8xpw9","","null","","sounds/sentences/left/14_01_cfSWS.wav","","null","","","","","","","","","","","","","","","","","","","","","","","","","","","","","","","","","","","","","","","","","",""
"html-keyboard-response","200","337558","0.0-5.0-1.0-4.5","2","1","vmk20zou5p8xpw9","","null","","","","null","","","","","","","","","","","","","","","","","","","","","","","","","","","","","","","","","","","","","","","","","",""
"html-button-response","201","341732","0.0-5.0-1.0-5.5","2","1","vmk20zou5p8xpw9","","3672","","<p>Press the button below when you are ready to continue.</p>","0","","","","","","","","","","","","","","","","","","","","","","","","","","","","","","","","","","","","","","","","","","",""
"audio-keyboard-response","202","344748","0.0-5.0-1.0-0.6","2","1","vmk20zou5p8xpw9","","null","","sounds/sentences/right/14_10_cfSWS.wav","","null","","","","","","","","","","","","","","","","","","","","","","","","","","","","","","","","","","","","","","","","","",""
"sentence-resp","203","362822","0.0-5.0-1.0-1.6","2","1","vmk20zou5p8xpw9","","18073","","","","","","","SWS-SENT-RESPONSE","","","{""Q0"":""wine smokey chain ""}","Port is a strong wine with a smoky taste.","port,strong,wine,smoky,taste","WINE SMOKEY CHAIN ","0","0","1","0","0","1","0.2","","","","","","","","","","","","","","","","","","","","","","","","","",""
"html-keyboard-response","204","364075","0.0-5.0-1.0-2.6","2","1","vmk20zou5p8xpw9","","null","","","","null","","","","","","","","","","","","","","","","","","","","","","","","","","","","","","","","","","","","","","","","","",""
"audio-keyboard-response","205","366590","0.0-5.0-1.0-3.6","2","1","vmk20zou5p8xpw9","","null","","sounds/sentences/right/14_10_cfSWS.wav","","null","","","","","","","","","","","","","","","","","","","","","","","","","","","","","","","","","","","","","","","","","",""
"html-keyboard-response","206","367592","0.0-5.0-1.0-4.6","2","1","vmk20zou5p8xpw9","","null","","","","null","","","","","","","","","","","","","","","","","","","","","","","","","","","","","","","","","","","","","","","","","",""
"html-button-response","207","373749","0.0-5.0-1.0-5.6","2","1","vmk20zou5p8xpw9","","5653.999999999942","","<p>Press the button below when you are ready to continue.</p>","0","","","","","","","","","","","","","","","","","","","","","","","","","","","","","","","","","","","","","","","","","","",""
"audio-keyboard-response","208","376737","0.0-5.0-1.0-0.7","2","1","vmk20zou5p8xpw9","","null","","sounds/sentences/left/14_05_cfSWS.wav","","null","","","","","","","","","","","","","","","","","","","","","","","","","","","","","","","","","","","","","","","","","",""
"sentence-resp","209","389629","0.0-5.0-1.0-1.7","2","1","vmk20zou5p8xpw9","","12891","","","","","","","SWS-SENT-RESPONSE","","","{""Q0"":""with her eyes she's a sweet girl ""}","The glow deepened in the eyes of the sweet girl.","glow,deepened,eyes,sweet,girl","WITH HER EYES SHE'S A SWEET GIRL ","0","0","1","1","1","3","0.6","","","","","","","","","","","","","","","","","","","","","","","","","",""
"html-keyboard-response","210","390882","0.0-5.0-1.0-2.7","2","1","vmk20zou5p8xpw9","","null","","","","null","","","","","","","","","","","","","","","","","","","","","","","","","","","","","","","","","","","","","","","","","",""
"audio-keyboard-response","211","393369","0.0-5.0-1.0-3.7","2","1","vmk20zou5p8xpw9","","null","","sounds/sentences/left/14_05_cfSWS.wav","","null","","","","","","","","","","","","","","","","","","","","","","","","","","","","","","","","","","","","","","","","","",""
"html-keyboard-response","212","394371","0.0-5.0-1.0-4.7","2","1","vmk20zou5p8xpw9","","null","","","","null","","","","","","","","","","","","","","","","","","","","","","","","","","","","","","","","","","","","","","","","","",""
"html-button-response","213","399847","0.0-5.0-1.0-5.7","2","1","vmk20zou5p8xpw9","","4974","","<p>Press the button below when you are ready to continue.</p>","0","","","","","","","","","","","","","","","","","","","","","","","","","","","","","","","","","","","","","","","","","","",""
"audio-keyboard-response","214","402590","0.0-5.0-1.0-0.8","2","1","vmk20zou5p8xpw9","","null","","sounds/sentences/right/14_06_cfSWS.wav","","null","","","","","","","","","","","","","","","","","","","","","","","","","","","","","","","","","","","","","","","","","",""
"sentence-resp","215","415309","0.0-5.0-1.0-1.8","2","1","vmk20zou5p8xpw9","","12718","","","","","","","SWS-SENT-RESPONSE","","","{""Q0"":""take your problems vice chief ""}","Bring your problems to the wise chief.","bring,your,problems,wise,chief","TAKE YOUR PROBLEMS VICE CHIEF ","0","1","1","0","1","3","0.6","","","","","","","","","","","","","","","","","","","","","","","","","",""
"html-keyboard-response","216","416562","0.0-5.0-1.0-2.8","2","1","vmk20zou5p8xpw9","","null","","","","null","","","","","","","","","","","","","","","","","","","","","","","","","","","","","","","","","","","","","","","","","",""
"audio-keyboard-response","217","418803","0.0-5.0-1.0-3.8","2","1","vmk20zou5p8xpw9","","null","","sounds/sentences/right/14_06_cfSWS.wav","","null","","","","","","","","","","","","","","","","","","","","","","","","","","","","","","","","","","","","","","","","","",""
"html-keyboard-response","218","419805","0.0-5.0-1.0-4.8","2","1","vmk20zou5p8xpw9","","null","","","","null","","","","","","","","","","","","","","","","","","","","","","","","","","","","","","","","","","","","","","","","","",""
"html-button-response","219","423785","0.0-5.0-1.0-5.8","2","1","vmk20zou5p8xpw9","","3478.000000000058","","<p>Press the button below when you are ready to continue.</p>","0","","","","","","","","","","","","","","","","","","","","","","","","","","","","","","","","","","","","","","","","","","",""
"audio-keyboard-response","220","426541","0.0-5.0-1.0-0.9","2","1","vmk20zou5p8xpw9","","null","","sounds/sentences/right/14_08_cfSWS.wav","","null","","","","","","","","","","","","","","","","","","","","","","","","","","","","","","","","","","","","","","","","","",""
"sentence-resp","221","435790","0.0-5.0-1.0-1.9","2","1","vmk20zou5p8xpw9","","9247","","","","","","","SWS-SENT-RESPONSE","","","{""Q0"":""hello my name is human ""}","Clothes and lodging are free to new men.","clothes,lodging,free,new,men","HELLO MY NAME IS HUMAN ","0","0","0","0","0","0","0","","","","","","","","","","","","","","","","","","","","","","","","","",""
"html-keyboard-response","222","437043","0.0-5.0-1.0-2.9","2","1","vmk20zou5p8xpw9","","null","","","","null","","","","","","","","","","","","","","","","","","","","","","","","","","","","","","","","","","","","","","","","","",""
"audio-keyboard-response","223","439298","0.0-5.0-1.0-3.9","2","1","vmk20zou5p8xpw9","","null","","sounds/sentences/right/14_08_cfSWS.wav","","null","","","","","","","","","","","","","","","","","","","","","","","","","","","","","","","","","","","","","","","","","",""
"html-keyboard-response","224","440301","0.0-5.0-1.0-4.9","2","1","vmk20zou5p8xpw9","","null","","","","null","","","","","","","","","","","","","","","","","","","","","","","","","","","","","","","","","","","","","","","","","",""
"html-button-response","225","445590","0.0-5.0-1.0-5.9","2","1","vmk20zou5p8xpw9","","4787","","<p>Press the button below when you are ready to continue.</p>","0","","","","","","","","","","","","","","","","","","","","","","","","","","","","","","","","","","","","","","","","","","",""
"html-keyboard-response","226","475888","0.0-6.0-0.0","2","1","vmk20zou5p8xpw9","","29796.99999999994","","<p>In this part of the study, you will hear sounds similar to those you just heard.</p><p>Please focus on these sounds, as you may be asked questions about them later.</p><p>Occasionally, the sounds will pause for up to two seconds. When this happens, please press SPACEBAR as quickly as you can.</br>This helps ensure that you are paying attention to the sounds.</p><p>This part of the study will take about 12 minutes to complete, and you will be given the opportunity to take a couple of short breaks every few minutes.</p><p><strong>Press SPACEBAR to begin</strong></p>","","32","","","","","","","","","","","","","","","","","","","","","","","","","","","","","","","","","","","","","","","","","",""
"html-keyboard-response","227","476890","0.0-6.0-1.0-0.0","2","1","vmk20zou5p8xpw9","","null","","<p style=""font-size: 40px;"">+</p>","","null","","","","","","","","","","","","","","","","","","","","","","","","","","","","","","","","","","","","","","","","","",""
"html-keyboard-response","228","688246","0.0-6.0-1.0-1.0","2","1","vmk20zou5p8xpw9","","null","","","","null","","","SL-TRAIN","","","","","","","","","","","","","","2","null","null","sounds/B/TRAIN/SEQ__05.mp3","15","","","","","","","","","","","","","","","","","","","","",""
"html-button-response","229","817711","0.0-6.0-1.0-2.0","2","1","vmk20zou5p8xpw9","","129460","","<p>You may take a short break if you wish.</p>","0","","","","","","","","","","","","","","","","","","","","","","","","","","","","","","","","","","","","","","","","","","",""
"html-keyboard-response","230","818714","0.0-6.0-1.0-3.0","2","1","vmk20zou5p8xpw9","","null","","<p style=""font-size: 40px;"">+</p>","","null","","","","","","","","","","","","","","","","","","","","","","","","","","","","","","","","","","","","","","","","","",""
"html-keyboard-response","231","1003710","0.0-6.0-1.0-4.0","2","1","vmk20zou5p8xpw9","","null","","","","null","","","SL-TRAIN","","","","","","","","","","","","","","2","null","null","sounds/B/TRAIN/SEQ__01.mp3","12","","","","","","","","","","","","","","","","","","","","",""
"html-button-response","232","1009312","0.0-6.0-1.0-5.0","2","1","vmk20zou5p8xpw9","","5600","","<p>You may take a short break if you wish.</p>","0","","","","","","","","","","","","","","","","","","","","","","","","","","","","","","","","","","","","","","","","","","",""
"html-keyboard-response","233","1010313","0.0-6.0-1.0-6.0","2","1","vmk20zou5p8xpw9","","null","","<p style=""font-size: 40px;"">+</p>","","null","","","","","","","","","","","","","","","","","","","","","","","","","","","","","","","","","","","","","","","","","",""
"html-keyboard-response","234","1195309","0.0-6.0-1.0-7.0","2","1","vmk20zou5p8xpw9","","null","","","","null","","","SL-TRAIN","","","","","","","","","","","","","","2","null","null","sounds/B/TRAIN/SEQ__06.mp3","3","","","","","","","","","","","","","","","","","","","","",""
"html-button-response","235","1199044","0.0-6.0-1.0-8.0","2","1","vmk20zou5p8xpw9","","3733","","<p>You may take a short break if you wish.</p>","0","","","","","","","","","","","","","","","","","","","","","","","","","","","","","","","","","","","","","","","","","","",""
"html-keyboard-response","236","1200047","0.0-6.0-1.0-9.0","2","1","vmk20zou5p8xpw9","","null","","<p style=""font-size: 40px;"">+</p>","","null","","","","","","","","","","","","","","","","","","","","","","","","","","","","","","","","","","","","","","","","","",""
"html-keyboard-response","237","1385043","0.0-6.0-1.0-10.0","2","1","vmk20zou5p8xpw9","","null","","","","null","","","SL-TRAIN","","","","","","","","","","","","","","2","null","null","sounds/B/TRAIN/SEQ__09.mp3","31","","","","","","","","","","","","","","","","","","","","",""
"html-button-response","238","1388434","0.0-6.0-1.0-11.0","2","1","vmk20zou5p8xpw9","","3389.000000000233","","<p>You may take a short break if you wish.</p>","0","","","","","","","","","","","","","","","","","","","","","","","","","","","","","","","","","","","","","","","","","","",""
"html-button-response","239","1455447","0.0-7.0-0.0","2","1","vmk20zou5p8xpw9","","67014","","<p>Welcome to the second part of the study. This is a <u>familiarity task</u>.</p><p>You will now hear short sounds and will be asked to rate how familiar they sound to you <b>based on what you heard in the previous part of the study</b>.</p><p>You will rate 12 sounds in total.</p>","0","","","","","","","","","","","","","","","","","","","","","","","","","","","","","","","","","","","","","","","","","","",""
"html-keyboard-response","240","1456449","0.0-7.0-1.0-0.0","2","1","vmk20zou5p8xpw9","","null","","","","null","","","","","","","","","","","","","","","","","","","","","","","","","","","","","","","","","","","","","","","","","",""
"audio-keyboard-response","241","1457389","0.0-7.0-1.0-1.0","2","1","vmk20zou5p8xpw9","","null","","sounds/B/FAM/N002.mp3","","null","","","","","","","","","","","","","","","","","","","","","","","","","","","","","","","","","","","","","","","","","",""
"html-keyboard-response","242","1463684","0.0-7.0-1.0-2.0","2","1","vmk20zou5p8xpw9","","5793","","<p>How familiar did this sound to you?</p><p>1&nbsp;&nbsp;&nbsp;&nbsp;&nbsp;&nbsp;&nbsp;&nbsp;&nbsp;&nbsp;&nbsp;&nbsp;&nbsp;&nbsp;&nbsp;&nbsp;&nbsp;&nbsp;&nbsp;2&nbsp;&nbsp;&nbsp;&nbsp;&nbsp;&nbsp;&nbsp;&nbsp;&nbsp;&nbsp;&nbsp;&nbsp;&nbsp;&nbsp;&nbsp;&nbsp;&nbsp;&nbsp;&nbsp;3&nbsp;&nbsp;&nbsp;&nbsp;&nbsp;&nbsp;&nbsp;&nbsp;&nbsp;&nbsp;&nbsp;&nbsp;&nbsp;&nbsp;&nbsp;&nbsp;&nbsp;&nbsp;&nbsp;4</p><p style=""font-size:14px"">Not at all familiar&nbsp;&nbsp;&nbsp;&nbsp;A little familiar&nbsp;&nbsp;&nbsp;Moderately familiar&nbsp;&nbsp;&nbsp;Extremely familiar</p><p>(press the corresponding number on your keyboard)</p>","","52","","","FAM-RESPONSE","","","","","","","","","","","","","","","","","","","sounds/B/FAM/N002.mp3","nonword","","","","","","","","","","","","","","","","","","",""
"html-keyboard-response","243","1465687","0.0-7.0-1.0-0.1","2","1","vmk20zou5p8xpw9","","null","","","","null","","","","","","","","","","","","","","","","","","","","","","","","","","","","","","","","","","","","","","","","","",""
"audio-keyboard-response","244","1466629","0.0-7.0-1.0-1.1","2","1","vmk20zou5p8xpw9","","null","","sounds/B/FAM/P003.mp3","","null","","","","","","","","","","","","","","","","","","","","","","","","","","","","","","","","","","","","","","","","","",""
"html-keyboard-response","245","1469513","0.0-7.0-1.0-2.1","2","1","vmk20zou5p8xpw9","","2381","","<p>How familiar did this sound to you?</p><p>1&nbsp;&nbsp;&nbsp;&nbsp;&nbsp;&nbsp;&nbsp;&nbsp;&nbsp;&nbsp;&nbsp;&nbsp;&nbsp;&nbsp;&nbsp;&nbsp;&nbsp;&nbsp;&nbsp;2&nbsp;&nbsp;&nbsp;&nbsp;&nbsp;&nbsp;&nbsp;&nbsp;&nbsp;&nbsp;&nbsp;&nbsp;&nbsp;&nbsp;&nbsp;&nbsp;&nbsp;&nbsp;&nbsp;3&nbsp;&nbsp;&nbsp;&nbsp;&nbsp;&nbsp;&nbsp;&nbsp;&nbsp;&nbsp;&nbsp;&nbsp;&nbsp;&nbsp;&nbsp;&nbsp;&nbsp;&nbsp;&nbsp;4</p><p style=""font-size:14px"">Not at all familiar&nbsp;&nbsp;&nbsp;&nbsp;A little familiar&nbsp;&nbsp;&nbsp;Moderately familiar&nbsp;&nbsp;&nbsp;Extremely familiar</p><p>(press the corresponding number on your keyboard)</p>","","50","","","FAM-RESPONSE","","","","","","","","","","","","","","","","","","","sounds/B/FAM/P003.mp3","partword","","","","","","","","","","","","","","","","","","",""
"html-keyboard-response","246","1471516","0.0-7.0-1.0-0.2","2","1","vmk20zou5p8xpw9","","null","","","","null","","","","","","","","","","","","","","","","","","","","","","","","","","","","","","","","","","","","","","","","","",""
"audio-keyboard-response","247","1472459","0.0-7.0-1.0-1.2","2","1","vmk20zou5p8xpw9","","null","","sounds/B/FAM/N004.mp3","","null","","","","","","","","","","","","","","","","","","","","","","","","","","","","","","","","","","","","","","","","","",""
"html-keyboard-response","248","1474678","0.0-7.0-1.0-2.2","2","1","vmk20zou5p8xpw9","","1717","","<p>How familiar did this sound to you?</p><p>1&nbsp;&nbsp;&nbsp;&nbsp;&nbsp;&nbsp;&nbsp;&nbsp;&nbsp;&nbsp;&nbsp;&nbsp;&nbsp;&nbsp;&nbsp;&nbsp;&nbsp;&nbsp;&nbsp;2&nbsp;&nbsp;&nbsp;&nbsp;&nbsp;&nbsp;&nbsp;&nbsp;&nbsp;&nbsp;&nbsp;&nbsp;&nbsp;&nbsp;&nbsp;&nbsp;&nbsp;&nbsp;&nbsp;3&nbsp;&nbsp;&nbsp;&nbsp;&nbsp;&nbsp;&nbsp;&nbsp;&nbsp;&nbsp;&nbsp;&nbsp;&nbsp;&nbsp;&nbsp;&nbsp;&nbsp;&nbsp;&nbsp;4</p><p style=""font-size:14px"">Not at all familiar&nbsp;&nbsp;&nbsp;&nbsp;A little familiar&nbsp;&nbsp;&nbsp;Moderately familiar&nbsp;&nbsp;&nbsp;Extremely familiar</p><p>(press the corresponding number on your keyboard)</p>","","51","","","FAM-RESPONSE","","","","","","","","","","","","","","","","","","","sounds/B/FAM/N004.mp3","nonword","","","","","","","","","","","","","","","","","","",""
"html-keyboard-response","249","1476682","0.0-7.0-1.0-0.3","2","1","vmk20zou5p8xpw9","","null","","","","null","","","","","","","","","","","","","","","","","","","","","","","","","","","","","","","","","","","","","","","","","",""
"audio-keyboard-response","250","1477624","0.0-7.0-1.0-1.3","2","1","vmk20zou5p8xpw9","","null","","sounds/B/FAM/W003.mp3","","null","","","","","","","","","","","","","","","","","","","","","","","","","","","","","","","","","","","","","","","","","",""
"html-keyboard-response","251","1478762","0.0-7.0-1.0-2.3","2","1","vmk20zou5p8xpw9","","636","","<p>How familiar did this sound to you?</p><p>1&nbsp;&nbsp;&nbsp;&nbsp;&nbsp;&nbsp;&nbsp;&nbsp;&nbsp;&nbsp;&nbsp;&nbsp;&nbsp;&nbsp;&nbsp;&nbsp;&nbsp;&nbsp;&nbsp;2&nbsp;&nbsp;&nbsp;&nbsp;&nbsp;&nbsp;&nbsp;&nbsp;&nbsp;&nbsp;&nbsp;&nbsp;&nbsp;&nbsp;&nbsp;&nbsp;&nbsp;&nbsp;&nbsp;3&nbsp;&nbsp;&nbsp;&nbsp;&nbsp;&nbsp;&nbsp;&nbsp;&nbsp;&nbsp;&nbsp;&nbsp;&nbsp;&nbsp;&nbsp;&nbsp;&nbsp;&nbsp;&nbsp;4</p><p style=""font-size:14px"">Not at all familiar&nbsp;&nbsp;&nbsp;&nbsp;A little familiar&nbsp;&nbsp;&nbsp;Moderately familiar&nbsp;&nbsp;&nbsp;Extremely familiar</p><p>(press the corresponding number on your keyboard)</p>","","52","","","FAM-RESPONSE","","","","","","","","","","","","","","","","","","","sounds/B/FAM/W003.mp3","word","","","","","","","","","","","","","","","","","","",""
"html-keyboard-response","252","1480765","0.0-7.0-1.0-0.4","2","1","vmk20zou5p8xpw9","","null","","","","null","","","","","","","","","","","","","","","","","","","","","","","","","","","","","","","","","","","","","","","","","",""
"audio-keyboard-response","253","1481706","0.0-7.0-1.0-1.4","2","1","vmk20zou5p8xpw9","","null","","sounds/B/FAM/P002.mp3","","null","","","","","","","","","","","","","","","","","","","","","","","","","","","","","","","","","","","","","","","","","",""
"html-keyboard-response","254","1483471","0.0-7.0-1.0-2.4","2","1","vmk20zou5p8xpw9","","1261.9999999997672","","<p>How familiar did this sound to you?</p><p>1&nbsp;&nbsp;&nbsp;&nbsp;&nbsp;&nbsp;&nbsp;&nbsp;&nbsp;&nbsp;&nbsp;&nbsp;&nbsp;&nbsp;&nbsp;&nbsp;&nbsp;&nbsp;&nbsp;2&nbsp;&nbsp;&nbsp;&nbsp;&nbsp;&nbsp;&nbsp;&nbsp;&nbsp;&nbsp;&nbsp;&nbsp;&nbsp;&nbsp;&nbsp;&nbsp;&nbsp;&nbsp;&nbsp;3&nbsp;&nbsp;&nbsp;&nbsp;&nbsp;&nbsp;&nbsp;&nbsp;&nbsp;&nbsp;&nbsp;&nbsp;&nbsp;&nbsp;&nbsp;&nbsp;&nbsp;&nbsp;&nbsp;4</p><p style=""font-size:14px"">Not at all familiar&nbsp;&nbsp;&nbsp;&nbsp;A little familiar&nbsp;&nbsp;&nbsp;Moderately familiar&nbsp;&nbsp;&nbsp;Extremely familiar</p><p>(press the corresponding number on your keyboard)</p>","","49","","","FAM-RESPONSE","","","","","","","","","","","","","","","","","","","sounds/B/FAM/P002.mp3","partword","","","","","","","","","","","","","","","","","","",""
"html-keyboard-response","255","1485474","0.0-7.0-1.0-0.5","2","1","vmk20zou5p8xpw9","","null","","","","null","","","","","","","","","","","","","","","","","","","","","","","","","","","","","","","","","","","","","","","","","",""
"audio-keyboard-response","256","1486416","0.0-7.0-1.0-1.5","2","1","vmk20zou5p8xpw9","","null","","sounds/B/FAM/P004.mp3","","null","","","","","","","","","","","","","","","","","","","","","","","","","","","","","","","","","","","","","","","","","",""
"html-keyboard-response","257","1487970","0.0-7.0-1.0-2.5","2","1","vmk20zou5p8xpw9","","1052","","<p>How familiar did this sound to you?</p><p>1&nbsp;&nbsp;&nbsp;&nbsp;&nbsp;&nbsp;&nbsp;&nbsp;&nbsp;&nbsp;&nbsp;&nbsp;&nbsp;&nbsp;&nbsp;&nbsp;&nbsp;&nbsp;&nbsp;2&nbsp;&nbsp;&nbsp;&nbsp;&nbsp;&nbsp;&nbsp;&nbsp;&nbsp;&nbsp;&nbsp;&nbsp;&nbsp;&nbsp;&nbsp;&nbsp;&nbsp;&nbsp;&nbsp;3&nbsp;&nbsp;&nbsp;&nbsp;&nbsp;&nbsp;&nbsp;&nbsp;&nbsp;&nbsp;&nbsp;&nbsp;&nbsp;&nbsp;&nbsp;&nbsp;&nbsp;&nbsp;&nbsp;4</p><p style=""font-size:14px"">Not at all familiar&nbsp;&nbsp;&nbsp;&nbsp;A little familiar&nbsp;&nbsp;&nbsp;Moderately familiar&nbsp;&nbsp;&nbsp;Extremely familiar</p><p>(press the corresponding number on your keyboard)</p>","","51","","","FAM-RESPONSE","","","","","","","","","","","","","","","","","","","sounds/B/FAM/P004.mp3","partword","","","","","","","","","","","","","","","","","","",""
"html-keyboard-response","258","1489973","0.0-7.0-1.0-0.6","2","1","vmk20zou5p8xpw9","","null","","","","null","","","","","","","","","","","","","","","","","","","","","","","","","","","","","","","","","","","","","","","","","",""
"audio-keyboard-response","259","1490914","0.0-7.0-1.0-1.6","2","1","vmk20zou5p8xpw9","","null","","sounds/B/FAM/N003.mp3","","null","","","","","","","","","","","","","","","","","","","","","","","","","","","","","","","","","","","","","","","","","",""
"html-keyboard-response","260","1491730","0.0-7.0-1.0-2.6","2","1","vmk20zou5p8xpw9","","313","","<p>How familiar did this sound to you?</p><p>1&nbsp;&nbsp;&nbsp;&nbsp;&nbsp;&nbsp;&nbsp;&nbsp;&nbsp;&nbsp;&nbsp;&nbsp;&nbsp;&nbsp;&nbsp;&nbsp;&nbsp;&nbsp;&nbsp;2&nbsp;&nbsp;&nbsp;&nbsp;&nbsp;&nbsp;&nbsp;&nbsp;&nbsp;&nbsp;&nbsp;&nbsp;&nbsp;&nbsp;&nbsp;&nbsp;&nbsp;&nbsp;&nbsp;3&nbsp;&nbsp;&nbsp;&nbsp;&nbsp;&nbsp;&nbsp;&nbsp;&nbsp;&nbsp;&nbsp;&nbsp;&nbsp;&nbsp;&nbsp;&nbsp;&nbsp;&nbsp;&nbsp;4</p><p style=""font-size:14px"">Not at all familiar&nbsp;&nbsp;&nbsp;&nbsp;A little familiar&nbsp;&nbsp;&nbsp;Moderately familiar&nbsp;&nbsp;&nbsp;Extremely familiar</p><p>(press the corresponding number on your keyboard)</p>","","52","","","FAM-RESPONSE","","","","","","","","","","","","","","","","","","","sounds/B/FAM/N003.mp3","nonword","","","","","","","","","","","","","","","","","","",""
"html-keyboard-response","261","1493733","0.0-7.0-1.0-0.7","2","1","vmk20zou5p8xpw9","","null","","","","null","","","","","","","","","","","","","","","","","","","","","","","","","","","","","","","","","","","","","","","","","",""
"audio-keyboard-response","262","1494674","0.0-7.0-1.0-1.7","2","1","vmk20zou5p8xpw9","","null","","sounds/B/FAM/P001.mp3","","null","","","","","","","","","","","","","","","","","","","","","","","","","","","","","","","","","","","","","","","","","",""
"html-keyboard-response","263","1495653","0.0-7.0-1.0-2.7","2","1","vmk20zou5p8xpw9","","477","","<p>How familiar did this sound to you?</p><p>1&nbsp;&nbsp;&nbsp;&nbsp;&nbsp;&nbsp;&nbsp;&nbsp;&nbsp;&nbsp;&nbsp;&nbsp;&nbsp;&nbsp;&nbsp;&nbsp;&nbsp;&nbsp;&nbsp;2&nbsp;&nbsp;&nbsp;&nbsp;&nbsp;&nbsp;&nbsp;&nbsp;&nbsp;&nbsp;&nbsp;&nbsp;&nbsp;&nbsp;&nbsp;&nbsp;&nbsp;&nbsp;&nbsp;3&nbsp;&nbsp;&nbsp;&nbsp;&nbsp;&nbsp;&nbsp;&nbsp;&nbsp;&nbsp;&nbsp;&nbsp;&nbsp;&nbsp;&nbsp;&nbsp;&nbsp;&nbsp;&nbsp;4</p><p style=""font-size:14px"">Not at all familiar&nbsp;&nbsp;&nbsp;&nbsp;A little familiar&nbsp;&nbsp;&nbsp;Moderately familiar&nbsp;&nbsp;&nbsp;Extremely familiar</p><p>(press the corresponding number on your keyboard)</p>","","50","","","FAM-RESPONSE","","","","","","","","","","","","","","","","","","","sounds/B/FAM/P001.mp3","partword","","","","","","","","","","","","","","","","","","",""
"html-keyboard-response","264","1497656","0.0-7.0-1.0-0.8","2","1","vmk20zou5p8xpw9","","null","","","","null","","","","","","","","","","","","","","","","","","","","","","","","","","","","","","","","","","","","","","","","","",""
"audio-keyboard-response","265","1498597","0.0-7.0-1.0-1.8","2","1","vmk20zou5p8xpw9","","null","","sounds/B/FAM/N001.mp3","","null","","","","","","","","","","","","","","","","","","","","","","","","","","","","","","","","","","","","","","","","","",""
"html-keyboard-response","266","1499383","0.0-7.0-1.0-2.8","2","1","vmk20zou5p8xpw9","","283","","<p>How familiar did this sound to you?</p><p>1&nbsp;&nbsp;&nbsp;&nbsp;&nbsp;&nbsp;&nbsp;&nbsp;&nbsp;&nbsp;&nbsp;&nbsp;&nbsp;&nbsp;&nbsp;&nbsp;&nbsp;&nbsp;&nbsp;2&nbsp;&nbsp;&nbsp;&nbsp;&nbsp;&nbsp;&nbsp;&nbsp;&nbsp;&nbsp;&nbsp;&nbsp;&nbsp;&nbsp;&nbsp;&nbsp;&nbsp;&nbsp;&nbsp;3&nbsp;&nbsp;&nbsp;&nbsp;&nbsp;&nbsp;&nbsp;&nbsp;&nbsp;&nbsp;&nbsp;&nbsp;&nbsp;&nbsp;&nbsp;&nbsp;&nbsp;&nbsp;&nbsp;4</p><p style=""font-size:14px"">Not at all familiar&nbsp;&nbsp;&nbsp;&nbsp;A little familiar&nbsp;&nbsp;&nbsp;Moderately familiar&nbsp;&nbsp;&nbsp;Extremely familiar</p><p>(press the corresponding number on your keyboard)</p>","","51","","","FAM-RESPONSE","","","","","","","","","","","","","","","","","","","sounds/B/FAM/N001.mp3","nonword","","","","","","","","","","","","","","","","","","",""
"html-keyboard-response","267","1501386","0.0-7.0-1.0-0.9","2","1","vmk20zou5p8xpw9","","null","","","","null","","","","","","","","","","","","","","","","","","","","","","","","","","","","","","","","","","","","","","","","","",""
"audio-keyboard-response","268","1502328","0.0-7.0-1.0-1.9","2","1","vmk20zou5p8xpw9","","null","","sounds/B/FAM/W004.mp3","","null","","","","","","","","","","","","","","","","","","","","","","","","","","","","","","","","","","","","","","","","","",""
"html-keyboard-response","269","1503175","0.0-7.0-1.0-2.9","2","1","vmk20zou5p8xpw9","","344","","<p>How familiar did this sound to you?</p><p>1&nbsp;&nbsp;&nbsp;&nbsp;&nbsp;&nbsp;&nbsp;&nbsp;&nbsp;&nbsp;&nbsp;&nbsp;&nbsp;&nbsp;&nbsp;&nbsp;&nbsp;&nbsp;&nbsp;2&nbsp;&nbsp;&nbsp;&nbsp;&nbsp;&nbsp;&nbsp;&nbsp;&nbsp;&nbsp;&nbsp;&nbsp;&nbsp;&nbsp;&nbsp;&nbsp;&nbsp;&nbsp;&nbsp;3&nbsp;&nbsp;&nbsp;&nbsp;&nbsp;&nbsp;&nbsp;&nbsp;&nbsp;&nbsp;&nbsp;&nbsp;&nbsp;&nbsp;&nbsp;&nbsp;&nbsp;&nbsp;&nbsp;4</p><p style=""font-size:14px"">Not at all familiar&nbsp;&nbsp;&nbsp;&nbsp;A little familiar&nbsp;&nbsp;&nbsp;Moderately familiar&nbsp;&nbsp;&nbsp;Extremely familiar</p><p>(press the corresponding number on your keyboard)</p>","","52","","","FAM-RESPONSE","","","","","","","","","","","","","","","","","","","sounds/B/FAM/W004.mp3","word","","","","","","","","","","","","","","","","","","",""
"html-keyboard-response","270","1505178","0.0-7.0-1.0-0.10","2","1","vmk20zou5p8xpw9","","null","","","","null","","","","","","","","","","","","","","","","","","","","","","","","","","","","","","","","","","","","","","","","","",""
"audio-keyboard-response","271","1506119","0.0-7.0-1.0-1.10","2","1","vmk20zou5p8xpw9","","null","","sounds/B/FAM/W002.mp3","","null","","","","","","","","","","","","","","","","","","","","","","","","","","","","","","","","","","","","","","","","","",""
"html-keyboard-response","272","1507522","0.0-7.0-1.0-2.10","2","1","vmk20zou5p8xpw9","","898.9999999997672","","<p>How familiar did this sound to you?</p><p>1&nbsp;&nbsp;&nbsp;&nbsp;&nbsp;&nbsp;&nbsp;&nbsp;&nbsp;&nbsp;&nbsp;&nbsp;&nbsp;&nbsp;&nbsp;&nbsp;&nbsp;&nbsp;&nbsp;2&nbsp;&nbsp;&nbsp;&nbsp;&nbsp;&nbsp;&nbsp;&nbsp;&nbsp;&nbsp;&nbsp;&nbsp;&nbsp;&nbsp;&nbsp;&nbsp;&nbsp;&nbsp;&nbsp;3&nbsp;&nbsp;&nbsp;&nbsp;&nbsp;&nbsp;&nbsp;&nbsp;&nbsp;&nbsp;&nbsp;&nbsp;&nbsp;&nbsp;&nbsp;&nbsp;&nbsp;&nbsp;&nbsp;4</p><p style=""font-size:14px"">Not at all familiar&nbsp;&nbsp;&nbsp;&nbsp;A little familiar&nbsp;&nbsp;&nbsp;Moderately familiar&nbsp;&nbsp;&nbsp;Extremely familiar</p><p>(press the corresponding number on your keyboard)</p>","","49","","","FAM-RESPONSE","","","","","","","","","","","","","","","","","","","sounds/B/FAM/W002.mp3","word","","","","","","","","","","","","","","","","","","",""
"html-keyboard-response","273","1509524","0.0-7.0-1.0-0.11","2","1","vmk20zou5p8xpw9","","null","","","","null","","","","","","","","","","","","","","","","","","","","","","","","","","","","","","","","","","","","","","","","","",""
"audio-keyboard-response","274","1510466","0.0-7.0-1.0-1.11","2","1","vmk20zou5p8xpw9","","null","","sounds/B/FAM/W001.mp3","","null","","","","","","","","","","","","","","","","","","","","","","","","","","","","","","","","","","","","","","","","","",""
"html-keyboard-response","275","1511349","0.0-7.0-1.0-2.11","2","1","vmk20zou5p8xpw9","","380","","<p>How familiar did this sound to you?</p><p>1&nbsp;&nbsp;&nbsp;&nbsp;&nbsp;&nbsp;&nbsp;&nbsp;&nbsp;&nbsp;&nbsp;&nbsp;&nbsp;&nbsp;&nbsp;&nbsp;&nbsp;&nbsp;&nbsp;2&nbsp;&nbsp;&nbsp;&nbsp;&nbsp;&nbsp;&nbsp;&nbsp;&nbsp;&nbsp;&nbsp;&nbsp;&nbsp;&nbsp;&nbsp;&nbsp;&nbsp;&nbsp;&nbsp;3&nbsp;&nbsp;&nbsp;&nbsp;&nbsp;&nbsp;&nbsp;&nbsp;&nbsp;&nbsp;&nbsp;&nbsp;&nbsp;&nbsp;&nbsp;&nbsp;&nbsp;&nbsp;&nbsp;4</p><p style=""font-size:14px"">Not at all familiar&nbsp;&nbsp;&nbsp;&nbsp;A little familiar&nbsp;&nbsp;&nbsp;Moderately familiar&nbsp;&nbsp;&nbsp;Extremely familiar</p><p>(press the corresponding number on your keyboard)</p>","","50","","","FAM-RESPONSE","","","","","","","","","","","","","","","","","","","sounds/B/FAM/W001.mp3","word","","","","","","","","","","","","","","","","","","",""
"html-button-response","276","1533341","0.0-8.0-0.0","2","1","vmk20zou5p8xpw9","","20989.999999999767","","<p>You will now listen to longer sound sequences.</p><p>Each sound sequence will last about 16 seconds.</p><p>On each trial, you will be given a <u>TARGET SOUND</u>. Your task is to listen very carefully for this sound.</p><p>Every time you hear the <u>TARGET SOUND</u>, you will press the <b>SPACEBAR</b> as quickly and accurately as you can.</p>","0","","","","","","","","","","","","","","","","","","","","","","","","","","","","","","","","","","","","","","","","","","",""
"html-button-response","277","1543098","0.0-8.0-1.0","2","1","vmk20zou5p8xpw9","","9505","","<p>It is very important that you make your responses as quickly and accurately as possible.</p><p>To help you make your responses, you will be able to listen to the <u>TARGET SOUND</u> at the beginning of each trial.</p><p>There will be 36 total trials.</p><p><b>Note: This is meant to be a difficult task. We simply want you to try your best.</p>","0","","","","","","","","","","","","","","","","","","","","","","","","","","","","","","","","","","","","","","","","","","",""
"html-button-response","278","1545642","0.0-8.0-2.0-0.0","2","1","vmk20zou5p8xpw9","","2292","","<p>Trial 1 of 36</p>","0","","","","","","","","","","","","","","","","","","","","","","","","","ME","sounds/syllables/me_SWS.wav","1200,6600,9300,12900","2","","","","","","","","","","","","","","",""
"html-keyboard-response","279","1552330","0.0-8.0-2.0-1.0","2","1","vmk20zou5p8xpw9","","6687","","","","80","","","","","","","","","","","","","","","","","","","","","","","","ME","","1200,6600,9300,12900","2","","","","","","","","","","","","","","",""
"audio-keyboard-response","280","1552631","0.0-8.0-2.0-2.0-0.0","2","1","vmk20zou5p8xpw9","","null","","sounds/syllables/me_SWS.wav","","null","","","","","","","","","","","","","","","","","","","","","","","","","","","","","","","","","","","","","","","","","",""
"html-keyboard-response","281","1558066","0.0-8.0-2.0-2.0-1.0","2","1","vmk20zou5p8xpw9","","5434","","<p>To replay the <u>TARGET SOUND</u>, press P.</p> When you are ready to begin, press SPACEBAR.","","32","","","","","","","","","","","","","","","","","","","","","","","","","","","","","","","","","","","","","","","","","",""
"audio-keyboard-response","282","1573018","0.0-8.0-2.0-3.0","2","1","vmk20zou5p8xpw9","","2035","","sounds/B/TD/ME_08_TD.mp3","","80","","","TD_SUMMARY","","","","","","","","","","","","","","","","","","","","","ME","","1200,6600,9300,12900","2","1200","6600","9300","12900","null","null","null","null","3898","1","","","","",""
"html-button-response","283","1579756","0.0-8.0-2.0-0.1","2","1","vmk20zou5p8xpw9","","6736","","<p>Trial 2 of 36</p>","0","","","","","","","","","","","","","","","","","","","","","","","","","RU","sounds/syllables/ru_SWS.wav","5100,6900,10500,12300","3","","","","","","","","","","","","","","",""
"html-keyboard-response","284","1582923","0.0-8.0-2.0-1.1","2","1","vmk20zou5p8xpw9","","3165","","","","80","","","","","","","","","","","","","","","","","","","","","","","","RU","","5100,6900,10500,12300","3","","","","","","","","","","","","","","",""
"audio-keyboard-response","285","1583225","0.0-8.0-2.0-2.1-0.1","2","1","vmk20zou5p8xpw9","","null","","sounds/syllables/ru_SWS.wav","","null","","","","","","","","","","","","","","","","","","","","","","","","","","","","","","","","","","","","","","","","","",""
"html-keyboard-response","286","1588341","0.0-8.0-2.0-2.1-1.1","2","1","vmk20zou5p8xpw9","","5115","","<p>To replay the <u>TARGET SOUND</u>, press P.</p> When you are ready to begin, press SPACEBAR.","","32","","","","","","","","","","","","","","","","","","","","","","","","","","","","","","","","","","","","","","","","","",""
"audio-keyboard-response","287","1603292","0.0-8.0-2.0-3.1","2","1","vmk20zou5p8xpw9","","4224","","sounds/B/TD/RU_08_TD.mp3","","32","","","TD_SUMMARY","","","","","","","","","","","","","","","","","","","","","RU","","5100,6900,10500,12300","3","5100","6900","10500","12300","null","1029","463","null","_4226.000000000233_5222_7929_8166_8357_8805_9275.000000000233_9505.000000000233_9681_10963","1","","","","",""
"html-button-response","288","1605196","0.0-8.0-2.0-0.2","2","1","vmk20zou5p8xpw9","","1902","","<p>Trial 3 of 36</p>","0","","","","","","","","","","","","","","","","","","","","","","","","","PU","sounds/syllables/pu_SWS.wav","900,2700,5400,9900","1","","","","","","","","","","","","","","",""
"html-keyboard-response","289","1610013","0.0-8.0-2.0-1.2","2","1","vmk20zou5p8xpw9","","4817","","","","80","","","","","","","","","","","","","","","","","","","","","","","","PU","","900,2700,5400,9900","1","","","","","","","","","","","","","","",""
"audio-keyboard-response","290","1610316","0.0-8.0-2.0-2.2-0.2","2","1","vmk20zou5p8xpw9","","null","","sounds/syllables/pu_SWS.wav","","null","","","","","","","","","","","","","","","","","","","","","","","","","","","","","","","","","","","","","","","","","",""
"html-keyboard-response","291","1613433","0.0-8.0-2.0-2.2-1.2","2","1","vmk20zou5p8xpw9","","3117","","<p>To replay the <u>TARGET SOUND</u>, press P.</p> When you are ready to begin, press SPACEBAR.","","32","","","","","","","","","","","","","","","","","","","","","","","","","","","","","","","","","","","","","","","","","",""
"audio-keyboard-response","292","1628382","0.0-8.0-2.0-3.2","2","1","vmk20zou5p8xpw9","","2488","","sounds/B/TD/PU_02_TD.mp3","","80","","","TD_SUMMARY","","","","","","","","","","","","","","","","","","","","","PU","","900,2700,5400,9900","1","900","2700","5400","9900","null","1077.0000000002328","1140","null","___________3539_3777.000000000233_3995_4227_4429_4609_4797.000000000233_4986_5196_5395_5587_5768.000000000233_5959_6147_6345.000000000233_6540_6733_6919_7111_7694_7868_8032_8213_8383.000000000233_8571_8734_8904_9071_9223","1","","","","",""
"html-button-response","293","1629004","0.0-8.0-2.0-0.3","2","1","vmk20zou5p8xpw9","","622","","<p>Trial 4 of 36</p>","0","","","","","","","","","","","","","","","","","","","","","","","","","ME","sounds/syllables/me_SWS.wav","1200,5700,7500,9300","2","","","","","","","","","","","","","","",""
"html-keyboard-response","294","1630619","0.0-8.0-2.0-1.3","2","1","vmk20zou5p8xpw9","","1613","","","","80","","","","","","","","","","","","","","","","","","","","","","","","ME","","1200,5700,7500,9300","2","","","","","","","","","","","","","","",""
"audio-keyboard-response","295","1630921","0.0-8.0-2.0-2.3-0.3","2","1","vmk20zou5p8xpw9","","null","","sounds/syllables/me_SWS.wav","","null","","","","","","","","","","","","","","","","","","","","","","","","","","","","","","","","","","","","","","","","","",""
"html-keyboard-response","296","1632477","0.0-8.0-2.0-2.3-1.3","2","1","vmk20zou5p8xpw9","","1556","","<p>To replay the <u>TARGET SOUND</u>, press P.</p> When you are ready to begin, press SPACEBAR.","","32","","","","","","","","","","","","","","","","","","","","","","","","","","","","","","","","","","","","","","","","","",""
"audio-keyboard-response","297","1647428","0.0-8.0-2.0-3.3","2","1","vmk20zou5p8xpw9","","3067","","sounds/B/TD/ME_07_TD.mp3","","80","","","TD_SUMMARY","","","","","","","","","","","","","","","","","","","","","ME","","1200,5700,7500,9300","2","1200","5700","7500","9300","null","null","null","null","","1","","","","",""
"html-button-response","298","1649531","0.0-8.0-2.0-0.4","2","1","vmk20zou5p8xpw9","","2102","","<p>Trial 5 of 36</p>","0","","","","","","","","","","","","","","","","","","","","","","","","","FU","sounds/syllables/fu_SWS.wav","4500,7200,9900,12600","1","","","","","","","","","","","","","","",""
"html-keyboard-response","299","1651709","0.0-8.0-2.0-1.4","2","1","vmk20zou5p8xpw9","","2176","","","","80","","","","","","","","","","","","","","","","","","","","","","","","FU","","4500,7200,9900,12600","1","","","","","","","","","","","","","","",""
"audio-keyboard-response","300","1652011","0.0-8.0-2.0-2.4-0.4","2","1","vmk20zou5p8xpw9","","null","","sounds/syllables/fu_SWS.wav","","null","","","","","","","","","","","","","","","","","","","","","","","","","","","","","","","","","","","","","","","","","",""
"html-keyboard-response","301","1652872","0.0-8.0-2.0-2.4-1.4","2","1","vmk20zou5p8xpw9","","860","","<p>To replay the <u>TARGET SOUND</u>, press P.</p> When you are ready to begin, press SPACEBAR.","","80","","","","","","","","","","","","","","","","","","","","","","","","","","","","","","","","","","","","","","","","","",""
"audio-keyboard-response","302","1653675","0.0-8.0-2.0-2.5-0.5","2","1","vmk20zou5p8xpw9","","null","","sounds/syllables/fu_SWS.wav","","null","","","","","","","","","","","","","","","","","","","","","","","","","","","","","","","","","","","","","","","","","",""
"html-keyboard-response","303","1655013","0.0-8.0-2.0-2.5-1.5","2","1","vmk20zou5p8xpw9","","1337","","<p>To replay the <u>TARGET SOUND</u>, press P.</p> When you are ready to begin, press SPACEBAR.","","32","","","","","","","","","","","","","","","","","","","","","","","","","","","","","","","","","","","","","","","","","",""
"audio-keyboard-response","304","1669963","0.0-8.0-2.0-3.4","2","1","vmk20zou5p8xpw9","","1429","","sounds/B/TD/FU_05_TD.mp3","","80","","","TD_SUMMARY","","","","","","","","","","","","","","","","","","","","","FU","","4500,7200,9900,12600","1","4500","7200","9900","12600","1137","null","null","null","________________________________________5637","2","","","","",""
"html-button-response","305","1672228","0.0-8.0-2.0-0.5","2","1","vmk20zou5p8xpw9","","2263","","<p>Trial 6 of 36</p>","0","","","","","","","","","","","","","","","","","","","","","","","","","RU","sounds/syllables/ru_SWS.wav","2400,6000,7800,13200","3","","","","","","","","","","","","","","",""
"html-keyboard-response","306","1673474","0.0-8.0-2.0-1.5","2","1","vmk20zou5p8xpw9","","1245","","","","80","","","","","","","","","","","","","","","","","","","","","","","","RU","","2400,6000,7800,13200","3","","","","","","","","","","","","","","",""
"audio-keyboard-response","307","1673776","0.0-8.0-2.0-2.6-0.6","2","1","vmk20zou5p8xpw9","","null","","sounds/syllables/ru_SWS.wav","","null","","","","","","","","","","","","","","","","","","","","","","","","","","","","","","","","","","","","","","","","","",""
"html-keyboard-response","308","1674984","0.0-8.0-2.0-2.6-1.6","2","1","vmk20zou5p8xpw9","","1206","","<p>To replay the <u>TARGET SOUND</u>, press P.</p> When you are ready to begin, press SPACEBAR.","","32","","","","","","","","","","","","","","","","","","","","","","","","","","","","","","","","","","","","","","","","","",""
"audio-keyboard-response","309","1689934","0.0-8.0-2.0-3.5","2","1","vmk20zou5p8xpw9","","2539","","sounds/B/TD/RU_04_TD.mp3","","32","","","TD_SUMMARY","","","","","","","","","","","","","","","","","","","","","RU","","2400,6000,7800,13200","3","2400","6000","7800","13200","null","null","null","null","_________________________________________2538","1","","","","",""
"html-button-response","310","1698999","0.0-8.0-2.0-0.6","2","1","vmk20zou5p8xpw9","","9064.000000000233","","<p>Trial 7 of 36</p>","0","","","","","","","","","","","","","","","","","","","","","","","","","ME","sounds/syllables/me_SWS.wav","3900,5700,11100,12900","2","","","","","","","","","","","","","","",""
"html-keyboard-response","311","1700250","0.0-8.0-2.0-1.6","2","1","vmk20zou5p8xpw9","","1249","","","","80","","","","","","","","","","","","","","","","","","","","","","","","ME","","3900,5700,11100,12900","2","","","","","","","","","","","","","","",""
"audio-keyboard-response","312","1700552","0.0-8.0-2.0-2.7-0.7","2","1","vmk20zou5p8xpw9","","null","","sounds/syllables/me_SWS.wav","","null","","","","","","","","","","","","","","","","","","","","","","","","","","","","","","","","","","","","","","","","","",""
"html-keyboard-response","313","1701725","0.0-8.0-2.0-2.7-1.7","2","1","vmk20zou5p8xpw9","","1172","","<p>To replay the <u>TARGET SOUND</u>, press P.</p> When you are ready to begin, press SPACEBAR.","","32","","","","","","","","","","","","","","","","","","","","","","","","","","","","","","","","","","","","","","","","","",""
"audio-keyboard-response","314","1716675","0.0-8.0-2.0-3.6","2","1","vmk20zou5p8xpw9","","null","","sounds/B/TD/ME_02_TD.mp3","","null","","","TD_SUMMARY","","","","","","","","","","","","","","","","","","","","","ME","","3900,5700,11100,12900","2","3900","5700","11100","12900","null","null","null","null","","1","","","","",""
"html-button-response","315","1726245","0.0-8.0-2.0-0.7","2","1","vmk20zou5p8xpw9","","9569","","<p>Trial 8 of 36</p>","0","","","","","","","","","","","","","","","","","","","","","","","","","PU","sounds/syllables/pu_SWS.wav","1800,3600,7200,9900","1","","","","","","","","","","","","","","",""
"html-keyboard-response","316","1727702","0.0-8.0-2.0-1.7","2","1","vmk20zou5p8xpw9","","1455","","","","80","","","","","","","","","","","","","","","","","","","","","","","","PU","","1800,3600,7200,9900","1","","","","","","","","","","","","","","",""
"audio-keyboard-response","317","1728003","0.0-8.0-2.0-2.8-0.8","2","1","vmk20zou5p8xpw9","","null","","sounds/syllables/pu_SWS.wav","","null","","","","","","","","","","","","","","","","","","","","","","","","","","","","","","","","","","","","","","","","","",""
"html-keyboard-response","318","1728447","0.0-8.0-2.0-2.8-1.8","2","1","vmk20zou5p8xpw9","","444","","<p>To replay the <u>TARGET SOUND</u>, press P.</p> When you are ready to begin, press SPACEBAR.","","32","","","","","","","","","","","","","","","","","","","","","","","","","","","","","","","","","","","","","","","","","",""
"audio-keyboard-response","319","1743397","0.0-8.0-2.0-3.7","2","1","vmk20zou5p8xpw9","","null","","sounds/B/TD/PU_09_TD.mp3","","null","","","TD_SUMMARY","","","","","","","","","","","","","","","","","","","","","PU","","1800,3600,7200,9900","1","1800","3600","7200","9900","null","null","null","null","","1","","","","",""
