"trial_type","trial_index","time_elapsed","internal_node_id","counterbalance","lang_instruct","ParticipantID","view_history","rt","url","stimulus","button_pressed","key_press","correctRESP","correct","designation","location","correctanswer","responses","sentence","keywords","typed_resp","keyword1_acc","keyword2_acc","keyword3_acc","keyword4_acc","keyword5_acc","total_acc","prop_acc"
"pavlovia","0","3","0.0-0.0","3","1","4kw6cl76hatyejp","","","","","","","","","","","","","","","","","","","","","",""
"instructions","1","5887","0.0-1.0","3","1","4kw6cl76hatyejp","[{""page_index"":0,""viewing_time"":2583},{""page_index"":1,""viewing_time"":3292}]","5884","","","","","","","","","","","","","","","","","","","",""
"external-html","2","9799","0.0-2.0","3","1","4kw6cl76hatyejp","","3908.999999999998","consent/consent.html","","","","","","","","","","","","","","","","","","",""
"html-button-response","3","12312","0.0-3.0-0.0-0.0","3","1","4kw6cl76hatyejp","","2510.000000000002","","<p>Welcome to the study. You will first complete a short volume calibration and headphone check.</p><p>Please make sure you are in a quiet listening environment, that you are wearing headphones, and that your computer's volume is turned on.<p></p>","0","","","","","","","","","","","","","","","","",""
"html-button-response","4","14273","0.0-3.0-0.0-1.0","3","1","4kw6cl76hatyejp","","1708","","<p>The volume calibration will be first.</p><p>You will hear a thirty-second noise. Please adjust your computer's volume so that this noise is being presented at a comfortable level.<p></p>","0","","","","","","","","","","","","","","","","",""
"audio-button-response","5","16617","0.0-3.0-0.0-2.0","3","1","4kw6cl76hatyejp","","1773","","audCalib/volumetest.mp3","0","","","","","","","","","","","","","","","","",""
"html-button-response","6","17872","0.0-3.0-1.0-0.0","3","1","4kw6cl76hatyejp","","1253.9999999999964","","<p>You will now complete a short headphone check.</p><p>On each trial, you will hear three tones. One of these tones will be quieter than the others. Your task is to identify whether the quiet tone occured first, second, or third.</p><p>There are six trials in total.<p></p>","0","","","","","","","","","","","","","","","","",""
"html-keyboard-response","7","18624","0.0-3.0-1.0-1.0-0.0","3","1","4kw6cl76hatyejp","","null","","<div style=""font-size:60px;"">+</div>","","null","","","","","","","","","","","","","","","",""
"audio-button-response","8","23145","0.0-3.0-1.0-1.0-1.0","3","1","4kw6cl76hatyejp","","4520","","audCalib/t2_2.mp3","1","","1","1","headphone-test","","","","","","","","","","","","",""
"html-keyboard-response","9","23896","0.0-3.0-1.0-1.0-0.1","3","1","4kw6cl76hatyejp","","null","","<div style=""font-size:60px;"">+</div>","","null","","","","","","","","","","","","","","","",""
"audio-button-response","10","27711","0.0-3.0-1.0-1.0-1.1","3","1","4kw6cl76hatyejp","","3813","","audCalib/t3_1.mp3","2","","2","1","headphone-test","","","","","","","","","","","","",""
"html-keyboard-response","11","28464","0.0-3.0-1.0-1.0-0.2","3","1","4kw6cl76hatyejp","","null","","<div style=""font-size:60px;"">+</div>","","null","","","","","","","","","","","","","","","",""
"audio-button-response","12","32158","0.0-3.0-1.0-1.0-1.2","3","1","4kw6cl76hatyejp","","3693","","audCalib/t3_2.mp3","2","","2","1","headphone-test","","","","","","","","","","","","",""
"html-keyboard-response","13","32910","0.0-3.0-1.0-1.0-0.3","3","1","4kw6cl76hatyejp","","null","","<div style=""font-size:60px;"">+</div>","","null","","","","","","","","","","","","","","","",""
"audio-button-response","14","36792","0.0-3.0-1.0-1.0-1.3","3","1","4kw6cl76hatyejp","","3883","","audCalib/t1_1.mp3","0","","0","1","headphone-test","","","","","","","","","","","","",""
"html-keyboard-response","15","37545","0.0-3.0-1.0-1.0-0.4","3","1","4kw6cl76hatyejp","","null","","<div style=""font-size:60px;"">+</div>","","null","","","","","","","","","","","","","","","",""
"audio-button-response","16","41581","0.0-3.0-1.0-1.0-1.4","3","1","4kw6cl76hatyejp","","4035","","audCalib/t2_1.mp3","1","","1","1","headphone-test","","","","","","","","","","","","",""
"html-keyboard-response","17","42333","0.0-3.0-1.0-1.0-0.5","3","1","4kw6cl76hatyejp","","null","","<div style=""font-size:60px;"">+</div>","","null","","","","","","","","","","","","","","","",""
"audio-button-response","18","45920","0.0-3.0-1.0-1.0-1.5","3","1","4kw6cl76hatyejp","","3587","","audCalib/t1_2.mp3","0","","0","1","headphone-test","","","","","","","","","","","","",""
"html-button-response","19","47522","0.0-3.0-2.0","3","1","4kw6cl76hatyejp","","1352","","<p>The volume calibration and headphone check are now complete.</p>","0","","","","","","","","","","","","","","","","",""
"instructions","20","50971","0.0-4.0-0.0","3","1","4kw6cl76hatyejp","[{""page_index"":0,""viewing_time"":775},{""page_index"":1,""viewing_time"":1283},{""page_index"":2,""viewing_time"":1390}]","3448","","","","","","","","","","","","","","","","","","","",""
"audio-keyboard-response","21","51271","0.0-4.0-1.0-0.0","3","1","4kw6cl76hatyejp","","null","","sounds/induction/right/fe_SWS.wav","","null","","","","","","","","","","","","","","","",""
"html-button-response","22","52212","0.0-4.0-1.0-1.0","3","1","4kw6cl76hatyejp","","939","","What sound did you hear?","0","","","1","INDUCTION-JUDGMENT","right","0","","","","","","","","","","",""
"html-keyboard-response","23","53213","0.0-4.0-1.0-2.0","3","1","4kw6cl76hatyejp","","null","","<p style=""color:green;""><b>Correct!</b></p>","","null","","","","","","","","","","","","","","","",""
"audio-keyboard-response","24","54015","0.0-4.0-1.0-0.1","3","1","4kw6cl76hatyejp","","null","","sounds/induction/right/pu_SWS.wav","","null","","","","","","","","","","","","","","","",""
"html-button-response","25","55325","0.0-4.0-1.0-1.1","3","1","4kw6cl76hatyejp","","1309","","What sound did you hear?","1","","","1","INDUCTION-JUDGMENT","right","1","","","","","","","","","","",""
"html-keyboard-response","26","56327","0.0-4.0-1.0-2.1","3","1","4kw6cl76hatyejp","","null","","<p style=""color:green;""><b>Correct!</b></p>","","null","","","","","","","","","","","","","","","",""
"audio-keyboard-response","27","57130","0.0-4.0-1.0-0.2","3","1","4kw6cl76hatyejp","","null","","sounds/induction/right/fu_SWS.wav","","null","","","","","","","","","","","","","","","",""
"html-button-response","28","57924","0.0-4.0-1.0-1.2","3","1","4kw6cl76hatyejp","","794.0000000000073","","What sound did you hear?","0","","","1","INDUCTION-JUDGMENT","right","0","","","","","","","","","","",""
"html-keyboard-response","29","58925","0.0-4.0-1.0-2.2","3","1","4kw6cl76hatyejp","","null","","<p style=""color:green;""><b>Correct!</b></p>","","null","","","","","","","","","","","","","","","",""
"audio-keyboard-response","30","59727","0.0-4.0-1.0-0.3","3","1","4kw6cl76hatyejp","","null","","sounds/induction/right/me_SWS.wav","","null","","","","","","","","","","","","","","","",""
"html-button-response","31","60824","0.0-4.0-1.0-1.3","3","1","4kw6cl76hatyejp","","1096","","What sound did you hear?","0","","","1","INDUCTION-JUDGMENT","right","0","","","","","","","","","","",""
"html-keyboard-response","32","61826","0.0-4.0-1.0-2.3","3","1","4kw6cl76hatyejp","","null","","<p style=""color:green;""><b>Correct!</b></p>","","null","","","","","","","","","","","","","","","",""
"audio-keyboard-response","33","62628","0.0-4.0-1.0-0.4","3","1","4kw6cl76hatyejp","","null","","sounds/induction/right/su_SWS.wav","","null","","","","","","","","","","","","","","","",""
"html-button-response","34","63995","0.0-4.0-1.0-1.4","3","1","4kw6cl76hatyejp","","1366","","What sound did you hear?","1","","","1","INDUCTION-JUDGMENT","right","1","","","","","","","","","","",""
"html-keyboard-response","35","64996","0.0-4.0-1.0-2.4","3","1","4kw6cl76hatyejp","","null","","<p style=""color:green;""><b>Correct!</b></p>","","null","","","","","","","","","","","","","","","",""
"audio-keyboard-response","36","65799","0.0-4.0-1.0-0.5","3","1","4kw6cl76hatyejp","","null","","sounds/induction/left/ru_SWS.wav","","null","","","","","","","","","","","","","","","",""
"html-button-response","37","66259","0.0-4.0-1.0-1.5","3","1","4kw6cl76hatyejp","","459","","What sound did you hear?","0","","","1","INDUCTION-JUDGMENT","left","0","","","","","","","","","","",""
"html-keyboard-response","38","67260","0.0-4.0-1.0-2.5","3","1","4kw6cl76hatyejp","","null","","<p style=""color:green;""><b>Correct!</b></p>","","null","","","","","","","","","","","","","","","",""
"audio-keyboard-response","39","68063","0.0-4.0-1.0-0.6","3","1","4kw6cl76hatyejp","","null","","sounds/induction/left/fu_SWS.wav","","null","","","","","","","","","","","","","","","",""
"html-button-response","40","68646","0.0-4.0-1.0-1.6","3","1","4kw6cl76hatyejp","","582","","What sound did you hear?","1","","","1","INDUCTION-JUDGMENT","left","1","","","","","","","","","","",""
"html-keyboard-response","41","69647","0.0-4.0-1.0-2.6","3","1","4kw6cl76hatyejp","","null","","<p style=""color:green;""><b>Correct!</b></p>","","null","","","","","","","","","","","","","","","",""
"audio-keyboard-response","42","70450","0.0-4.0-1.0-0.7","3","1","4kw6cl76hatyejp","","null","","sounds/induction/left/fe_SWS.wav","","null","","","","","","","","","","","","","","","",""
"html-button-response","43","71071","0.0-4.0-1.0-1.7","3","1","4kw6cl76hatyejp","","622","","What sound did you hear?","0","","","0","INDUCTION-JUDGMENT","left","1","","","","","","","","","","",""
"html-keyboard-response","44","72073","0.0-4.0-1.0-2.7","3","1","4kw6cl76hatyejp","","null","","<p style=""color:red;""><b>Incorrect!</b></p>","","null","","","","","","","","","","","","","","","",""
"audio-keyboard-response","45","72873","0.0-4.0-1.0-0.8","3","1","4kw6cl76hatyejp","","null","","sounds/induction/left/su_SWS.wav","","null","","","","","","","","","","","","","","","",""
"html-button-response","46","73531","0.0-4.0-1.0-1.8","3","1","4kw6cl76hatyejp","","657","","What sound did you hear?","0","","","1","INDUCTION-JUDGMENT","left","0","","","","","","","","","","",""
"html-keyboard-response","47","74532","0.0-4.0-1.0-2.8","3","1","4kw6cl76hatyejp","","null","","<p style=""color:green;""><b>Correct!</b></p>","","null","","","","","","","","","","","","","","","",""
"audio-keyboard-response","48","75335","0.0-4.0-1.0-0.9","3","1","4kw6cl76hatyejp","","null","","sounds/induction/left/ta_SWS.wav","","null","","","","","","","","","","","","","","","",""
"html-button-response","49","75991","0.0-4.0-1.0-1.9","3","1","4kw6cl76hatyejp","","656","","What sound did you hear?","0","","","1","INDUCTION-JUDGMENT","left","0","","","","","","","","","","",""
"html-keyboard-response","50","76992","0.0-4.0-1.0-2.9","3","1","4kw6cl76hatyejp","","null","","<p style=""color:green;""><b>Correct!</b></p>","","null","","","","","","","","","","","","","","","",""
"audio-keyboard-response","51","77793","0.0-4.0-1.0-0.10","3","1","4kw6cl76hatyejp","","null","","sounds/induction/left/fu_SWS.wav","","null","","","","","","","","","","","","","","","",""
"html-button-response","52","78851","0.0-4.0-1.0-1.10","3","1","4kw6cl76hatyejp","","1057.9999999999854","","What sound did you hear?","0","","","0","INDUCTION-JUDGMENT","left","1","","","","","","","","","","",""
"html-keyboard-response","53","79852","0.0-4.0-1.0-2.10","3","1","4kw6cl76hatyejp","","null","","<p style=""color:red;""><b>Incorrect!</b></p>","","null","","","","","","","","","","","","","","","",""
"audio-keyboard-response","54","80655","0.0-4.0-1.0-0.11","3","1","4kw6cl76hatyejp","","null","","sounds/induction/right/ru_SWS.wav","","null","","","","","","","","","","","","","","","",""
"html-button-response","55","81450","0.0-4.0-1.0-1.11","3","1","4kw6cl76hatyejp","","794","","What sound did you hear?","0","","","0","INDUCTION-JUDGMENT","right","1","","","","","","","","","","",""
"html-keyboard-response","56","82452","0.0-4.0-1.0-2.11","3","1","4kw6cl76hatyejp","","null","","<p style=""color:red;""><b>Incorrect!</b></p>","","null","","","","","","","","","","","","","","","",""
"audio-keyboard-response","57","83254","0.0-4.0-1.0-0.12","3","1","4kw6cl76hatyejp","","null","","sounds/induction/right/ru_SWS.wav","","null","","","","","","","","","","","","","","","",""
"html-button-response","58","83836","0.0-4.0-1.0-1.12","3","1","4kw6cl76hatyejp","","581","","What sound did you hear?","0","","","0","INDUCTION-JUDGMENT","right","1","","","","","","","","","","",""
"html-keyboard-response","59","84838","0.0-4.0-1.0-2.12","3","1","4kw6cl76hatyejp","","null","","<p style=""color:red;""><b>Incorrect!</b></p>","","null","","","","","","","","","","","","","","","",""
"audio-keyboard-response","60","85638","0.0-4.0-1.0-0.13","3","1","4kw6cl76hatyejp","","null","","sounds/induction/right/ta_SWS.wav","","null","","","","","","","","","","","","","","","",""
"html-button-response","61","87643","0.0-4.0-1.0-1.13","3","1","4kw6cl76hatyejp","","2004.9999999999854","","What sound did you hear?","1","","","1","INDUCTION-JUDGMENT","right","1","","","","","","","","","","",""
"html-keyboard-response","62","88645","0.0-4.0-1.0-2.13","3","1","4kw6cl76hatyejp","","null","","<p style=""color:green;""><b>Correct!</b></p>","","null","","","","","","","","","","","","","","","",""
"audio-keyboard-response","63","89446","0.0-4.0-1.0-0.14","3","1","4kw6cl76hatyejp","","null","","sounds/induction/left/ni_SWS.wav","","null","","","","","","","","","","","","","","","",""
"html-button-response","64","91018","0.0-4.0-1.0-1.14","3","1","4kw6cl76hatyejp","","1571","","What sound did you hear?","0","","","0","INDUCTION-JUDGMENT","left","1","","","","","","","","","","",""
"html-keyboard-response","65","92020","0.0-4.0-1.0-2.14","3","1","4kw6cl76hatyejp","","null","","<p style=""color:red;""><b>Incorrect!</b></p>","","null","","","","","","","","","","","","","","","",""
"audio-keyboard-response","66","92822","0.0-4.0-1.0-0.15","3","1","4kw6cl76hatyejp","","null","","sounds/induction/right/su_SWS.wav","","null","","","","","","","","","","","","","","","",""
"html-button-response","67","93977","0.0-4.0-1.0-1.15","3","1","4kw6cl76hatyejp","","1153","","What sound did you hear?","0","","","0","INDUCTION-JUDGMENT","right","1","","","","","","","","","","",""
"html-keyboard-response","68","94979","0.0-4.0-1.0-2.15","3","1","4kw6cl76hatyejp","","null","","<p style=""color:red;""><b>Incorrect!</b></p>","","null","","","","","","","","","","","","","","","",""
"audio-keyboard-response","69","95779","0.0-4.0-1.0-0.16","3","1","4kw6cl76hatyejp","","null","","sounds/induction/left/fe_SWS.wav","","null","","","","","","","","","","","","","","","",""
"html-button-response","70","96354","0.0-4.0-1.0-1.16","3","1","4kw6cl76hatyejp","","574","","What sound did you hear?","1","","","1","INDUCTION-JUDGMENT","left","1","","","","","","","","","","",""
"html-keyboard-response","71","97356","0.0-4.0-1.0-2.16","3","1","4kw6cl76hatyejp","","null","","<p style=""color:green;""><b>Correct!</b></p>","","null","","","","","","","","","","","","","","","",""
"audio-keyboard-response","72","98158","0.0-4.0-1.0-0.17","3","1","4kw6cl76hatyejp","","null","","sounds/induction/right/fu_SWS.wav","","null","","","","","","","","","","","","","","","",""
"html-button-response","73","98896","0.0-4.0-1.0-1.17","3","1","4kw6cl76hatyejp","","738","","What sound did you hear?","0","","","1","INDUCTION-JUDGMENT","right","0","","","","","","","","","","",""
"html-keyboard-response","74","99898","0.0-4.0-1.0-2.17","3","1","4kw6cl76hatyejp","","null","","<p style=""color:green;""><b>Correct!</b></p>","","null","","","","","","","","","","","","","","","",""
"audio-keyboard-response","75","100699","0.0-4.0-1.0-0.18","3","1","4kw6cl76hatyejp","","null","","sounds/induction/right/pu_SWS.wav","","null","","","","","","","","","","","","","","","",""
"html-button-response","76","101528","0.0-4.0-1.0-1.18","3","1","4kw6cl76hatyejp","","828.0000000000146","","What sound did you hear?","0","","","0","INDUCTION-JUDGMENT","right","1","","","","","","","","","","",""
"html-keyboard-response","77","102529","0.0-4.0-1.0-2.18","3","1","4kw6cl76hatyejp","","null","","<p style=""color:red;""><b>Incorrect!</b></p>","","null","","","","","","","","","","","","","","","",""
"audio-keyboard-response","78","103331","0.0-4.0-1.0-0.19","3","1","4kw6cl76hatyejp","","null","","sounds/induction/left/ko_SWS.wav","","null","","","","","","","","","","","","","","","",""
"html-button-response","79","104617","0.0-4.0-1.0-1.19","3","1","4kw6cl76hatyejp","","1285","","What sound did you hear?","1","","","1","INDUCTION-JUDGMENT","left","1","","","","","","","","","","",""
"html-keyboard-response","80","105618","0.0-4.0-1.0-2.19","3","1","4kw6cl76hatyejp","","null","","<p style=""color:green;""><b>Correct!</b></p>","","null","","","","","","","","","","","","","","","",""
"audio-keyboard-response","81","106419","0.0-4.0-1.0-0.20","3","1","4kw6cl76hatyejp","","null","","sounds/induction/right/fe_SWS.wav","","null","","","","","","","","","","","","","","","",""
"html-button-response","82","107247","0.0-4.0-1.0-1.20","3","1","4kw6cl76hatyejp","","827","","What sound did you hear?","0","","","1","INDUCTION-JUDGMENT","right","0","","","","","","","","","","",""
"html-keyboard-response","83","108249","0.0-4.0-1.0-2.20","3","1","4kw6cl76hatyejp","","null","","<p style=""color:green;""><b>Correct!</b></p>","","null","","","","","","","","","","","","","","","",""
"audio-keyboard-response","84","109051","0.0-4.0-1.0-0.21","3","1","4kw6cl76hatyejp","","null","","sounds/induction/left/re_SWS.wav","","null","","","","","","","","","","","","","","","",""
"html-button-response","85","110214","0.0-4.0-1.0-1.21","3","1","4kw6cl76hatyejp","","1161.9999999999854","","What sound did you hear?","0","","","1","INDUCTION-JUDGMENT","left","0","","","","","","","","","","",""
"html-keyboard-response","86","111215","0.0-4.0-1.0-2.21","3","1","4kw6cl76hatyejp","","null","","<p style=""color:green;""><b>Correct!</b></p>","","null","","","","","","","","","","","","","","","",""
"audio-keyboard-response","87","112016","0.0-4.0-1.0-0.22","3","1","4kw6cl76hatyejp","","null","","sounds/induction/left/ta_SWS.wav","","null","","","","","","","","","","","","","","","",""
"html-button-response","88","112871","0.0-4.0-1.0-1.22","3","1","4kw6cl76hatyejp","","854","","What sound did you hear?","1","","","0","INDUCTION-JUDGMENT","left","0","","","","","","","","","","",""
"html-keyboard-response","89","113872","0.0-4.0-1.0-2.22","3","1","4kw6cl76hatyejp","","null","","<p style=""color:red;""><b>Incorrect!</b></p>","","null","","","","","","","","","","","","","","","",""
"audio-keyboard-response","90","114675","0.0-4.0-1.0-0.23","3","1","4kw6cl76hatyejp","","null","","sounds/induction/right/re_SWS.wav","","null","","","","","","","","","","","","","","","",""
"html-button-response","91","115747","0.0-4.0-1.0-1.23","3","1","4kw6cl76hatyejp","","1071","","What sound did you hear?","1","","","1","INDUCTION-JUDGMENT","right","1","","","","","","","","","","",""
"html-keyboard-response","92","116748","0.0-4.0-1.0-2.23","3","1","4kw6cl76hatyejp","","null","","<p style=""color:green;""><b>Correct!</b></p>","","null","","","","","","","","","","","","","","","",""
"audio-keyboard-response","93","117549","0.0-4.0-1.0-0.24","3","1","4kw6cl76hatyejp","","null","","sounds/induction/right/ge_SWS.wav","","null","","","","","","","","","","","","","","","",""
"html-button-response","94","118304","0.0-4.0-1.0-1.24","3","1","4kw6cl76hatyejp","","754","","What sound did you hear?","0","","","1","INDUCTION-JUDGMENT","right","0","","","","","","","","","","",""
"html-keyboard-response","95","119306","0.0-4.0-1.0-2.24","3","1","4kw6cl76hatyejp","","null","","<p style=""color:green;""><b>Correct!</b></p>","","null","","","","","","","","","","","","","","","",""
"audio-keyboard-response","96","120107","0.0-4.0-1.0-0.25","3","1","4kw6cl76hatyejp","","null","","sounds/induction/left/me_SWS.wav","","null","","","","","","","","","","","","","","","",""
"html-button-response","97","121074","0.0-4.0-1.0-1.25","3","1","4kw6cl76hatyejp","","967","","What sound did you hear?","1","","","1","INDUCTION-JUDGMENT","left","1","","","","","","","","","","",""
"html-keyboard-response","98","122076","0.0-4.0-1.0-2.25","3","1","4kw6cl76hatyejp","","null","","<p style=""color:green;""><b>Correct!</b></p>","","null","","","","","","","","","","","","","","","",""
"audio-keyboard-response","99","122877","0.0-4.0-1.0-0.26","3","1","4kw6cl76hatyejp","","null","","sounds/induction/left/ru_SWS.wav","","null","","","","","","","","","","","","","","","",""
"html-button-response","100","123346","0.0-4.0-1.0-1.26","3","1","4kw6cl76hatyejp","","468","","What sound did you hear?","0","","","1","INDUCTION-JUDGMENT","left","0","","","","","","","","","","",""
"html-keyboard-response","101","124347","0.0-4.0-1.0-2.26","3","1","4kw6cl76hatyejp","","null","","<p style=""color:green;""><b>Correct!</b></p>","","null","","","","","","","","","","","","","","","",""
"audio-keyboard-response","102","125149","0.0-4.0-1.0-0.27","3","1","4kw6cl76hatyejp","","null","","sounds/induction/right/ni_SWS.wav","","null","","","","","","","","","","","","","","","",""
"html-button-response","103","125813","0.0-4.0-1.0-1.27","3","1","4kw6cl76hatyejp","","664.0000000000146","","What sound did you hear?","1","","","0","INDUCTION-JUDGMENT","right","0","","","","","","","","","","",""
"html-keyboard-response","104","126815","0.0-4.0-1.0-2.27","3","1","4kw6cl76hatyejp","","null","","<p style=""color:red;""><b>Incorrect!</b></p>","","null","","","","","","","","","","","","","","","",""
"audio-keyboard-response","105","127616","0.0-4.0-1.0-0.28","3","1","4kw6cl76hatyejp","","null","","sounds/induction/left/pu_SWS.wav","","null","","","","","","","","","","","","","","","",""
"html-button-response","106","128183","0.0-4.0-1.0-1.28","3","1","4kw6cl76hatyejp","","567","","What sound did you hear?","0","","","1","INDUCTION-JUDGMENT","left","0","","","","","","","","","","",""
"html-keyboard-response","107","129185","0.0-4.0-1.0-2.28","3","1","4kw6cl76hatyejp","","null","","<p style=""color:green;""><b>Correct!</b></p>","","null","","","","","","","","","","","","","","","",""
"audio-keyboard-response","108","129987","0.0-4.0-1.0-0.29","3","1","4kw6cl76hatyejp","","null","","sounds/induction/left/ni_SWS.wav","","null","","","","","","","","","","","","","","","",""
"html-button-response","109","130488","0.0-4.0-1.0-1.29","3","1","4kw6cl76hatyejp","","500.9999999999709","","What sound did you hear?","1","","","1","INDUCTION-JUDGMENT","left","1","","","","","","","","","","",""
"html-keyboard-response","110","131490","0.0-4.0-1.0-2.29","3","1","4kw6cl76hatyejp","","null","","<p style=""color:green;""><b>Correct!</b></p>","","null","","","","","","","","","","","","","","","",""
"audio-keyboard-response","111","132290","0.0-4.0-1.0-0.30","3","1","4kw6cl76hatyejp","","null","","sounds/induction/left/ge_SWS.wav","","null","","","","","","","","","","","","","","","",""
"html-button-response","112","133070","0.0-4.0-1.0-1.30","3","1","4kw6cl76hatyejp","","779","","What sound did you hear?","0","","","0","INDUCTION-JUDGMENT","left","1","","","","","","","","","","",""
"html-keyboard-response","113","134072","0.0-4.0-1.0-2.30","3","1","4kw6cl76hatyejp","","null","","<p style=""color:red;""><b>Incorrect!</b></p>","","null","","","","","","","","","","","","","","","",""
"audio-keyboard-response","114","134874","0.0-4.0-1.0-0.31","3","1","4kw6cl76hatyejp","","null","","sounds/induction/left/ti_SWS.wav","","null","","","","","","","","","","","","","","","",""
"html-button-response","115","135530","0.0-4.0-1.0-1.31","3","1","4kw6cl76hatyejp","","654","","What sound did you hear?","0","","","1","INDUCTION-JUDGMENT","left","0","","","","","","","","","","",""
"html-keyboard-response","116","136531","0.0-4.0-1.0-2.31","3","1","4kw6cl76hatyejp","","null","","<p style=""color:green;""><b>Correct!</b></p>","","null","","","","","","","","","","","","","","","",""
"audio-keyboard-response","117","137333","0.0-4.0-1.0-0.32","3","1","4kw6cl76hatyejp","","null","","sounds/induction/right/ni_SWS.wav","","null","","","","","","","","","","","","","","","",""
"html-button-response","118","138701","0.0-4.0-1.0-1.32","3","1","4kw6cl76hatyejp","","1368.000000000029","","What sound did you hear?","0","","","1","INDUCTION-JUDGMENT","right","0","","","","","","","","","","",""
"html-keyboard-response","119","139703","0.0-4.0-1.0-2.32","3","1","4kw6cl76hatyejp","","null","","<p style=""color:green;""><b>Correct!</b></p>","","null","","","","","","","","","","","","","","","",""
"audio-keyboard-response","120","140504","0.0-4.0-1.0-0.33","3","1","4kw6cl76hatyejp","","null","","sounds/induction/left/pu_SWS.wav","","null","","","","","","","","","","","","","","","",""
"html-button-response","121","141104","0.0-4.0-1.0-1.33","3","1","4kw6cl76hatyejp","","600","","What sound did you hear?","0","","","1","INDUCTION-JUDGMENT","left","0","","","","","","","","","","",""
"html-keyboard-response","122","142105","0.0-4.0-1.0-2.33","3","1","4kw6cl76hatyejp","","null","","<p style=""color:green;""><b>Correct!</b></p>","","null","","","","","","","","","","","","","","","",""
"audio-keyboard-response","123","142906","0.0-4.0-1.0-0.34","3","1","4kw6cl76hatyejp","","null","","sounds/induction/right/me_SWS.wav","","null","","","","","","","","","","","","","","","",""
"html-button-response","124","143611","0.0-4.0-1.0-1.34","3","1","4kw6cl76hatyejp","","705.0000000000291","","What sound did you hear?","0","","","1","INDUCTION-JUDGMENT","right","0","","","","","","","","","","",""
"html-keyboard-response","125","144613","0.0-4.0-1.0-2.34","3","1","4kw6cl76hatyejp","","null","","<p style=""color:green;""><b>Correct!</b></p>","","null","","","","","","","","","","","","","","","",""
"audio-keyboard-response","126","145415","0.0-4.0-1.0-0.35","3","1","4kw6cl76hatyejp","","null","","sounds/induction/right/ti_SWS.wav","","null","","","","","","","","","","","","","","","",""
"html-button-response","127","146480","0.0-4.0-1.0-1.35","3","1","4kw6cl76hatyejp","","1064","","What sound did you hear?","0","","","0","INDUCTION-JUDGMENT","right","1","","","","","","","","","","",""
"html-keyboard-response","128","147481","0.0-4.0-1.0-2.35","3","1","4kw6cl76hatyejp","","null","","<p style=""color:red;""><b>Incorrect!</b></p>","","null","","","","","","","","","","","","","","","",""
"audio-keyboard-response","129","148282","0.0-4.0-1.0-0.36","3","1","4kw6cl76hatyejp","","null","","sounds/induction/left/re_SWS.wav","","null","","","","","","","","","","","","","","","",""
"html-button-response","130","148908","0.0-4.0-1.0-1.36","3","1","4kw6cl76hatyejp","","625","","What sound did you hear?","0","","","1","INDUCTION-JUDGMENT","left","0","","","","","","","","","","",""
"html-keyboard-response","131","149909","0.0-4.0-1.0-2.36","3","1","4kw6cl76hatyejp","","null","","<p style=""color:green;""><b>Correct!</b></p>","","null","","","","","","","","","","","","","","","",""
"audio-keyboard-response","132","150711","0.0-4.0-1.0-0.37","3","1","4kw6cl76hatyejp","","null","","sounds/induction/right/ge_SWS.wav","","null","","","","","","","","","","","","","","","",""
"html-button-response","133","151489","0.0-4.0-1.0-1.37","3","1","4kw6cl76hatyejp","","777","","What sound did you hear?","0","","","1","INDUCTION-JUDGMENT","right","0","","","","","","","","","","",""
"html-keyboard-response","134","152490","0.0-4.0-1.0-2.37","3","1","4kw6cl76hatyejp","","null","","<p style=""color:green;""><b>Correct!</b></p>","","null","","","","","","","","","","","","","","","",""
"audio-keyboard-response","135","153293","0.0-4.0-1.0-0.38","3","1","4kw6cl76hatyejp","","null","","sounds/induction/right/ko_SWS.wav","","null","","","","","","","","","","","","","","","",""
"html-button-response","136","154128","0.0-4.0-1.0-1.38","3","1","4kw6cl76hatyejp","","836","","What sound did you hear?","1","","","0","INDUCTION-JUDGMENT","right","0","","","","","","","","","","",""
"html-keyboard-response","137","155130","0.0-4.0-1.0-2.38","3","1","4kw6cl76hatyejp","","null","","<p style=""color:red;""><b>Incorrect!</b></p>","","null","","","","","","","","","","","","","","","",""
"audio-keyboard-response","138","155932","0.0-4.0-1.0-0.39","3","1","4kw6cl76hatyejp","","null","","sounds/induction/right/ta_SWS.wav","","null","","","","","","","","","","","","","","","",""
"html-button-response","139","157045","0.0-4.0-1.0-1.39","3","1","4kw6cl76hatyejp","","1113","","What sound did you hear?","1","","","1","INDUCTION-JUDGMENT","right","1","","","","","","","","","","",""
"html-keyboard-response","140","158047","0.0-4.0-1.0-2.39","3","1","4kw6cl76hatyejp","","null","","<p style=""color:green;""><b>Correct!</b></p>","","null","","","","","","","","","","","","","","","",""
"audio-keyboard-response","141","158847","0.0-4.0-1.0-0.40","3","1","4kw6cl76hatyejp","","null","","sounds/induction/left/me_SWS.wav","","null","","","","","","","","","","","","","","","",""
"html-button-response","142","159316","0.0-4.0-1.0-1.40","3","1","4kw6cl76hatyejp","","468","","What sound did you hear?","0","","","0","INDUCTION-JUDGMENT","left","1","","","","","","","","","","",""
"html-keyboard-response","143","160318","0.0-4.0-1.0-2.40","3","1","4kw6cl76hatyejp","","null","","<p style=""color:red;""><b>Incorrect!</b></p>","","null","","","","","","","","","","","","","","","",""
"audio-keyboard-response","144","161119","0.0-4.0-1.0-0.41","3","1","4kw6cl76hatyejp","","null","","sounds/induction/left/su_SWS.wav","","null","","","","","","","","","","","","","","","",""
"html-button-response","145","162421","0.0-4.0-1.0-1.41","3","1","4kw6cl76hatyejp","","1302","","What sound did you hear?","0","","","1","INDUCTION-JUDGMENT","left","0","","","","","","","","","","",""
"html-keyboard-response","146","163423","0.0-4.0-1.0-2.41","3","1","4kw6cl76hatyejp","","null","","<p style=""color:green;""><b>Correct!</b></p>","","null","","","","","","","","","","","","","","","",""
"audio-keyboard-response","147","164226","0.0-4.0-1.0-0.42","3","1","4kw6cl76hatyejp","","null","","sounds/induction/right/ko_SWS.wav","","null","","","","","","","","","","","","","","","",""
"html-button-response","148","165134","0.0-4.0-1.0-1.42","3","1","4kw6cl76hatyejp","","908","","What sound did you hear?","1","","","0","INDUCTION-JUDGMENT","right","0","","","","","","","","","","",""
"html-keyboard-response","149","166135","0.0-4.0-1.0-2.42","3","1","4kw6cl76hatyejp","","null","","<p style=""color:red;""><b>Incorrect!</b></p>","","null","","","","","","","","","","","","","","","",""
"audio-keyboard-response","150","166935","0.0-4.0-1.0-0.43","3","1","4kw6cl76hatyejp","","null","","sounds/induction/left/ko_SWS.wav","","null","","","","","","","","","","","","","","","",""
"html-button-response","151","167904","0.0-4.0-1.0-1.43","3","1","4kw6cl76hatyejp","","969","","What sound did you hear?","1","","","1","INDUCTION-JUDGMENT","left","1","","","","","","","","","","",""
"html-keyboard-response","152","168905","0.0-4.0-1.0-2.43","3","1","4kw6cl76hatyejp","","null","","<p style=""color:green;""><b>Correct!</b></p>","","null","","","","","","","","","","","","","","","",""
"audio-keyboard-response","153","169708","0.0-4.0-1.0-0.44","3","1","4kw6cl76hatyejp","","null","","sounds/induction/left/ge_SWS.wav","","null","","","","","","","","","","","","","","","",""
"html-button-response","154","170862","0.0-4.0-1.0-1.44","3","1","4kw6cl76hatyejp","","1154","","What sound did you hear?","0","","","0","INDUCTION-JUDGMENT","left","1","","","","","","","","","","",""
"html-keyboard-response","155","171864","0.0-4.0-1.0-2.44","3","1","4kw6cl76hatyejp","","null","","<p style=""color:red;""><b>Incorrect!</b></p>","","null","","","","","","","","","","","","","","","",""
"audio-keyboard-response","156","172665","0.0-4.0-1.0-0.45","3","1","4kw6cl76hatyejp","","null","","sounds/induction/left/ti_SWS.wav","","null","","","","","","","","","","","","","","","",""
"html-button-response","157","173878","0.0-4.0-1.0-1.45","3","1","4kw6cl76hatyejp","","1212","","What sound did you hear?","0","","","1","INDUCTION-JUDGMENT","left","0","","","","","","","","","","",""
"html-keyboard-response","158","174880","0.0-4.0-1.0-2.45","3","1","4kw6cl76hatyejp","","null","","<p style=""color:green;""><b>Correct!</b></p>","","null","","","","","","","","","","","","","","","",""
"audio-keyboard-response","159","175681","0.0-4.0-1.0-0.46","3","1","4kw6cl76hatyejp","","null","","sounds/induction/right/re_SWS.wav","","null","","","","","","","","","","","","","","","",""
"html-button-response","160","176657","0.0-4.0-1.0-1.46","3","1","4kw6cl76hatyejp","","975","","What sound did you hear?","1","","","1","INDUCTION-JUDGMENT","right","1","","","","","","","","","","",""
"html-keyboard-response","161","177659","0.0-4.0-1.0-2.46","3","1","4kw6cl76hatyejp","","null","","<p style=""color:green;""><b>Correct!</b></p>","","null","","","","","","","","","","","","","","","",""
"audio-keyboard-response","162","178460","0.0-4.0-1.0-0.47","3","1","4kw6cl76hatyejp","","null","","sounds/induction/right/ti_SWS.wav","","null","","","","","","","","","","","","","","","",""
"html-button-response","163","179353","0.0-4.0-1.0-1.47","3","1","4kw6cl76hatyejp","","893","","What sound did you hear?","0","","","0","INDUCTION-JUDGMENT","right","1","","","","","","","","","","",""
"html-keyboard-response","164","180355","0.0-4.0-1.0-2.47","3","1","4kw6cl76hatyejp","","null","","<p style=""color:red;""><b>Incorrect!</b></p>","","null","","","","","","","","","","","","","","","",""
"html-button-response","165","182288","0.0-5.0-0.0","3","1","4kw6cl76hatyejp","","1431","","<p>Thank you for your answers.</p><p>You will now listen to similar sounds. The main difference is that the sounds will be longer and will make up complete sentences.</p><p>Please listen carefully to each sentence. After each sentence, you will be asked to type back what you heard to the best of your ability. After you provide your response, you will be given feedback about the correct answer.</p><p>There are 10 sentences in total.","0","","","","","","","","","","","","","","","","",""
"audio-keyboard-response","166","185014","0.0-5.0-1.0-0.0","3","1","4kw6cl76hatyejp","","null","","sounds/sentences/right/14_09_cfSWS.wav","","null","","","","","","","","","","","","","","","",""
"sentence-resp","167","197318","0.0-5.0-1.0-1.0","3","1","4kw6cl76hatyejp","","12303","","","","","","","SWS-SENT-RESPONSE","","","{""Q0"":""This clown is about to take a bad turn""}","We frown when events take a bad turn.","frown,events,take,bad,turn","THIS CLOWN IS ABOUT TO TAKE A BAD TURN","0","0","1","1","1","3","0.6"
"html-keyboard-response","168","198570","0.0-5.0-1.0-2.0","3","1","4kw6cl76hatyejp","","null","","","","null","","","","","","","","","","","","","","","",""
"audio-keyboard-response","169","200794","0.0-5.0-1.0-3.0","3","1","4kw6cl76hatyejp","","null","","sounds/sentences/right/14_09_cfSWS.wav","","null","","","","","","","","","","","","","","","",""
"html-keyboard-response","170","201796","0.0-5.0-1.0-4.0","3","1","4kw6cl76hatyejp","","null","","","","null","","","","","","","","","","","","","","","",""
"html-button-response","171","203053","0.0-5.0-1.0-5.0","3","1","4kw6cl76hatyejp","","755","","<p>Press the button below when you are ready to continue.</p>","0","","","","","","","","","","","","","","","","",""
"audio-keyboard-response","172","205872","0.0-5.0-1.0-0.1","3","1","4kw6cl76hatyejp","","null","","sounds/sentences/left/14_02_cfSWS.wav","","null","","","","","","","","","","","","","","","",""
"sentence-resp","173","213976","0.0-5.0-1.0-1.1","3","1","4kw6cl76hatyejp","","8104","","","","","","","SWS-SENT-RESPONSE","","","{""Q0"":""he said the same phrase 30 times""}","He said the same phrase thirty times.","said,same,phrase,thirty,times","HE SAID THE SAME PHRASE 30 TIMES","1","1","1","0","1","4","0.8"
"html-keyboard-response","174","215228","0.0-5.0-1.0-2.1","3","1","4kw6cl76hatyejp","","null","","","","null","","","","","","","","","","","","","","","",""
"audio-keyboard-response","175","217546","0.0-5.0-1.0-3.1","3","1","4kw6cl76hatyejp","","null","","sounds/sentences/left/14_02_cfSWS.wav","","null","","","","","","","","","","","","","","","",""
"html-keyboard-response","176","218548","0.0-5.0-1.0-4.1","3","1","4kw6cl76hatyejp","","null","","","","null","","","","","","","","","","","","","","","",""
"html-button-response","177","220163","0.0-5.0-1.0-5.1","3","1","4kw6cl76hatyejp","","1114.000000000029","","<p>Press the button below when you are ready to continue.</p>","0","","","","","","","","","","","","","","","","",""
"audio-keyboard-response","178","223178","0.0-5.0-1.0-0.2","3","1","4kw6cl76hatyejp","","null","","sounds/sentences/right/14_10_cfSWS.wav","","null","","","","","","","","","","","","","","","",""
"sentence-resp","179","232514","0.0-5.0-1.0-1.2","3","1","4kw6cl76hatyejp","","9336","","","","","","","SWS-SENT-RESPONSE","","","{""Q0"":""Corn is a strong lime with a smoky taste.""}","Port is a strong wine with a smoky taste.","port,strong,wine,smoky,taste","CORN IS A STRONG LIME WITH A SMOKY TASTE","0","1","0","1","1","3","0.6"
"html-keyboard-response","180","233766","0.0-5.0-1.0-2.2","3","1","4kw6cl76hatyejp","","null","","","","null","","","","","","","","","","","","","","","",""
"audio-keyboard-response","181","236279","0.0-5.0-1.0-3.2","3","1","4kw6cl76hatyejp","","null","","sounds/sentences/right/14_10_cfSWS.wav","","null","","","","","","","","","","","","","","","",""
"html-keyboard-response","182","237280","0.0-5.0-1.0-4.2","3","1","4kw6cl76hatyejp","","null","","","","null","","","","","","","","","","","","","","","",""
"html-button-response","183","238479","0.0-5.0-1.0-5.2","3","1","4kw6cl76hatyejp","","697.9999999999709","","<p>Press the button below when you are ready to continue.</p>","0","","","","","","","","","","","","","","","","",""
"audio-keyboard-response","184","241034","0.0-5.0-1.0-0.3","3","1","4kw6cl76hatyejp","","null","","sounds/sentences/left/14_04_cfSWS.wav","","null","","","","","","","","","","","","","","","",""
"sentence-resp","185","250132","0.0-5.0-1.0-1.3","3","1","4kw6cl76hatyejp","","9097","","","","","","","SWS-SENT-RESPONSE","","","{""Q0"":""Two plus seven is less when""}","Two plus seven is less than ten.","two,plus,seven,less,ten","TWO PLUS SEVEN IS LESS WHEN","1","1","1","1","0","4","0.8"
"html-keyboard-response","186","251383","0.0-5.0-1.0-2.3","3","1","4kw6cl76hatyejp","","null","","","","null","","","","","","","","","","","","","","","",""
"audio-keyboard-response","187","253436","0.0-5.0-1.0-3.3","3","1","4kw6cl76hatyejp","","null","","sounds/sentences/left/14_04_cfSWS.wav","","null","","","","","","","","","","","","","","","",""
"html-keyboard-response","188","254438","0.0-5.0-1.0-4.3","3","1","4kw6cl76hatyejp","","null","","","","null","","","","","","","","","","","","","","","",""
"html-button-response","189","256835","0.0-5.0-1.0-5.3","3","1","4kw6cl76hatyejp","","1896.000000000029","","<p>Press the button below when you are ready to continue.</p>","0","","","","","","","","","","","","","","","","",""
"audio-keyboard-response","190","259577","0.0-5.0-1.0-0.4","3","1","4kw6cl76hatyejp","","null","","sounds/sentences/right/14_06_cfSWS.wav","","null","","","","","","","","","","","","","","","",""
"sentence-resp","191","267304","0.0-5.0-1.0-1.4","3","1","4kw6cl76hatyejp","","7727","","","","","","","SWS-SENT-RESPONSE","","","{""Q0"":""Bring your problems to the wise chief\n""}","Bring your problems to the wise chief.","bring,your,problems,wise,chief","BRING YOUR PROBLEMS TO THE WISE CHIEF ","1","1","1","1","1","5","1"
"html-keyboard-response","192","268555","0.0-5.0-1.0-2.4","3","1","4kw6cl76hatyejp","","null","","","","null","","","","","","","","","","","","","","","",""
"audio-keyboard-response","193","270796","0.0-5.0-1.0-3.4","3","1","4kw6cl76hatyejp","","null","","sounds/sentences/right/14_06_cfSWS.wav","","null","","","","","","","","","","","","","","","",""
"html-keyboard-response","194","271797","0.0-5.0-1.0-4.4","3","1","4kw6cl76hatyejp","","null","","","","null","","","","","","","","","","","","","","","",""
"html-button-response","195","273229","0.0-5.0-1.0-5.4","3","1","4kw6cl76hatyejp","","931","","<p>Press the button below when you are ready to continue.</p>","0","","","","","","","","","","","","","","","","",""
"audio-keyboard-response","196","276217","0.0-5.0-1.0-0.5","3","1","4kw6cl76hatyejp","","null","","sounds/sentences/left/14_05_cfSWS.wav","","null","","","","","","","","","","","","","","","",""
"sentence-resp","197","284713","0.0-5.0-1.0-1.5","3","1","4kw6cl76hatyejp","","8496","","","","","","","SWS-SENT-RESPONSE","","","{""Q0"":""The clothes look into the eyes of the sweet girl""}","The glow deepened in the eyes of the sweet girl.","glow,deepened,eyes,sweet,girl","THE CLOTHES LOOK INTO THE EYES OF THE SWEET GIRL","0","0","1","1","1","3","0.6"
"html-keyboard-response","198","285965","0.0-5.0-1.0-2.5","3","1","4kw6cl76hatyejp","","null","","","","null","","","","","","","","","","","","","","","",""
"audio-keyboard-response","199","288454","0.0-5.0-1.0-3.5","3","1","4kw6cl76hatyejp","","null","","sounds/sentences/left/14_05_cfSWS.wav","","null","","","","","","","","","","","","","","","",""
"html-keyboard-response","200","289456","0.0-5.0-1.0-4.5","3","1","4kw6cl76hatyejp","","null","","","","null","","","","","","","","","","","","","","","",""
"html-button-response","201","290532","0.0-5.0-1.0-5.5","3","1","4kw6cl76hatyejp","","574","","<p>Press the button below when you are ready to continue.</p>","0","","","","","","","","","","","","","","","","",""
"audio-keyboard-response","202","293288","0.0-5.0-1.0-0.6","3","1","4kw6cl76hatyejp","","null","","sounds/sentences/right/14_08_cfSWS.wav","","null","","","","","","","","","","","","","","","",""
"sentence-resp","203","303234","0.0-5.0-1.0-1.6","3","1","4kw6cl76hatyejp","","9944","","","","","","","SWS-SENT-RESPONSE","","","{""Q0"":""Close in-lodging are free to new men""}","Clothes and lodging are free to new men.","clothes,lodging,free,new,men","CLOSE IN-LODGING ARE FREE TO NEW MEN","0","0","1","1","1","3","0.6"
"html-keyboard-response","204","304486","0.0-5.0-1.0-2.6","3","1","4kw6cl76hatyejp","","null","","","","null","","","","","","","","","","","","","","","",""
"audio-keyboard-response","205","306741","0.0-5.0-1.0-3.6","3","1","4kw6cl76hatyejp","","null","","sounds/sentences/right/14_08_cfSWS.wav","","null","","","","","","","","","","","","","","","",""
"html-keyboard-response","206","307743","0.0-5.0-1.0-4.6","3","1","4kw6cl76hatyejp","","null","","","","null","","","","","","","","","","","","","","","",""
"html-button-response","207","309189","0.0-5.0-1.0-5.6","3","1","4kw6cl76hatyejp","","945","","<p>Press the button below when you are ready to continue.</p>","0","","","","","","","","","","","","","","","","",""
"audio-keyboard-response","208","312077","0.0-5.0-1.0-0.7","3","1","4kw6cl76hatyejp","","null","","sounds/sentences/right/14_07_cfSWS.wav","","null","","","","","","","","","","","","","","","",""
"sentence-resp","209","322296","0.0-5.0-1.0-1.7","3","1","4kw6cl76hatyejp","","10219","","","","","","","SWS-SENT-RESPONSE","","","{""Q0"":""write a small note to the friends you cherish""}","Write a fond note to the friend you cherish.","write,fond,note,friend,cherish","WRITE A SMALL NOTE TO THE FRIENDS YOU CHERISH","1","0","1","0","1","3","0.6"
"html-keyboard-response","210","323547","0.0-5.0-1.0-2.7","3","1","4kw6cl76hatyejp","","null","","","","null","","","","","","","","","","","","","","","",""
"audio-keyboard-response","211","325935","0.0-5.0-1.0-3.7","3","1","4kw6cl76hatyejp","","null","","sounds/sentences/right/14_07_cfSWS.wav","","null","","","","","","","","","","","","","","","",""
"html-keyboard-response","212","326937","0.0-5.0-1.0-4.7","3","1","4kw6cl76hatyejp","","null","","","","null","","","","","","","","","","","","","","","",""
"html-button-response","213","328507","0.0-5.0-1.0-5.7","3","1","4kw6cl76hatyejp","","1069","","<p>Press the button below when you are ready to continue.</p>","0","","","","","","","","","","","","","","","","",""
"audio-keyboard-response","214","331090","0.0-5.0-1.0-0.8","3","1","4kw6cl76hatyejp","","null","","sounds/sentences/left/14_03_cfSWS.wav","","null","","","","","","","","","","","","","","","",""
"sentence-resp","215","340198","0.0-5.0-1.0-1.8","3","1","4kw6cl76hatyejp","","9108","","","","","","","SWS-SENT-RESPONSE","","","{""Q0"":""Lots of fried rice without leaves""}","Pluck the bright rose without leaves.","pluck,bright,rose,without,leaves","LOTS OF FRIED RICE WITHOUT LEAVES","0","0","0","1","1","2","0.4"
"html-keyboard-response","216","341451","0.0-5.0-1.0-2.8","3","1","4kw6cl76hatyejp","","null","","","","null","","","","","","","","","","","","","","","",""
"audio-keyboard-response","217","343532","0.0-5.0-1.0-3.8","3","1","4kw6cl76hatyejp","","null","","sounds/sentences/left/14_03_cfSWS.wav","","null","","","","","","","","","","","","","","","",""
"html-keyboard-response","218","344534","0.0-5.0-1.0-4.8","3","1","4kw6cl76hatyejp","","null","","","","null","","","","","","","","","","","","","","","",""
"html-button-response","219","345771","0.0-5.0-1.0-5.8","3","1","4kw6cl76hatyejp","","735.0000000000582","","<p>Press the button below when you are ready to continue.</p>","0","","","","","","","","","","","","","","","","",""
"audio-keyboard-response","220","348887","0.0-5.0-1.0-0.9","3","1","4kw6cl76hatyejp","","null","","sounds/sentences/left/14_01_cfSWS.wav","","null","","","","","","","","","","","","","","","",""
"sentence-resp","221","360684","0.0-5.0-1.0-1.9","3","1","4kw6cl76hatyejp","","11797","","","","","","","SWS-SENT-RESPONSE","","","{""Q0"":""A crab is no small danger on a swim""}","A cramp is no small danger on a swim.","cramp,no,small,danger,swim","A CRAB IS NO SMALL DANGER ON A SWIM","0","1","1","1","1","4","0.8"
"html-keyboard-response","222","361935","0.0-5.0-1.0-2.9","3","1","4kw6cl76hatyejp","","null","","","","null","","","","","","","","","","","","","","","",""
"audio-keyboard-response","223","364550","0.0-5.0-1.0-3.9","3","1","4kw6cl76hatyejp","","null","","sounds/sentences/left/14_01_cfSWS.wav","","null","","","","","","","","","","","","","","","",""
"html-keyboard-response","224","365552","0.0-5.0-1.0-4.9","3","1","4kw6cl76hatyejp","","null","","","","null","","","","","","","","","","","","","","","",""
"html-button-response","225","370884","0.0-5.0-1.0-5.9","3","1","4kw6cl76hatyejp","","4830","","<p>Press the button below when you are ready to continue.</p>","0","","","","","","","","","","","","","","","","",""
"html-keyboard-response","226","400362","0.0-6.0-0.0","3","1","4kw6cl76hatyejp","","28976","","<p>In this part of the study, you will hear sounds similar to those you just heard.</p><p>Please focus on these sounds, as you may be asked questions about them later.</p><p>Occasionally, the sounds will pause for up to two seconds. When this happens, please press SPACEBAR as quickly as you can.</br>This helps ensure that you are paying attention to the sounds.</p><p>This part of the study will take about 12 minutes to complete, and you will be given the opportunity to take a couple of short breaks every few minutes.</p><p><strong>Press SPACEBAR to begin</strong></p>","","32","","","","","","","","","","","","","","","",""
"html-keyboard-response","227","401363","0.0-6.0-1.0-0.0","3","1","4kw6cl76hatyejp","","null","","<p style=""font-size: 40px;"">+</p>","","null","","","","","","","","","","","","","","","",""
