"trial_type","trial_index","time_elapsed","internal_node_id","counterbalance","lang_instruct","ParticipantID","view_history","rt","url","stimulus","button_pressed","key_press","correctRESP","correct","designation","location","correctanswer","timeouts","pause_rt01","pause_rt02","train_file","numKeyPress","sound","fam_type","SYLLABLE","EXEMPLAR","TD_LOCS","TD_TYPE","TDLOC_01","TDLOC_02","TDLOC_03","TDLOC_04","TD_RT_01","TD_RT_02","TD_RT_03","TD_RT_04","TD_SUBJ_RTs","number_of_plays","responses","slider_start","response","question_order","syllable","syllable_type"
"pavlovia","0","4","0.0-0.0","1","0","p4ma7vw34euptou","","","","","","","","","","","","","","","","","","","","","","","","","","","","","","","","","","","","","",""
"instructions","1","148423","0.0-1.0","1","0","p4ma7vw34euptou","[{""page_index"":0,""viewing_time"":6261.699999928474},{""page_index"":1,""viewing_time"":142127.80000007153}]","148392.10000002384","","","","","","","","","","","","","","","","","","","","","","","","","","","","","","","","","","","",""
"external-html","2","186547","0.0-2.0","1","0","p4ma7vw34euptou","","37976.700000047684","consent/consent.html","","","","","","","","","","","","","","","","","","","","","","","","","","","","","","","","","","",""
"html-button-response","3","195338","0.0-3.0-0.0-0.0","1","0","p4ma7vw34euptou","","8788.800000071526","","<p>Welcome to the study. You will first complete a short volume calibration and headphone check.</p><p>Please make sure you are in a quiet listening environment, that you are wearing headphones, and that your computer's volume is turned on.<p></p>","0","","","","","","","","","","","","","","","","","","","","","","","","","","","","","","","","",""
"html-button-response","4","201046","0.0-3.0-0.0-1.0","1","0","p4ma7vw34euptou","","5452.799999952316","","<p>The volume calibration will be first.</p><p>You will hear a thirty-second noise. Please adjust your computer's volume so that this noise is being presented at a comfortable level.<p></p>","0","","","","","","","","","","","","","","","","","","","","","","","","","","","","","","","","",""
"audio-button-response","5","212991","0.0-3.0-0.0-2.0","1","0","p4ma7vw34euptou","","11259","","audCalib/volumetest.mp3","0","","","","","","","","","","","","","","","","","","","","","","","","","","","","","","","","",""
"html-button-response","6","222554","0.0-3.0-1.0-0.0","1","0","p4ma7vw34euptou","","9561.100000023842","","<p>You will now complete a short headphone check.</p><p>On each trial, you will hear three tones. One of these tones will be quieter than the others. Your task is to identify whether the quiet tone occured first, second, or third.</p><p>There are six trials in total.<p></p>","0","","","","","","","","","","","","","","","","","","","","","","","","","","","","","","","","",""
"html-keyboard-response","7","223310","0.0-3.0-1.0-1.0-0.0","1","0","p4ma7vw34euptou","","null","","<div style=""font-size:60px;"">+</div>","","null","","","","","","","","","","","","","","","","","","","","","","","","","","","","","","","",""
"audio-button-response","8","228335","0.0-3.0-1.0-1.0-1.0","1","0","p4ma7vw34euptou","","5024","","audCalib/t3_2.mp3","2","","2","1","headphone-test","","","","","","","","","","","","","","","","","","","","","","","","","","","","",""
"html-keyboard-response","9","229091","0.0-3.0-1.0-1.0-0.1","1","0","p4ma7vw34euptou","","null","","<div style=""font-size:60px;"">+</div>","","null","","","","","","","","","","","","","","","","","","","","","","","","","","","","","","","",""
"audio-button-response","10","233594","0.0-3.0-1.0-1.0-1.1","1","0","p4ma7vw34euptou","","4501","","audCalib/t1_1.mp3","0","","0","1","headphone-test","","","","","","","","","","","","","","","","","","","","","","","","","","","","",""
"html-keyboard-response","11","234350","0.0-3.0-1.0-1.0-0.2","1","0","p4ma7vw34euptou","","null","","<div style=""font-size:60px;"">+</div>","","null","","","","","","","","","","","","","","","","","","","","","","","","","","","","","","","",""
"audio-button-response","12","238827","0.0-3.0-1.0-1.0-1.2","1","0","p4ma7vw34euptou","","4475","","audCalib/t1_2.mp3","0","","0","1","headphone-test","","","","","","","","","","","","","","","","","","","","","","","","","","","","",""
"html-keyboard-response","13","239582","0.0-3.0-1.0-1.0-0.3","1","0","p4ma7vw34euptou","","null","","<div style=""font-size:60px;"">+</div>","","null","","","","","","","","","","","","","","","","","","","","","","","","","","","","","","","",""
"audio-button-response","14","243921","0.0-3.0-1.0-1.0-1.3","1","0","p4ma7vw34euptou","","4336","","audCalib/t2_1.mp3","1","","1","1","headphone-test","","","","","","","","","","","","","","","","","","","","","","","","","","","","",""
"html-keyboard-response","15","244674","0.0-3.0-1.0-1.0-0.4","1","0","p4ma7vw34euptou","","null","","<div style=""font-size:60px;"">+</div>","","null","","","","","","","","","","","","","","","","","","","","","","","","","","","","","","","",""
"audio-button-response","16","248864","0.0-3.0-1.0-1.0-1.4","1","0","p4ma7vw34euptou","","4187","","audCalib/t2_2.mp3","1","","1","1","headphone-test","","","","","","","","","","","","","","","","","","","","","","","","","","","","",""
"html-keyboard-response","17","249620","0.0-3.0-1.0-1.0-0.5","1","0","p4ma7vw34euptou","","null","","<div style=""font-size:60px;"">+</div>","","null","","","","","","","","","","","","","","","","","","","","","","","","","","","","","","","",""
"audio-button-response","18","253662","0.0-3.0-1.0-1.0-1.5","1","0","p4ma7vw34euptou","","4037","","audCalib/t3_1.mp3","2","","2","1","headphone-test","","","","","","","","","","","","","","","","","","","","","","","","","","","","",""
"html-button-response","19","256319","0.0-3.0-2.0","1","0","p4ma7vw34euptou","","2404.600000023842","","<p>The volume calibration and headphone check are now complete.</p>","0","","","","","","","","","","","","","","","","","","","","","","","","","","","","","","","","",""
"instructions","20","274707","0.0-4.0-0.0","1","0","p4ma7vw34euptou","[{""page_index"":0,""viewing_time"":1483.6000000238419},{""page_index"":1,""viewing_time"":13426.100000023842},{""page_index"":2,""viewing_time"":3477.0999999046326}]","18387.200000047684","","","","","","","","","","","","","","","","","","","","","","","","","","","","","","","","","","","",""
"audio-keyboard-response","21","275013","0.0-4.0-1.0-0.0","1","0","p4ma7vw34euptou","","null","","sounds/induction/left_rev/pu_SWS.wav","","null","","","","","","","","","","","","","","","","","","","","","","","","","","","","","","","",""
"html-button-response","22","278214","0.0-4.0-1.0-1.0","1","0","p4ma7vw34euptou","","3199.7000000476837","","Was the sound coming from the left or the right?","0","","","1","INDUCTION-JUDGMENT","left","0","","","","","","","","","","","","","","","","","","","","","","","","","","",""
"html-keyboard-response","23","279220","0.0-4.0-1.0-2.0","1","0","p4ma7vw34euptou","","null","","<p style=""color:#054d00;""><b>Correct!</b></p>","","null","","","","","","","","","","","","","","","","","","","","","","","","","","","","","","","",""
"audio-keyboard-response","24","280026","0.0-4.0-1.0-0.1","1","0","p4ma7vw34euptou","","null","","sounds/induction/right_rev/me_SWS.wav","","null","","","","","","","","","","","","","","","","","","","","","","","","","","","","","","","",""
"html-button-response","25","281123","0.0-4.0-1.0-1.1","1","0","p4ma7vw34euptou","","1095.8999999761581","","Was the sound coming from the left or the right?","1","","","1","INDUCTION-JUDGMENT","right","1","","","","","","","","","","","","","","","","","","","","","","","","","","",""
"html-keyboard-response","26","282127","0.0-4.0-1.0-2.1","1","0","p4ma7vw34euptou","","null","","<p style=""color:#054d00;""><b>Correct!</b></p>","","null","","","","","","","","","","","","","","","","","","","","","","","","","","","","","","","",""
"audio-keyboard-response","27","282933","0.0-4.0-1.0-0.2","1","0","p4ma7vw34euptou","","null","","sounds/induction/left_rev/su_SWS.wav","","null","","","","","","","","","","","","","","","","","","","","","","","","","","","","","","","",""
"html-button-response","28","284681","0.0-4.0-1.0-1.2","1","0","p4ma7vw34euptou","","1747.7000000476837","","Was the sound coming from the left or the right?","0","","","1","INDUCTION-JUDGMENT","left","0","","","","","","","","","","","","","","","","","","","","","","","","","","",""
"html-keyboard-response","29","285682","0.0-4.0-1.0-2.2","1","0","p4ma7vw34euptou","","null","","<p style=""color:#054d00;""><b>Correct!</b></p>","","null","","","","","","","","","","","","","","","","","","","","","","","","","","","","","","","",""
"audio-keyboard-response","30","286485","0.0-4.0-1.0-0.3","1","0","p4ma7vw34euptou","","null","","sounds/induction/right_rev/re_SWS.wav","","null","","","","","","","","","","","","","","","","","","","","","","","","","","","","","","","",""
"html-button-response","31","287479","0.0-4.0-1.0-1.3","1","0","p4ma7vw34euptou","","993.1999999284744","","Was the sound coming from the left or the right?","1","","","1","INDUCTION-JUDGMENT","right","1","","","","","","","","","","","","","","","","","","","","","","","","","","",""
"html-keyboard-response","32","288486","0.0-4.0-1.0-2.3","1","0","p4ma7vw34euptou","","null","","<p style=""color:#054d00;""><b>Correct!</b></p>","","null","","","","","","","","","","","","","","","","","","","","","","","","","","","","","","","",""
"audio-keyboard-response","33","289290","0.0-4.0-1.0-0.4","1","0","p4ma7vw34euptou","","null","","sounds/induction/right_rev/re_SWS.wav","","null","","","","","","","","","","","","","","","","","","","","","","","","","","","","","","","",""
"html-button-response","34","290240","0.0-4.0-1.0-1.4","1","0","p4ma7vw34euptou","","949.2000000476837","","Was the sound coming from the left or the right?","1","","","1","INDUCTION-JUDGMENT","right","1","","","","","","","","","","","","","","","","","","","","","","","","","","",""
"html-keyboard-response","35","291242","0.0-4.0-1.0-2.4","1","0","p4ma7vw34euptou","","null","","<p style=""color:#054d00;""><b>Correct!</b></p>","","null","","","","","","","","","","","","","","","","","","","","","","","","","","","","","","","",""
"audio-keyboard-response","36","292048","0.0-4.0-1.0-0.5","1","0","p4ma7vw34euptou","","null","","sounds/induction/left_rev/ko_SWS.wav","","null","","","","","","","","","","","","","","","","","","","","","","","","","","","","","","","",""
"html-button-response","37","293053","0.0-4.0-1.0-1.5","1","0","p4ma7vw34euptou","","1004.7999999523163","","Was the sound coming from the left or the right?","0","","","1","INDUCTION-JUDGMENT","left","0","","","","","","","","","","","","","","","","","","","","","","","","","","",""
"html-keyboard-response","38","294055","0.0-4.0-1.0-2.5","1","0","p4ma7vw34euptou","","null","","<p style=""color:#054d00;""><b>Correct!</b></p>","","null","","","","","","","","","","","","","","","","","","","","","","","","","","","","","","","",""
"audio-keyboard-response","39","294858","0.0-4.0-1.0-0.6","1","0","p4ma7vw34euptou","","null","","sounds/induction/right_rev/ta_SWS.wav","","null","","","","","","","","","","","","","","","","","","","","","","","","","","","","","","","",""
"html-button-response","40","295875","0.0-4.0-1.0-1.6","1","0","p4ma7vw34euptou","","1015.5","","Was the sound coming from the left or the right?","1","","","1","INDUCTION-JUDGMENT","right","1","","","","","","","","","","","","","","","","","","","","","","","","","","",""
"html-keyboard-response","41","296880","0.0-4.0-1.0-2.6","1","0","p4ma7vw34euptou","","null","","<p style=""color:#054d00;""><b>Correct!</b></p>","","null","","","","","","","","","","","","","","","","","","","","","","","","","","","","","","","",""
"audio-keyboard-response","42","297685","0.0-4.0-1.0-0.7","1","0","p4ma7vw34euptou","","null","","sounds/induction/left_rev/pu_SWS.wav","","null","","","","","","","","","","","","","","","","","","","","","","","","","","","","","","","",""
"html-button-response","43","298596","0.0-4.0-1.0-1.7","1","0","p4ma7vw34euptou","","910","","Was the sound coming from the left or the right?","0","","","1","INDUCTION-JUDGMENT","left","0","","","","","","","","","","","","","","","","","","","","","","","","","","",""
"html-keyboard-response","44","299600","0.0-4.0-1.0-2.7","1","0","p4ma7vw34euptou","","null","","<p style=""color:#054d00;""><b>Correct!</b></p>","","null","","","","","","","","","","","","","","","","","","","","","","","","","","","","","","","",""
"audio-keyboard-response","45","300405","0.0-4.0-1.0-0.8","1","0","p4ma7vw34euptou","","null","","sounds/induction/right_rev/ti_SWS.wav","","null","","","","","","","","","","","","","","","","","","","","","","","","","","","","","","","",""
"html-button-response","46","301322","0.0-4.0-1.0-1.8","1","0","p4ma7vw34euptou","","915.5","","Was the sound coming from the left or the right?","1","","","1","INDUCTION-JUDGMENT","right","1","","","","","","","","","","","","","","","","","","","","","","","","","","",""
"html-keyboard-response","47","302325","0.0-4.0-1.0-2.8","1","0","p4ma7vw34euptou","","null","","<p style=""color:#054d00;""><b>Correct!</b></p>","","null","","","","","","","","","","","","","","","","","","","","","","","","","","","","","","","",""
"audio-keyboard-response","48","303130","0.0-4.0-1.0-0.9","1","0","p4ma7vw34euptou","","null","","sounds/induction/left_rev/me_SWS.wav","","null","","","","","","","","","","","","","","","","","","","","","","","","","","","","","","","",""
"html-button-response","49","303966","0.0-4.0-1.0-1.9","1","0","p4ma7vw34euptou","","835.0999999046326","","Was the sound coming from the left or the right?","0","","","1","INDUCTION-JUDGMENT","left","0","","","","","","","","","","","","","","","","","","","","","","","","","","",""
"html-keyboard-response","50","304970","0.0-4.0-1.0-2.9","1","0","p4ma7vw34euptou","","null","","<p style=""color:#054d00;""><b>Correct!</b></p>","","null","","","","","","","","","","","","","","","","","","","","","","","","","","","","","","","",""
"audio-keyboard-response","51","305776","0.0-4.0-1.0-0.10","1","0","p4ma7vw34euptou","","null","","sounds/induction/left_rev/su_SWS.wav","","null","","","","","","","","","","","","","","","","","","","","","","","","","","","","","","","",""
"html-button-response","52","306656","0.0-4.0-1.0-1.10","1","0","p4ma7vw34euptou","","879","","Was the sound coming from the left or the right?","0","","","1","INDUCTION-JUDGMENT","left","0","","","","","","","","","","","","","","","","","","","","","","","","","","",""
"html-keyboard-response","53","307659","0.0-4.0-1.0-2.10","1","0","p4ma7vw34euptou","","null","","<p style=""color:#054d00;""><b>Correct!</b></p>","","null","","","","","","","","","","","","","","","","","","","","","","","","","","","","","","","",""
"audio-keyboard-response","54","308464","0.0-4.0-1.0-0.11","1","0","p4ma7vw34euptou","","null","","sounds/induction/left_rev/ni_SWS.wav","","null","","","","","","","","","","","","","","","","","","","","","","","","","","","","","","","",""
"html-button-response","55","309325","0.0-4.0-1.0-1.11","1","0","p4ma7vw34euptou","","860.7000000476837","","Was the sound coming from the left or the right?","0","","","1","INDUCTION-JUDGMENT","left","0","","","","","","","","","","","","","","","","","","","","","","","","","","",""
"html-keyboard-response","56","310328","0.0-4.0-1.0-2.11","1","0","p4ma7vw34euptou","","null","","<p style=""color:#054d00;""><b>Correct!</b></p>","","null","","","","","","","","","","","","","","","","","","","","","","","","","","","","","","","",""
"audio-keyboard-response","57","311131","0.0-4.0-1.0-0.12","1","0","p4ma7vw34euptou","","null","","sounds/induction/left_rev/ge_SWS.wav","","null","","","","","","","","","","","","","","","","","","","","","","","","","","","","","","","",""
"html-button-response","58","312042","0.0-4.0-1.0-1.12","1","0","p4ma7vw34euptou","","910.2000000476837","","Was the sound coming from the left or the right?","0","","","1","INDUCTION-JUDGMENT","left","0","","","","","","","","","","","","","","","","","","","","","","","","","","",""
"html-keyboard-response","59","313046","0.0-4.0-1.0-2.12","1","0","p4ma7vw34euptou","","null","","<p style=""color:#054d00;""><b>Correct!</b></p>","","null","","","","","","","","","","","","","","","","","","","","","","","","","","","","","","","",""
"audio-keyboard-response","60","313851","0.0-4.0-1.0-0.13","1","0","p4ma7vw34euptou","","null","","sounds/induction/right_rev/pu_SWS.wav","","null","","","","","","","","","","","","","","","","","","","","","","","","","","","","","","","",""
"html-button-response","61","314660","0.0-4.0-1.0-1.13","1","0","p4ma7vw34euptou","","808.1000000238419","","Was the sound coming from the left or the right?","1","","","1","INDUCTION-JUDGMENT","right","1","","","","","","","","","","","","","","","","","","","","","","","","","","",""
"html-keyboard-response","62","315664","0.0-4.0-1.0-2.13","1","0","p4ma7vw34euptou","","null","","<p style=""color:#054d00;""><b>Correct!</b></p>","","null","","","","","","","","","","","","","","","","","","","","","","","","","","","","","","","",""
"audio-keyboard-response","63","316470","0.0-4.0-1.0-0.14","1","0","p4ma7vw34euptou","","null","","sounds/induction/left_rev/ti_SWS.wav","","null","","","","","","","","","","","","","","","","","","","","","","","","","","","","","","","",""
"html-button-response","64","317305","0.0-4.0-1.0-1.14","1","0","p4ma7vw34euptou","","834.3999999761581","","Was the sound coming from the left or the right?","0","","","1","INDUCTION-JUDGMENT","left","0","","","","","","","","","","","","","","","","","","","","","","","","","","",""
"html-keyboard-response","65","318307","0.0-4.0-1.0-2.14","1","0","p4ma7vw34euptou","","null","","<p style=""color:#054d00;""><b>Correct!</b></p>","","null","","","","","","","","","","","","","","","","","","","","","","","","","","","","","","","",""
"audio-keyboard-response","66","319110","0.0-4.0-1.0-0.15","1","0","p4ma7vw34euptou","","null","","sounds/induction/left_rev/re_SWS.wav","","null","","","","","","","","","","","","","","","","","","","","","","","","","","","","","","","",""
"html-button-response","67","319902","0.0-4.0-1.0-1.15","1","0","p4ma7vw34euptou","","791.7000000476837","","Was the sound coming from the left or the right?","0","","","1","INDUCTION-JUDGMENT","left","0","","","","","","","","","","","","","","","","","","","","","","","","","","",""
"html-keyboard-response","68","320907","0.0-4.0-1.0-2.15","1","0","p4ma7vw34euptou","","null","","<p style=""color:#054d00;""><b>Correct!</b></p>","","null","","","","","","","","","","","","","","","","","","","","","","","","","","","","","","","",""
"audio-keyboard-response","69","321712","0.0-4.0-1.0-0.16","1","0","p4ma7vw34euptou","","null","","sounds/induction/left_rev/ru_SWS.wav","","null","","","","","","","","","","","","","","","","","","","","","","","","","","","","","","","",""
"html-button-response","70","322600","0.0-4.0-1.0-1.16","1","0","p4ma7vw34euptou","","886.7999999523163","","Was the sound coming from the left or the right?","0","","","1","INDUCTION-JUDGMENT","left","0","","","","","","","","","","","","","","","","","","","","","","","","","","",""
"html-keyboard-response","71","323604","0.0-4.0-1.0-2.16","1","0","p4ma7vw34euptou","","null","","<p style=""color:#054d00;""><b>Correct!</b></p>","","null","","","","","","","","","","","","","","","","","","","","","","","","","","","","","","","",""
"audio-keyboard-response","72","324411","0.0-4.0-1.0-0.17","1","0","p4ma7vw34euptou","","null","","sounds/induction/right_rev/pu_SWS.wav","","null","","","","","","","","","","","","","","","","","","","","","","","","","","","","","","","",""
"html-button-response","73","325213","0.0-4.0-1.0-1.17","1","0","p4ma7vw34euptou","","801.1000000238419","","Was the sound coming from the left or the right?","1","","","1","INDUCTION-JUDGMENT","right","1","","","","","","","","","","","","","","","","","","","","","","","","","","",""
"html-keyboard-response","74","326219","0.0-4.0-1.0-2.17","1","0","p4ma7vw34euptou","","null","","<p style=""color:#054d00;""><b>Correct!</b></p>","","null","","","","","","","","","","","","","","","","","","","","","","","","","","","","","","","",""
"audio-keyboard-response","75","327025","0.0-4.0-1.0-0.18","1","0","p4ma7vw34euptou","","null","","sounds/induction/left_rev/ti_SWS.wav","","null","","","","","","","","","","","","","","","","","","","","","","","","","","","","","","","",""
"html-button-response","76","327722","0.0-4.0-1.0-1.18","1","0","p4ma7vw34euptou","","696.6000000238419","","Was the sound coming from the left or the right?","0","","","1","INDUCTION-JUDGMENT","left","0","","","","","","","","","","","","","","","","","","","","","","","","","","",""
"html-keyboard-response","77","328725","0.0-4.0-1.0-2.18","1","0","p4ma7vw34euptou","","null","","<p style=""color:#054d00;""><b>Correct!</b></p>","","null","","","","","","","","","","","","","","","","","","","","","","","","","","","","","","","",""
"audio-keyboard-response","78","329531","0.0-4.0-1.0-0.19","1","0","p4ma7vw34euptou","","null","","sounds/induction/left_rev/me_SWS.wav","","null","","","","","","","","","","","","","","","","","","","","","","","","","","","","","","","",""
"html-button-response","79","330276","0.0-4.0-1.0-1.19","1","0","p4ma7vw34euptou","","743.5999999046326","","Was the sound coming from the left or the right?","0","","","1","INDUCTION-JUDGMENT","left","0","","","","","","","","","","","","","","","","","","","","","","","","","","",""
"html-keyboard-response","80","331281","0.0-4.0-1.0-2.19","1","0","p4ma7vw34euptou","","null","","<p style=""color:#054d00;""><b>Correct!</b></p>","","null","","","","","","","","","","","","","","","","","","","","","","","","","","","","","","","",""
"audio-keyboard-response","81","332091","0.0-4.0-1.0-0.20","1","0","p4ma7vw34euptou","","null","","sounds/induction/right_rev/ni_SWS.wav","","null","","","","","","","","","","","","","","","","","","","","","","","","","","","","","","","",""
"html-button-response","82","333025","0.0-4.0-1.0-1.20","1","0","p4ma7vw34euptou","","932.7999999523163","","Was the sound coming from the left or the right?","1","","","1","INDUCTION-JUDGMENT","right","1","","","","","","","","","","","","","","","","","","","","","","","","","","",""
"html-keyboard-response","83","334028","0.0-4.0-1.0-2.20","1","0","p4ma7vw34euptou","","null","","<p style=""color:#054d00;""><b>Correct!</b></p>","","null","","","","","","","","","","","","","","","","","","","","","","","","","","","","","","","",""
"audio-keyboard-response","84","334833","0.0-4.0-1.0-0.21","1","0","p4ma7vw34euptou","","null","","sounds/induction/left_rev/ko_SWS.wav","","null","","","","","","","","","","","","","","","","","","","","","","","","","","","","","","","",""
"html-button-response","85","335662","0.0-4.0-1.0-1.21","1","0","p4ma7vw34euptou","","829.2999999523163","","Was the sound coming from the left or the right?","0","","","1","INDUCTION-JUDGMENT","left","0","","","","","","","","","","","","","","","","","","","","","","","","","","",""
"html-keyboard-response","86","336668","0.0-4.0-1.0-2.21","1","0","p4ma7vw34euptou","","null","","<p style=""color:#054d00;""><b>Correct!</b></p>","","null","","","","","","","","","","","","","","","","","","","","","","","","","","","","","","","",""
"audio-keyboard-response","87","337473","0.0-4.0-1.0-0.22","1","0","p4ma7vw34euptou","","null","","sounds/induction/left_rev/fe_SWS.wav","","null","","","","","","","","","","","","","","","","","","","","","","","","","","","","","","","",""
"html-button-response","88","338344","0.0-4.0-1.0-1.22","1","0","p4ma7vw34euptou","","870.3999999761581","","Was the sound coming from the left or the right?","0","","","1","INDUCTION-JUDGMENT","left","0","","","","","","","","","","","","","","","","","","","","","","","","","","",""
"html-keyboard-response","89","339345","0.0-4.0-1.0-2.22","1","0","p4ma7vw34euptou","","null","","<p style=""color:#054d00;""><b>Correct!</b></p>","","null","","","","","","","","","","","","","","","","","","","","","","","","","","","","","","","",""
"audio-keyboard-response","90","340150","0.0-4.0-1.0-0.23","1","0","p4ma7vw34euptou","","null","","sounds/induction/right_rev/fe_SWS.wav","","null","","","","","","","","","","","","","","","","","","","","","","","","","","","","","","","",""
"html-button-response","91","340917","0.0-4.0-1.0-1.23","1","0","p4ma7vw34euptou","","765.6000000238419","","Was the sound coming from the left or the right?","1","","","1","INDUCTION-JUDGMENT","right","1","","","","","","","","","","","","","","","","","","","","","","","","","","",""
"html-keyboard-response","92","341921","0.0-4.0-1.0-2.23","1","0","p4ma7vw34euptou","","null","","<p style=""color:#054d00;""><b>Correct!</b></p>","","null","","","","","","","","","","","","","","","","","","","","","","","","","","","","","","","",""
"audio-keyboard-response","93","342726","0.0-4.0-1.0-0.24","1","0","p4ma7vw34euptou","","null","","sounds/induction/left_rev/re_SWS.wav","","null","","","","","","","","","","","","","","","","","","","","","","","","","","","","","","","",""
"html-button-response","94","343514","0.0-4.0-1.0-1.24","1","0","p4ma7vw34euptou","","786.8999999761581","","Was the sound coming from the left or the right?","0","","","1","INDUCTION-JUDGMENT","left","0","","","","","","","","","","","","","","","","","","","","","","","","","","",""
"html-keyboard-response","95","344518","0.0-4.0-1.0-2.24","1","0","p4ma7vw34euptou","","null","","<p style=""color:#054d00;""><b>Correct!</b></p>","","null","","","","","","","","","","","","","","","","","","","","","","","","","","","","","","","",""
"audio-keyboard-response","96","345324","0.0-4.0-1.0-0.25","1","0","p4ma7vw34euptou","","null","","sounds/induction/left_rev/fu_SWS.wav","","null","","","","","","","","","","","","","","","","","","","","","","","","","","","","","","","",""
"html-button-response","97","346148","0.0-4.0-1.0-1.25","1","0","p4ma7vw34euptou","","823.5","","Was the sound coming from the left or the right?","0","","","1","INDUCTION-JUDGMENT","left","0","","","","","","","","","","","","","","","","","","","","","","","","","","",""
"html-keyboard-response","98","347153","0.0-4.0-1.0-2.25","1","0","p4ma7vw34euptou","","null","","<p style=""color:#054d00;""><b>Correct!</b></p>","","null","","","","","","","","","","","","","","","","","","","","","","","","","","","","","","","",""
"audio-keyboard-response","99","347959","0.0-4.0-1.0-0.26","1","0","p4ma7vw34euptou","","null","","sounds/induction/left_rev/ge_SWS.wav","","null","","","","","","","","","","","","","","","","","","","","","","","","","","","","","","","",""
"html-button-response","100","348737","0.0-4.0-1.0-1.26","1","0","p4ma7vw34euptou","","777.1000000238419","","Was the sound coming from the left or the right?","0","","","1","INDUCTION-JUDGMENT","left","0","","","","","","","","","","","","","","","","","","","","","","","","","","",""
"html-keyboard-response","101","349740","0.0-4.0-1.0-2.26","1","0","p4ma7vw34euptou","","null","","<p style=""color:#054d00;""><b>Correct!</b></p>","","null","","","","","","","","","","","","","","","","","","","","","","","","","","","","","","","",""
"audio-keyboard-response","102","350545","0.0-4.0-1.0-0.27","1","0","p4ma7vw34euptou","","null","","sounds/induction/right_rev/ko_SWS.wav","","null","","","","","","","","","","","","","","","","","","","","","","","","","","","","","","","",""
"html-button-response","103","351406","0.0-4.0-1.0-1.27","1","0","p4ma7vw34euptou","","859.7999999523163","","Was the sound coming from the left or the right?","1","","","1","INDUCTION-JUDGMENT","right","1","","","","","","","","","","","","","","","","","","","","","","","","","","",""
"html-keyboard-response","104","352412","0.0-4.0-1.0-2.27","1","0","p4ma7vw34euptou","","null","","<p style=""color:#054d00;""><b>Correct!</b></p>","","null","","","","","","","","","","","","","","","","","","","","","","","","","","","","","","","",""
"audio-keyboard-response","105","353217","0.0-4.0-1.0-0.28","1","0","p4ma7vw34euptou","","null","","sounds/induction/right_rev/ni_SWS.wav","","null","","","","","","","","","","","","","","","","","","","","","","","","","","","","","","","",""
"html-button-response","106","354007","0.0-4.0-1.0-1.28","1","0","p4ma7vw34euptou","","789","","Was the sound coming from the left or the right?","1","","","1","INDUCTION-JUDGMENT","right","1","","","","","","","","","","","","","","","","","","","","","","","","","","",""
"html-keyboard-response","107","355012","0.0-4.0-1.0-2.28","1","0","p4ma7vw34euptou","","null","","<p style=""color:#054d00;""><b>Correct!</b></p>","","null","","","","","","","","","","","","","","","","","","","","","","","","","","","","","","","",""
"audio-keyboard-response","108","355820","0.0-4.0-1.0-0.29","1","0","p4ma7vw34euptou","","null","","sounds/induction/right_rev/su_SWS.wav","","null","","","","","","","","","","","","","","","","","","","","","","","","","","","","","","","",""
"html-button-response","109","356548","0.0-4.0-1.0-1.29","1","0","p4ma7vw34euptou","","726.8999999761581","","Was the sound coming from the left or the right?","1","","","1","INDUCTION-JUDGMENT","right","1","","","","","","","","","","","","","","","","","","","","","","","","","","",""
"html-keyboard-response","110","357551","0.0-4.0-1.0-2.29","1","0","p4ma7vw34euptou","","null","","<p style=""color:#054d00;""><b>Correct!</b></p>","","null","","","","","","","","","","","","","","","","","","","","","","","","","","","","","","","",""
"audio-keyboard-response","111","358359","0.0-4.0-1.0-0.30","1","0","p4ma7vw34euptou","","null","","sounds/induction/left_rev/ni_SWS.wav","","null","","","","","","","","","","","","","","","","","","","","","","","","","","","","","","","",""
"html-button-response","112","359165","0.0-4.0-1.0-1.30","1","0","p4ma7vw34euptou","","805.5","","Was the sound coming from the left or the right?","0","","","1","INDUCTION-JUDGMENT","left","0","","","","","","","","","","","","","","","","","","","","","","","","","","",""
"html-keyboard-response","113","360167","0.0-4.0-1.0-2.30","1","0","p4ma7vw34euptou","","null","","<p style=""color:#054d00;""><b>Correct!</b></p>","","null","","","","","","","","","","","","","","","","","","","","","","","","","","","","","","","",""
"audio-keyboard-response","114","360972","0.0-4.0-1.0-0.31","1","0","p4ma7vw34euptou","","null","","sounds/induction/right_rev/fu_SWS.wav","","null","","","","","","","","","","","","","","","","","","","","","","","","","","","","","","","",""
"html-button-response","115","361682","0.0-4.0-1.0-1.31","1","0","p4ma7vw34euptou","","709.0999999046326","","Was the sound coming from the left or the right?","1","","","1","INDUCTION-JUDGMENT","right","1","","","","","","","","","","","","","","","","","","","","","","","","","","",""
"html-keyboard-response","116","362685","0.0-4.0-1.0-2.31","1","0","p4ma7vw34euptou","","null","","<p style=""color:#054d00;""><b>Correct!</b></p>","","null","","","","","","","","","","","","","","","","","","","","","","","","","","","","","","","",""
"audio-keyboard-response","117","363490","0.0-4.0-1.0-0.32","1","0","p4ma7vw34euptou","","null","","sounds/induction/left_rev/ru_SWS.wav","","null","","","","","","","","","","","","","","","","","","","","","","","","","","","","","","","",""
"html-button-response","118","364264","0.0-4.0-1.0-1.32","1","0","p4ma7vw34euptou","","773.5","","Was the sound coming from the left or the right?","0","","","1","INDUCTION-JUDGMENT","left","0","","","","","","","","","","","","","","","","","","","","","","","","","","",""
"html-keyboard-response","119","365266","0.0-4.0-1.0-2.32","1","0","p4ma7vw34euptou","","null","","<p style=""color:#054d00;""><b>Correct!</b></p>","","null","","","","","","","","","","","","","","","","","","","","","","","","","","","","","","","",""
"audio-keyboard-response","120","366066","0.0-4.0-1.0-0.33","1","0","p4ma7vw34euptou","","null","","sounds/induction/right_rev/ti_SWS.wav","","null","","","","","","","","","","","","","","","","","","","","","","","","","","","","","","","",""
"html-button-response","121","366761","0.0-4.0-1.0-1.33","1","0","p4ma7vw34euptou","","693.7999999523163","","Was the sound coming from the left or the right?","1","","","1","INDUCTION-JUDGMENT","right","1","","","","","","","","","","","","","","","","","","","","","","","","","","",""
"html-keyboard-response","122","367762","0.0-4.0-1.0-2.33","1","0","p4ma7vw34euptou","","null","","<p style=""color:#054d00;""><b>Correct!</b></p>","","null","","","","","","","","","","","","","","","","","","","","","","","","","","","","","","","",""
"audio-keyboard-response","123","368567","0.0-4.0-1.0-0.34","1","0","p4ma7vw34euptou","","null","","sounds/induction/left_rev/fe_SWS.wav","","null","","","","","","","","","","","","","","","","","","","","","","","","","","","","","","","",""
"html-button-response","124","369381","0.0-4.0-1.0-1.34","1","0","p4ma7vw34euptou","","813.1000000238419","","Was the sound coming from the left or the right?","0","","","1","INDUCTION-JUDGMENT","left","0","","","","","","","","","","","","","","","","","","","","","","","","","","",""
"html-keyboard-response","125","370386","0.0-4.0-1.0-2.34","1","0","p4ma7vw34euptou","","null","","<p style=""color:#054d00;""><b>Correct!</b></p>","","null","","","","","","","","","","","","","","","","","","","","","","","","","","","","","","","",""
"audio-keyboard-response","126","371191","0.0-4.0-1.0-0.35","1","0","p4ma7vw34euptou","","null","","sounds/induction/right_rev/ko_SWS.wav","","null","","","","","","","","","","","","","","","","","","","","","","","","","","","","","","","",""
"html-button-response","127","371914","0.0-4.0-1.0-1.35","1","0","p4ma7vw34euptou","","722.2000000476837","","Was the sound coming from the left or the right?","1","","","1","INDUCTION-JUDGMENT","right","1","","","","","","","","","","","","","","","","","","","","","","","","","","",""
"html-keyboard-response","128","372918","0.0-4.0-1.0-2.35","1","0","p4ma7vw34euptou","","null","","<p style=""color:#054d00;""><b>Correct!</b></p>","","null","","","","","","","","","","","","","","","","","","","","","","","","","","","","","","","",""
"audio-keyboard-response","129","373725","0.0-4.0-1.0-0.36","1","0","p4ma7vw34euptou","","null","","sounds/induction/left_rev/ta_SWS.wav","","null","","","","","","","","","","","","","","","","","","","","","","","","","","","","","","","",""
"html-button-response","130","374436","0.0-4.0-1.0-1.36","1","0","p4ma7vw34euptou","","710.2999999523163","","Was the sound coming from the left or the right?","0","","","1","INDUCTION-JUDGMENT","left","0","","","","","","","","","","","","","","","","","","","","","","","","","","",""
"html-keyboard-response","131","375439","0.0-4.0-1.0-2.36","1","0","p4ma7vw34euptou","","null","","<p style=""color:#054d00;""><b>Correct!</b></p>","","null","","","","","","","","","","","","","","","","","","","","","","","","","","","","","","","",""
"audio-keyboard-response","132","376247","0.0-4.0-1.0-0.37","1","0","p4ma7vw34euptou","","null","","sounds/induction/right_rev/ge_SWS.wav","","null","","","","","","","","","","","","","","","","","","","","","","","","","","","","","","","",""
"html-button-response","133","377145","0.0-4.0-1.0-1.37","1","0","p4ma7vw34euptou","","896.6000000238419","","Was the sound coming from the left or the right?","1","","","1","INDUCTION-JUDGMENT","right","1","","","","","","","","","","","","","","","","","","","","","","","","","","",""
"html-keyboard-response","134","378146","0.0-4.0-1.0-2.37","1","0","p4ma7vw34euptou","","null","","<p style=""color:#054d00;""><b>Correct!</b></p>","","null","","","","","","","","","","","","","","","","","","","","","","","","","","","","","","","",""
"audio-keyboard-response","135","378951","0.0-4.0-1.0-0.38","1","0","p4ma7vw34euptou","","null","","sounds/induction/left_rev/ta_SWS.wav","","null","","","","","","","","","","","","","","","","","","","","","","","","","","","","","","","",""
"html-button-response","136","379665","0.0-4.0-1.0-1.38","1","0","p4ma7vw34euptou","","713.1000000238419","","Was the sound coming from the left or the right?","0","","","1","INDUCTION-JUDGMENT","left","0","","","","","","","","","","","","","","","","","","","","","","","","","","",""
"html-keyboard-response","137","380671","0.0-4.0-1.0-2.38","1","0","p4ma7vw34euptou","","null","","<p style=""color:#054d00;""><b>Correct!</b></p>","","null","","","","","","","","","","","","","","","","","","","","","","","","","","","","","","","",""
"audio-keyboard-response","138","381474","0.0-4.0-1.0-0.39","1","0","p4ma7vw34euptou","","null","","sounds/induction/right_rev/ge_SWS.wav","","null","","","","","","","","","","","","","","","","","","","","","","","","","","","","","","","",""
"html-button-response","139","382271","0.0-4.0-1.0-1.39","1","0","p4ma7vw34euptou","","795.3999999761581","","Was the sound coming from the left or the right?","1","","","1","INDUCTION-JUDGMENT","right","1","","","","","","","","","","","","","","","","","","","","","","","","","","",""
"html-keyboard-response","140","383272","0.0-4.0-1.0-2.39","1","0","p4ma7vw34euptou","","null","","<p style=""color:#054d00;""><b>Correct!</b></p>","","null","","","","","","","","","","","","","","","","","","","","","","","","","","","","","","","",""
"audio-keyboard-response","141","384077","0.0-4.0-1.0-0.40","1","0","p4ma7vw34euptou","","null","","sounds/induction/left_rev/fu_SWS.wav","","null","","","","","","","","","","","","","","","","","","","","","","","","","","","","","","","",""
"html-button-response","142","384771","0.0-4.0-1.0-1.40","1","0","p4ma7vw34euptou","","692.7999999523163","","Was the sound coming from the left or the right?","0","","","1","INDUCTION-JUDGMENT","left","0","","","","","","","","","","","","","","","","","","","","","","","","","","",""
"html-keyboard-response","143","385773","0.0-4.0-1.0-2.40","1","0","p4ma7vw34euptou","","null","","<p style=""color:#054d00;""><b>Correct!</b></p>","","null","","","","","","","","","","","","","","","","","","","","","","","","","","","","","","","",""
"audio-keyboard-response","144","386578","0.0-4.0-1.0-0.41","1","0","p4ma7vw34euptou","","null","","sounds/induction/right_rev/ta_SWS.wav","","null","","","","","","","","","","","","","","","","","","","","","","","","","","","","","","","",""
"html-button-response","145","387389","0.0-4.0-1.0-1.41","1","0","p4ma7vw34euptou","","809.2000000476837","","Was the sound coming from the left or the right?","1","","","1","INDUCTION-JUDGMENT","right","1","","","","","","","","","","","","","","","","","","","","","","","","","","",""
"html-keyboard-response","146","388392","0.0-4.0-1.0-2.41","1","0","p4ma7vw34euptou","","null","","<p style=""color:#054d00;""><b>Correct!</b></p>","","null","","","","","","","","","","","","","","","","","","","","","","","","","","","","","","","",""
"audio-keyboard-response","147","389197","0.0-4.0-1.0-0.42","1","0","p4ma7vw34euptou","","null","","sounds/induction/right_rev/ru_SWS.wav","","null","","","","","","","","","","","","","","","","","","","","","","","","","","","","","","","",""
"html-button-response","148","389946","0.0-4.0-1.0-1.42","1","0","p4ma7vw34euptou","","748","","Was the sound coming from the left or the right?","1","","","1","INDUCTION-JUDGMENT","right","1","","","","","","","","","","","","","","","","","","","","","","","","","","",""
"html-keyboard-response","149","390952","0.0-4.0-1.0-2.42","1","0","p4ma7vw34euptou","","null","","<p style=""color:#054d00;""><b>Correct!</b></p>","","null","","","","","","","","","","","","","","","","","","","","","","","","","","","","","","","",""
"audio-keyboard-response","150","391757","0.0-4.0-1.0-0.43","1","0","p4ma7vw34euptou","","null","","sounds/induction/right_rev/fu_SWS.wav","","null","","","","","","","","","","","","","","","","","","","","","","","","","","","","","","","",""
"html-button-response","151","392463","0.0-4.0-1.0-1.43","1","0","p4ma7vw34euptou","","704.5","","Was the sound coming from the left or the right?","1","","","1","INDUCTION-JUDGMENT","right","1","","","","","","","","","","","","","","","","","","","","","","","","","","",""
"html-keyboard-response","152","393464","0.0-4.0-1.0-2.43","1","0","p4ma7vw34euptou","","null","","<p style=""color:#054d00;""><b>Correct!</b></p>","","null","","","","","","","","","","","","","","","","","","","","","","","","","","","","","","","",""
"audio-keyboard-response","153","394269","0.0-4.0-1.0-0.44","1","0","p4ma7vw34euptou","","null","","sounds/induction/right_rev/me_SWS.wav","","null","","","","","","","","","","","","","","","","","","","","","","","","","","","","","","","",""
"html-button-response","154","395048","0.0-4.0-1.0-1.44","1","0","p4ma7vw34euptou","","777.4000000953674","","Was the sound coming from the left or the right?","1","","","1","INDUCTION-JUDGMENT","right","1","","","","","","","","","","","","","","","","","","","","","","","","","","",""
"html-keyboard-response","155","396051","0.0-4.0-1.0-2.44","1","0","p4ma7vw34euptou","","null","","<p style=""color:#054d00;""><b>Correct!</b></p>","","null","","","","","","","","","","","","","","","","","","","","","","","","","","","","","","","",""
"audio-keyboard-response","156","396856","0.0-4.0-1.0-0.45","1","0","p4ma7vw34euptou","","null","","sounds/induction/right_rev/ru_SWS.wav","","null","","","","","","","","","","","","","","","","","","","","","","","","","","","","","","","",""
"html-button-response","157","397469","0.0-4.0-1.0-1.45","1","0","p4ma7vw34euptou","","612.1000000238419","","Was the sound coming from the left or the right?","1","","","1","INDUCTION-JUDGMENT","right","1","","","","","","","","","","","","","","","","","","","","","","","","","","",""
"html-keyboard-response","158","398472","0.0-4.0-1.0-2.45","1","0","p4ma7vw34euptou","","null","","<p style=""color:#054d00;""><b>Correct!</b></p>","","null","","","","","","","","","","","","","","","","","","","","","","","","","","","","","","","",""
"audio-keyboard-response","159","399277","0.0-4.0-1.0-0.46","1","0","p4ma7vw34euptou","","null","","sounds/induction/right_rev/su_SWS.wav","","null","","","","","","","","","","","","","","","","","","","","","","","","","","","","","","","",""
"html-button-response","160","399990","0.0-4.0-1.0-1.46","1","0","p4ma7vw34euptou","","711.2999999523163","","Was the sound coming from the left or the right?","1","","","1","INDUCTION-JUDGMENT","right","1","","","","","","","","","","","","","","","","","","","","","","","","","","",""
"html-keyboard-response","161","400995","0.0-4.0-1.0-2.46","1","0","p4ma7vw34euptou","","null","","<p style=""color:#054d00;""><b>Correct!</b></p>","","null","","","","","","","","","","","","","","","","","","","","","","","","","","","","","","","",""
"audio-keyboard-response","162","401800","0.0-4.0-1.0-0.47","1","0","p4ma7vw34euptou","","null","","sounds/induction/right_rev/fe_SWS.wav","","null","","","","","","","","","","","","","","","","","","","","","","","","","","","","","","","",""
"html-button-response","163","402467","0.0-4.0-1.0-1.47","1","0","p4ma7vw34euptou","","665.5","","Was the sound coming from the left or the right?","1","","","1","INDUCTION-JUDGMENT","right","1","","","","","","","","","","","","","","","","","","","","","","","","","","",""
"html-keyboard-response","164","403470","0.0-4.0-1.0-2.47","1","0","p4ma7vw34euptou","","null","","<p style=""color:#054d00;""><b>Correct!</b></p>","","null","","","","","","","","","","","","","","","","","","","","","","","","","","","","","","","",""
"html-button-response","165","419555","0.0-5.0-0.0","1","0","p4ma7vw34euptou","","15578.399999976158","","<p>Thank you for your answers.</p><p>You will now listen to similar sounds. The main difference is that the sounds will be longer.</p><p>Just as before, you will be asked to judge whether the sound was coming from the left or the right.</p><p>There are 10 of these longer sounds in total.","0","","","","","","","","","","","","","","","","","","","","","","","","","","","","","","","","",""
"audio-keyboard-response","166","422281","0.0-5.0-1.0-0.0","1","0","p4ma7vw34euptou","","null","","sounds/sentences/right_rev/14_09_cfSWS.wav","","null","","","","","","","","","","","","","","","","","","","","","","","","","","","","","","","",""
"html-button-response","167","423216","0.0-5.0-1.0-1.0","1","0","p4ma7vw34euptou","","934.3999999761581","","Was the sound coming from the left or the right?","1","","","1","INDUCTION-JUDGMENT","right","1","","","","","","","","","","","","","","","","","","","","","","","","","","",""
"html-keyboard-response","168","424222","0.0-5.0-1.0-2.0","1","0","p4ma7vw34euptou","","null","","<p style=""color:#054d00;""><b>Correct!</b></p>","","null","","","","","","","","","","","","","","","","","","","","","","","","","","","","","","","",""
"html-button-response","169","426365","0.0-5.0-1.0-3.0","1","0","p4ma7vw34euptou","","1641.7000000476837","","<p>Press the button below when you are ready to continue.</p>","0","","","","","","","","","","","","","","","","","","","","","","","","","","","","","","","","",""
"audio-keyboard-response","170","429358","0.0-5.0-1.0-0.1","1","0","p4ma7vw34euptou","","null","","sounds/sentences/left_rev/14_05_cfSWS.wav","","null","","","","","","","","","","","","","","","","","","","","","","","","","","","","","","","",""
"html-button-response","171","430332","0.0-5.0-1.0-1.1","1","0","p4ma7vw34euptou","","972.2000000476837","","Was the sound coming from the left or the right?","0","","","1","INDUCTION-JUDGMENT","left","0","","","","","","","","","","","","","","","","","","","","","","","","","","",""
"html-keyboard-response","172","431333","0.0-5.0-1.0-2.1","1","0","p4ma7vw34euptou","","null","","<p style=""color:#054d00;""><b>Correct!</b></p>","","null","","","","","","","","","","","","","","","","","","","","","","","","","","","","","","","",""
"html-button-response","173","432716","0.0-5.0-1.0-3.1","1","0","p4ma7vw34euptou","","877.2999999523163","","<p>Press the button below when you are ready to continue.</p>","0","","","","","","","","","","","","","","","","","","","","","","","","","","","","","","","","",""
"audio-keyboard-response","174","435300","0.0-5.0-1.0-0.2","1","0","p4ma7vw34euptou","","null","","sounds/sentences/left_rev/14_03_cfSWS.wav","","null","","","","","","","","","","","","","","","","","","","","","","","","","","","","","","","",""
"html-button-response","175","436001","0.0-5.0-1.0-1.2","1","0","p4ma7vw34euptou","","700.3999999761581","","Was the sound coming from the left or the right?","0","","","1","INDUCTION-JUDGMENT","left","0","","","","","","","","","","","","","","","","","","","","","","","","","","",""
"html-keyboard-response","176","437007","0.0-5.0-1.0-2.2","1","0","p4ma7vw34euptou","","null","","<p style=""color:#054d00;""><b>Correct!</b></p>","","null","","","","","","","","","","","","","","","","","","","","","","","","","","","","","","","",""
"html-button-response","177","438438","0.0-5.0-1.0-3.2","1","0","p4ma7vw34euptou","","929.8999999761581","","<p>Press the button below when you are ready to continue.</p>","0","","","","","","","","","","","","","","","","","","","","","","","","","","","","","","","","",""
"audio-keyboard-response","178","440996","0.0-5.0-1.0-0.3","1","0","p4ma7vw34euptou","","null","","sounds/sentences/left_rev/14_04_cfSWS.wav","","null","","","","","","","","","","","","","","","","","","","","","","","","","","","","","","","",""
"html-button-response","179","441663","0.0-5.0-1.0-1.3","1","0","p4ma7vw34euptou","","665.7000000476837","","Was the sound coming from the left or the right?","0","","","1","INDUCTION-JUDGMENT","left","0","","","","","","","","","","","","","","","","","","","","","","","","","","",""
"html-keyboard-response","180","442665","0.0-5.0-1.0-2.3","1","0","p4ma7vw34euptou","","null","","<p style=""color:#054d00;""><b>Correct!</b></p>","","null","","","","","","","","","","","","","","","","","","","","","","","","","","","","","","","",""
"html-button-response","181","445436","0.0-5.0-1.0-3.3","1","0","p4ma7vw34euptou","","2267.399999976158","","<p>Press the button below when you are ready to continue.</p>","0","","","","","","","","","","","","","","","","","","","","","","","","","","","","","","","","",""
"audio-keyboard-response","182","448559","0.0-5.0-1.0-0.4","1","0","p4ma7vw34euptou","","null","","sounds/sentences/left_rev/14_01_cfSWS.wav","","null","","","","","","","","","","","","","","","","","","","","","","","","","","","","","","","",""
"html-button-response","183","449354","0.0-5.0-1.0-1.4","1","0","p4ma7vw34euptou","","793.6000000238419","","Was the sound coming from the left or the right?","0","","","1","INDUCTION-JUDGMENT","left","0","","","","","","","","","","","","","","","","","","","","","","","","","","",""
"html-keyboard-response","184","450356","0.0-5.0-1.0-2.4","1","0","p4ma7vw34euptou","","null","","<p style=""color:#054d00;""><b>Correct!</b></p>","","null","","","","","","","","","","","","","","","","","","","","","","","","","","","","","","","",""
"html-button-response","185","451815","0.0-5.0-1.0-3.4","1","0","p4ma7vw34euptou","","957.4000000953674","","<p>Press the button below when you are ready to continue.</p>","0","","","","","","","","","","","","","","","","","","","","","","","","","","","","","","","","",""
"audio-keyboard-response","186","454703","0.0-5.0-1.0-0.5","1","0","p4ma7vw34euptou","","null","","sounds/sentences/right_rev/14_07_cfSWS.wav","","null","","","","","","","","","","","","","","","","","","","","","","","","","","","","","","","",""
"html-button-response","187","455572","0.0-5.0-1.0-1.5","1","0","p4ma7vw34euptou","","867.3999999761581","","Was the sound coming from the left or the right?","1","","","1","INDUCTION-JUDGMENT","right","1","","","","","","","","","","","","","","","","","","","","","","","","","","",""
"html-keyboard-response","188","456575","0.0-5.0-1.0-2.5","1","0","p4ma7vw34euptou","","null","","<p style=""color:#054d00;""><b>Correct!</b></p>","","null","","","","","","","","","","","","","","","","","","","","","","","","","","","","","","","",""
"html-button-response","189","458022","0.0-5.0-1.0-3.5","1","0","p4ma7vw34euptou","","944.6999999284744","","<p>Press the button below when you are ready to continue.</p>","0","","","","","","","","","","","","","","","","","","","","","","","","","","","","","","","","",""
"audio-keyboard-response","190","460842","0.0-5.0-1.0-0.6","1","0","p4ma7vw34euptou","","null","","sounds/sentences/left_rev/14_02_cfSWS.wav","","null","","","","","","","","","","","","","","","","","","","","","","","","","","","","","","","",""
"html-button-response","191","461794","0.0-5.0-1.0-1.6","1","0","p4ma7vw34euptou","","951.2999999523163","","Was the sound coming from the left or the right?","0","","","1","INDUCTION-JUDGMENT","left","0","","","","","","","","","","","","","","","","","","","","","","","","","","",""
"html-keyboard-response","192","462799","0.0-5.0-1.0-2.6","1","0","p4ma7vw34euptou","","null","","<p style=""color:#054d00;""><b>Correct!</b></p>","","null","","","","","","","","","","","","","","","","","","","","","","","","","","","","","","","",""
"html-button-response","193","473559","0.0-5.0-1.0-3.6","1","0","p4ma7vw34euptou","","10258","","<p>Press the button below when you are ready to continue.</p>","0","","","","","","","","","","","","","","","","","","","","","","","","","","","","","","","","",""
"audio-keyboard-response","194","476304","0.0-5.0-1.0-0.7","1","0","p4ma7vw34euptou","","null","","sounds/sentences/right_rev/14_06_cfSWS.wav","","null","","","","","","","","","","","","","","","","","","","","","","","","","","","","","","","",""
"html-button-response","195","477101","0.0-5.0-1.0-1.7","1","0","p4ma7vw34euptou","","796.3999999761581","","Was the sound coming from the left or the right?","1","","","1","INDUCTION-JUDGMENT","right","1","","","","","","","","","","","","","","","","","","","","","","","","","","",""
"html-keyboard-response","196","478106","0.0-5.0-1.0-2.7","1","0","p4ma7vw34euptou","","null","","<p style=""color:#054d00;""><b>Correct!</b></p>","","null","","","","","","","","","","","","","","","","","","","","","","","","","","","","","","","",""
"html-button-response","197","479482","0.0-5.0-1.0-3.7","1","0","p4ma7vw34euptou","","873.5","","<p>Press the button below when you are ready to continue.</p>","0","","","","","","","","","","","","","","","","","","","","","","","","","","","","","","","","",""
"audio-keyboard-response","198","482501","0.0-5.0-1.0-0.8","1","0","p4ma7vw34euptou","","null","","sounds/sentences/right_rev/14_10_cfSWS.wav","","null","","","","","","","","","","","","","","","","","","","","","","","","","","","","","","","",""
"html-button-response","199","483268","0.0-5.0-1.0-1.8","1","0","p4ma7vw34euptou","","764.6000000238419","","Was the sound coming from the left or the right?","1","","","1","INDUCTION-JUDGMENT","right","1","","","","","","","","","","","","","","","","","","","","","","","","","","",""
"html-keyboard-response","200","484270","0.0-5.0-1.0-2.8","1","0","p4ma7vw34euptou","","null","","<p style=""color:#054d00;""><b>Correct!</b></p>","","null","","","","","","","","","","","","","","","","","","","","","","","","","","","","","","","",""
"html-button-response","201","485816","0.0-5.0-1.0-3.8","1","0","p4ma7vw34euptou","","1043.7999999523163","","<p>Press the button below when you are ready to continue.</p>","0","","","","","","","","","","","","","","","","","","","","","","","","","","","","","","","","",""
"audio-keyboard-response","202","488571","0.0-5.0-1.0-0.9","1","0","p4ma7vw34euptou","","null","","sounds/sentences/right_rev/14_08_cfSWS.wav","","null","","","","","","","","","","","","","","","","","","","","","","","","","","","","","","","",""
"html-button-response","203","489214","0.0-5.0-1.0-1.9","1","0","p4ma7vw34euptou","","641.9000000953674","","Was the sound coming from the left or the right?","1","","","1","INDUCTION-JUDGMENT","right","1","","","","","","","","","","","","","","","","","","","","","","","","","","",""
"html-keyboard-response","204","490219","0.0-5.0-1.0-2.9","1","0","p4ma7vw34euptou","","null","","<p style=""color:#054d00;""><b>Correct!</b></p>","","null","","","","","","","","","","","","","","","","","","","","","","","","","","","","","","","",""
"html-button-response","205","491623","0.0-5.0-1.0-3.9","1","0","p4ma7vw34euptou","","900.3999999761581","","<p>Press the button below when you are ready to continue.</p>","0","","","","","","","","","","","","","","","","","","","","","","","","","","","","","","","","",""
"html-keyboard-response","206","522826","0.0-6.0-0.0","1","0","p4ma7vw34euptou","","30701","","<p>In this part of the study, you will hear sounds similar to those you just heard.</p><p>Please focus on these sounds, as you may be asked questions about them later.</p><p>Occasionally, the sounds will pause for up to two seconds. When this happens, please press SPACEBAR as quickly as you can.</br>This helps ensure that you are paying attention to the sounds.</p><p>This part of the study will take about 12 minutes to complete, and you will be given the opportunity to take a couple of short breaks every few minutes.</p><p><strong>Press SPACEBAR to begin</strong></p>","","32","","","","","","","","","","","","","","","","","","","","","","","","","","","","","","","",""
"html-keyboard-response","207","523831","0.0-6.0-1.0-0.0","1","0","p4ma7vw34euptou","","null","","<p style=""font-size: 40px;"">+</p>","","null","","","","","","","","","","","","","","","","","","","","","","","","","","","","","","","",""
"html-keyboard-response","208","708845","0.0-6.0-1.0-1.0","1","0","p4ma7vw34euptou","","null","","","","null","","","SL-TRAIN","","","0","704.7999999523163","678.8999999761581","sounds/A/TRAIN/SEQ__01.mp3","3","","","","","","","","","","","","","","","","","","","","","",""
"html-button-response","209","714009","0.0-6.0-1.0-2.0","1","0","p4ma7vw34euptou","","5162.299999952316","","<p>You may take a short break if you wish.</p>","0","","","","","","","","","","","","","","","","","","","","","","","","","","","","","","","","",""
"html-keyboard-response","210","715014","0.0-6.0-1.0-3.0","1","0","p4ma7vw34euptou","","null","","<p style=""font-size: 40px;"">+</p>","","null","","","","","","","","","","","","","","","","","","","","","","","","","","","","","","","",""
"html-keyboard-response","211","900024","0.0-6.0-1.0-4.0","1","0","p4ma7vw34euptou","","null","","","","null","","","SL-TRAIN","","","0","626.3999999761581","676","sounds/A/TRAIN/SEQ__06.mp3","5","","","","","","","","","","","","","","","","","","","","","",""
"html-button-response","212","903603","0.0-6.0-1.0-5.0","1","0","p4ma7vw34euptou","","3577.5","","<p>You may take a short break if you wish.</p>","0","","","","","","","","","","","","","","","","","","","","","","","","","","","","","","","","",""
"html-keyboard-response","213","904606","0.0-6.0-1.0-6.0","1","0","p4ma7vw34euptou","","null","","<p style=""font-size: 40px;"">+</p>","","null","","","","","","","","","","","","","","","","","","","","","","","","","","","","","","","",""
"html-keyboard-response","214","1089614","0.0-6.0-1.0-7.0","1","0","p4ma7vw34euptou","","null","","","","null","","","SL-TRAIN","","","0","712.6000000238419","691.5","sounds/A/TRAIN/SEQ__12.mp3","8","","","","","","","","","","","","","","","","","","","","","",""
"html-button-response","215","1091734","0.0-6.0-1.0-8.0","1","0","p4ma7vw34euptou","","2119.2999999523163","","<p>You may take a short break if you wish.</p>","0","","","","","","","","","","","","","","","","","","","","","","","","","","","","","","","","",""
"html-keyboard-response","216","1092740","0.0-6.0-1.0-9.0","1","0","p4ma7vw34euptou","","null","","<p style=""font-size: 40px;"">+</p>","","null","","","","","","","","","","","","","","","","","","","","","","","","","","","","","","","",""
"html-keyboard-response","217","1277776","0.0-6.0-1.0-10.0","1","0","p4ma7vw34euptou","","null","","","","null","","","SL-TRAIN","","","0","938","856.6999999284744","sounds/A/TRAIN/SEQ__07.mp3","11","","","","","","","","","","","","","","","","","","","","","",""
"html-button-response","218","1279856","0.0-6.0-1.0-11.0","1","0","p4ma7vw34euptou","","2079.5","","<p>You may take a short break if you wish.</p>","0","","","","","","","","","","","","","","","","","","","","","","","","","","","","","","","","",""
"html-button-response","219","1334415","0.0-7.0-0.0","1","0","p4ma7vw34euptou","","54555.39999997616","","<p>Welcome to the second part of the study. This is a <u>familiarity task</u>.</p><p>You will now hear short sounds and will be asked to rate how familiar they sound to you <b>based on what you heard in the previous part of the study</b>.</p><p>You will rate 12 sounds in total.</p>","0","","","","","","","","","","","","","","","","","","","","","","","","","","","","","","","","",""
"html-keyboard-response","220","1335420","0.0-7.0-1.0-0.0","1","0","p4ma7vw34euptou","","null","","","","null","","","","","","","","","","","","","","","","","","","","","","","","","","","","","","","",""
"audio-keyboard-response","221","1336814","0.0-7.0-1.0-1.0","1","0","p4ma7vw34euptou","","null","","sounds/A/FAM/N004.mp3","","null","","","","","","","","","","","","","","","","","","","","","","","","","","","","","","","",""
"html-keyboard-response","222","1350103","0.0-7.0-1.0-2.0","1","0","p4ma7vw34euptou","","12787.100000023842","","<p>How familiar did this sound to you?</p><p>1&nbsp;&nbsp;&nbsp;&nbsp;&nbsp;&nbsp;&nbsp;&nbsp;&nbsp;&nbsp;&nbsp;&nbsp;&nbsp;&nbsp;&nbsp;&nbsp;&nbsp;&nbsp;&nbsp;2&nbsp;&nbsp;&nbsp;&nbsp;&nbsp;&nbsp;&nbsp;&nbsp;&nbsp;&nbsp;&nbsp;&nbsp;&nbsp;&nbsp;&nbsp;&nbsp;&nbsp;&nbsp;&nbsp;3&nbsp;&nbsp;&nbsp;&nbsp;&nbsp;&nbsp;&nbsp;&nbsp;&nbsp;&nbsp;&nbsp;&nbsp;&nbsp;&nbsp;&nbsp;&nbsp;&nbsp;&nbsp;&nbsp;4</p><p style=""font-size:14px"">Not at all familiar&nbsp;&nbsp;&nbsp;&nbsp;A little familiar&nbsp;&nbsp;&nbsp;Moderately familiar&nbsp;&nbsp;&nbsp;Extremely familiar</p><p>(press the corresponding number on your keyboard)</p>","","51","","","FAM-RESPONSE","","","","","","","","sounds/A/FAM/N004.mp3","nonword","","","","","","","","","","","","","","","","","","","",""
"html-keyboard-response","223","1352110","0.0-7.0-1.0-0.1","1","0","p4ma7vw34euptou","","null","","","","null","","","","","","","","","","","","","","","","","","","","","","","","","","","","","","","",""
"audio-keyboard-response","224","1353054","0.0-7.0-1.0-1.1","1","0","p4ma7vw34euptou","","null","","sounds/A/FAM/N003.mp3","","null","","","","","","","","","","","","","","","","","","","","","","","","","","","","","","","",""
"html-keyboard-response","225","1357794","0.0-7.0-1.0-2.1","1","0","p4ma7vw34euptou","","4237.5","","<p>How familiar did this sound to you?</p><p>1&nbsp;&nbsp;&nbsp;&nbsp;&nbsp;&nbsp;&nbsp;&nbsp;&nbsp;&nbsp;&nbsp;&nbsp;&nbsp;&nbsp;&nbsp;&nbsp;&nbsp;&nbsp;&nbsp;2&nbsp;&nbsp;&nbsp;&nbsp;&nbsp;&nbsp;&nbsp;&nbsp;&nbsp;&nbsp;&nbsp;&nbsp;&nbsp;&nbsp;&nbsp;&nbsp;&nbsp;&nbsp;&nbsp;3&nbsp;&nbsp;&nbsp;&nbsp;&nbsp;&nbsp;&nbsp;&nbsp;&nbsp;&nbsp;&nbsp;&nbsp;&nbsp;&nbsp;&nbsp;&nbsp;&nbsp;&nbsp;&nbsp;4</p><p style=""font-size:14px"">Not at all familiar&nbsp;&nbsp;&nbsp;&nbsp;A little familiar&nbsp;&nbsp;&nbsp;Moderately familiar&nbsp;&nbsp;&nbsp;Extremely familiar</p><p>(press the corresponding number on your keyboard)</p>","","50","","","FAM-RESPONSE","","","","","","","","sounds/A/FAM/N003.mp3","nonword","","","","","","","","","","","","","","","","","","","",""
"html-keyboard-response","226","1359799","0.0-7.0-1.0-0.2","1","0","p4ma7vw34euptou","","null","","","","null","","","","","","","","","","","","","","","","","","","","","","","","","","","","","","","",""
"audio-keyboard-response","227","1360745","0.0-7.0-1.0-1.2","1","0","p4ma7vw34euptou","","null","","sounds/A/FAM/P002.mp3","","null","","","","","","","","","","","","","","","","","","","","","","","","","","","","","","","",""
"html-keyboard-response","228","1362233","0.0-7.0-1.0-2.2","1","0","p4ma7vw34euptou","","982.8000000715256","","<p>How familiar did this sound to you?</p><p>1&nbsp;&nbsp;&nbsp;&nbsp;&nbsp;&nbsp;&nbsp;&nbsp;&nbsp;&nbsp;&nbsp;&nbsp;&nbsp;&nbsp;&nbsp;&nbsp;&nbsp;&nbsp;&nbsp;2&nbsp;&nbsp;&nbsp;&nbsp;&nbsp;&nbsp;&nbsp;&nbsp;&nbsp;&nbsp;&nbsp;&nbsp;&nbsp;&nbsp;&nbsp;&nbsp;&nbsp;&nbsp;&nbsp;3&nbsp;&nbsp;&nbsp;&nbsp;&nbsp;&nbsp;&nbsp;&nbsp;&nbsp;&nbsp;&nbsp;&nbsp;&nbsp;&nbsp;&nbsp;&nbsp;&nbsp;&nbsp;&nbsp;4</p><p style=""font-size:14px"">Not at all familiar&nbsp;&nbsp;&nbsp;&nbsp;A little familiar&nbsp;&nbsp;&nbsp;Moderately familiar&nbsp;&nbsp;&nbsp;Extremely familiar</p><p>(press the corresponding number on your keyboard)</p>","","52","","","FAM-RESPONSE","","","","","","","","sounds/A/FAM/P002.mp3","partword","","","","","","","","","","","","","","","","","","","",""
"html-keyboard-response","229","1364239","0.0-7.0-1.0-0.3","1","0","p4ma7vw34euptou","","null","","","","null","","","","","","","","","","","","","","","","","","","","","","","","","","","","","","","",""
"audio-keyboard-response","230","1365183","0.0-7.0-1.0-1.3","1","0","p4ma7vw34euptou","","null","","sounds/A/FAM/N001.mp3","","null","","","","","","","","","","","","","","","","","","","","","","","","","","","","","","","",""
"html-keyboard-response","231","1366706","0.0-7.0-1.0-2.3","1","0","p4ma7vw34euptou","","1021.5","","<p>How familiar did this sound to you?</p><p>1&nbsp;&nbsp;&nbsp;&nbsp;&nbsp;&nbsp;&nbsp;&nbsp;&nbsp;&nbsp;&nbsp;&nbsp;&nbsp;&nbsp;&nbsp;&nbsp;&nbsp;&nbsp;&nbsp;2&nbsp;&nbsp;&nbsp;&nbsp;&nbsp;&nbsp;&nbsp;&nbsp;&nbsp;&nbsp;&nbsp;&nbsp;&nbsp;&nbsp;&nbsp;&nbsp;&nbsp;&nbsp;&nbsp;3&nbsp;&nbsp;&nbsp;&nbsp;&nbsp;&nbsp;&nbsp;&nbsp;&nbsp;&nbsp;&nbsp;&nbsp;&nbsp;&nbsp;&nbsp;&nbsp;&nbsp;&nbsp;&nbsp;4</p><p style=""font-size:14px"">Not at all familiar&nbsp;&nbsp;&nbsp;&nbsp;A little familiar&nbsp;&nbsp;&nbsp;Moderately familiar&nbsp;&nbsp;&nbsp;Extremely familiar</p><p>(press the corresponding number on your keyboard)</p>","","52","","","FAM-RESPONSE","","","","","","","","sounds/A/FAM/N001.mp3","nonword","","","","","","","","","","","","","","","","","","","",""
"html-keyboard-response","232","1368712","0.0-7.0-1.0-0.4","1","0","p4ma7vw34euptou","","null","","","","null","","","","","","","","","","","","","","","","","","","","","","","","","","","","","","","",""
"audio-keyboard-response","233","1369658","0.0-7.0-1.0-1.4","1","0","p4ma7vw34euptou","","null","","sounds/A/FAM/W002.mp3","","null","","","","","","","","","","","","","","","","","","","","","","","","","","","","","","","",""
"html-keyboard-response","234","1373508","0.0-7.0-1.0-2.4","1","0","p4ma7vw34euptou","","3349.100000023842","","<p>How familiar did this sound to you?</p><p>1&nbsp;&nbsp;&nbsp;&nbsp;&nbsp;&nbsp;&nbsp;&nbsp;&nbsp;&nbsp;&nbsp;&nbsp;&nbsp;&nbsp;&nbsp;&nbsp;&nbsp;&nbsp;&nbsp;2&nbsp;&nbsp;&nbsp;&nbsp;&nbsp;&nbsp;&nbsp;&nbsp;&nbsp;&nbsp;&nbsp;&nbsp;&nbsp;&nbsp;&nbsp;&nbsp;&nbsp;&nbsp;&nbsp;3&nbsp;&nbsp;&nbsp;&nbsp;&nbsp;&nbsp;&nbsp;&nbsp;&nbsp;&nbsp;&nbsp;&nbsp;&nbsp;&nbsp;&nbsp;&nbsp;&nbsp;&nbsp;&nbsp;4</p><p style=""font-size:14px"">Not at all familiar&nbsp;&nbsp;&nbsp;&nbsp;A little familiar&nbsp;&nbsp;&nbsp;Moderately familiar&nbsp;&nbsp;&nbsp;Extremely familiar</p><p>(press the corresponding number on your keyboard)</p>","","51","","","FAM-RESPONSE","","","","","","","","sounds/A/FAM/W002.mp3","word","","","","","","","","","","","","","","","","","","","",""
"html-keyboard-response","235","1375516","0.0-7.0-1.0-0.5","1","0","p4ma7vw34euptou","","null","","","","null","","","","","","","","","","","","","","","","","","","","","","","","","","","","","","","",""
"audio-keyboard-response","236","1376458","0.0-7.0-1.0-1.5","1","0","p4ma7vw34euptou","","null","","sounds/A/FAM/N002.mp3","","null","","","","","","","","","","","","","","","","","","","","","","","","","","","","","","","",""
"html-keyboard-response","237","1377464","0.0-7.0-1.0-2.5","1","0","p4ma7vw34euptou","","504.5","","<p>How familiar did this sound to you?</p><p>1&nbsp;&nbsp;&nbsp;&nbsp;&nbsp;&nbsp;&nbsp;&nbsp;&nbsp;&nbsp;&nbsp;&nbsp;&nbsp;&nbsp;&nbsp;&nbsp;&nbsp;&nbsp;&nbsp;2&nbsp;&nbsp;&nbsp;&nbsp;&nbsp;&nbsp;&nbsp;&nbsp;&nbsp;&nbsp;&nbsp;&nbsp;&nbsp;&nbsp;&nbsp;&nbsp;&nbsp;&nbsp;&nbsp;3&nbsp;&nbsp;&nbsp;&nbsp;&nbsp;&nbsp;&nbsp;&nbsp;&nbsp;&nbsp;&nbsp;&nbsp;&nbsp;&nbsp;&nbsp;&nbsp;&nbsp;&nbsp;&nbsp;4</p><p style=""font-size:14px"">Not at all familiar&nbsp;&nbsp;&nbsp;&nbsp;A little familiar&nbsp;&nbsp;&nbsp;Moderately familiar&nbsp;&nbsp;&nbsp;Extremely familiar</p><p>(press the corresponding number on your keyboard)</p>","","52","","","FAM-RESPONSE","","","","","","","","sounds/A/FAM/N002.mp3","nonword","","","","","","","","","","","","","","","","","","","",""
"html-keyboard-response","238","1379473","0.0-7.0-1.0-0.6","1","0","p4ma7vw34euptou","","null","","","","null","","","","","","","","","","","","","","","","","","","","","","","","","","","","","","","",""
"audio-keyboard-response","239","1380415","0.0-7.0-1.0-1.6","1","0","p4ma7vw34euptou","","null","","sounds/A/FAM/W004.mp3","","null","","","","","","","","","","","","","","","","","","","","","","","","","","","","","","","",""
"html-keyboard-response","240","1381714","0.0-7.0-1.0-2.6","1","0","p4ma7vw34euptou","","797.1999999284744","","<p>How familiar did this sound to you?</p><p>1&nbsp;&nbsp;&nbsp;&nbsp;&nbsp;&nbsp;&nbsp;&nbsp;&nbsp;&nbsp;&nbsp;&nbsp;&nbsp;&nbsp;&nbsp;&nbsp;&nbsp;&nbsp;&nbsp;2&nbsp;&nbsp;&nbsp;&nbsp;&nbsp;&nbsp;&nbsp;&nbsp;&nbsp;&nbsp;&nbsp;&nbsp;&nbsp;&nbsp;&nbsp;&nbsp;&nbsp;&nbsp;&nbsp;3&nbsp;&nbsp;&nbsp;&nbsp;&nbsp;&nbsp;&nbsp;&nbsp;&nbsp;&nbsp;&nbsp;&nbsp;&nbsp;&nbsp;&nbsp;&nbsp;&nbsp;&nbsp;&nbsp;4</p><p style=""font-size:14px"">Not at all familiar&nbsp;&nbsp;&nbsp;&nbsp;A little familiar&nbsp;&nbsp;&nbsp;Moderately familiar&nbsp;&nbsp;&nbsp;Extremely familiar</p><p>(press the corresponding number on your keyboard)</p>","","52","","","FAM-RESPONSE","","","","","","","","sounds/A/FAM/W004.mp3","word","","","","","","","","","","","","","","","","","","","",""
"html-keyboard-response","241","1383724","0.0-7.0-1.0-0.7","1","0","p4ma7vw34euptou","","null","","","","null","","","","","","","","","","","","","","","","","","","","","","","","","","","","","","","",""
"audio-keyboard-response","242","1384666","0.0-7.0-1.0-1.7","1","0","p4ma7vw34euptou","","null","","sounds/A/FAM/P004.mp3","","null","","","","","","","","","","","","","","","","","","","","","","","","","","","","","","","",""
"html-keyboard-response","243","1387510","0.0-7.0-1.0-2.7","1","0","p4ma7vw34euptou","","2341.8000000715256","","<p>How familiar did this sound to you?</p><p>1&nbsp;&nbsp;&nbsp;&nbsp;&nbsp;&nbsp;&nbsp;&nbsp;&nbsp;&nbsp;&nbsp;&nbsp;&nbsp;&nbsp;&nbsp;&nbsp;&nbsp;&nbsp;&nbsp;2&nbsp;&nbsp;&nbsp;&nbsp;&nbsp;&nbsp;&nbsp;&nbsp;&nbsp;&nbsp;&nbsp;&nbsp;&nbsp;&nbsp;&nbsp;&nbsp;&nbsp;&nbsp;&nbsp;3&nbsp;&nbsp;&nbsp;&nbsp;&nbsp;&nbsp;&nbsp;&nbsp;&nbsp;&nbsp;&nbsp;&nbsp;&nbsp;&nbsp;&nbsp;&nbsp;&nbsp;&nbsp;&nbsp;4</p><p style=""font-size:14px"">Not at all familiar&nbsp;&nbsp;&nbsp;&nbsp;A little familiar&nbsp;&nbsp;&nbsp;Moderately familiar&nbsp;&nbsp;&nbsp;Extremely familiar</p><p>(press the corresponding number on your keyboard)</p>","","52","","","FAM-RESPONSE","","","","","","","","sounds/A/FAM/P004.mp3","partword","","","","","","","","","","","","","","","","","","","",""
"html-keyboard-response","244","1389519","0.0-7.0-1.0-0.8","1","0","p4ma7vw34euptou","","null","","","","null","","","","","","","","","","","","","","","","","","","","","","","","","","","","","","","",""
"audio-keyboard-response","245","1390463","0.0-7.0-1.0-1.8","1","0","p4ma7vw34euptou","","null","","sounds/A/FAM/P003.mp3","","null","","","","","","","","","","","","","","","","","","","","","","","","","","","","","","","",""
"html-keyboard-response","246","1394399","0.0-7.0-1.0-2.8","1","0","p4ma7vw34euptou","","3434","","<p>How familiar did this sound to you?</p><p>1&nbsp;&nbsp;&nbsp;&nbsp;&nbsp;&nbsp;&nbsp;&nbsp;&nbsp;&nbsp;&nbsp;&nbsp;&nbsp;&nbsp;&nbsp;&nbsp;&nbsp;&nbsp;&nbsp;2&nbsp;&nbsp;&nbsp;&nbsp;&nbsp;&nbsp;&nbsp;&nbsp;&nbsp;&nbsp;&nbsp;&nbsp;&nbsp;&nbsp;&nbsp;&nbsp;&nbsp;&nbsp;&nbsp;3&nbsp;&nbsp;&nbsp;&nbsp;&nbsp;&nbsp;&nbsp;&nbsp;&nbsp;&nbsp;&nbsp;&nbsp;&nbsp;&nbsp;&nbsp;&nbsp;&nbsp;&nbsp;&nbsp;4</p><p style=""font-size:14px"">Not at all familiar&nbsp;&nbsp;&nbsp;&nbsp;A little familiar&nbsp;&nbsp;&nbsp;Moderately familiar&nbsp;&nbsp;&nbsp;Extremely familiar</p><p>(press the corresponding number on your keyboard)</p>","","49","","","FAM-RESPONSE","","","","","","","","sounds/A/FAM/P003.mp3","partword","","","","","","","","","","","","","","","","","","","",""
"html-keyboard-response","247","1396405","0.0-7.0-1.0-0.9","1","0","p4ma7vw34euptou","","null","","","","null","","","","","","","","","","","","","","","","","","","","","","","","","","","","","","","",""
"audio-keyboard-response","248","1397349","0.0-7.0-1.0-1.9","1","0","p4ma7vw34euptou","","null","","sounds/A/FAM/W001.mp3","","null","","","","","","","","","","","","","","","","","","","","","","","","","","","","","","","",""
"html-keyboard-response","249","1400729","0.0-7.0-1.0-2.9","1","0","p4ma7vw34euptou","","2878.3000000715256","","<p>How familiar did this sound to you?</p><p>1&nbsp;&nbsp;&nbsp;&nbsp;&nbsp;&nbsp;&nbsp;&nbsp;&nbsp;&nbsp;&nbsp;&nbsp;&nbsp;&nbsp;&nbsp;&nbsp;&nbsp;&nbsp;&nbsp;2&nbsp;&nbsp;&nbsp;&nbsp;&nbsp;&nbsp;&nbsp;&nbsp;&nbsp;&nbsp;&nbsp;&nbsp;&nbsp;&nbsp;&nbsp;&nbsp;&nbsp;&nbsp;&nbsp;3&nbsp;&nbsp;&nbsp;&nbsp;&nbsp;&nbsp;&nbsp;&nbsp;&nbsp;&nbsp;&nbsp;&nbsp;&nbsp;&nbsp;&nbsp;&nbsp;&nbsp;&nbsp;&nbsp;4</p><p style=""font-size:14px"">Not at all familiar&nbsp;&nbsp;&nbsp;&nbsp;A little familiar&nbsp;&nbsp;&nbsp;Moderately familiar&nbsp;&nbsp;&nbsp;Extremely familiar</p><p>(press the corresponding number on your keyboard)</p>","","52","","","FAM-RESPONSE","","","","","","","","sounds/A/FAM/W001.mp3","word","","","","","","","","","","","","","","","","","","","",""
"html-keyboard-response","250","1402733","0.0-7.0-1.0-0.10","1","0","p4ma7vw34euptou","","null","","","","null","","","","","","","","","","","","","","","","","","","","","","","","","","","","","","","",""
"audio-keyboard-response","251","1403674","0.0-7.0-1.0-1.10","1","0","p4ma7vw34euptou","","null","","sounds/A/FAM/W003.mp3","","null","","","","","","","","","","","","","","","","","","","","","","","","","","","","","","","",""
"html-keyboard-response","252","1409759","0.0-7.0-1.0-2.10","1","0","p4ma7vw34euptou","","5582.799999952316","","<p>How familiar did this sound to you?</p><p>1&nbsp;&nbsp;&nbsp;&nbsp;&nbsp;&nbsp;&nbsp;&nbsp;&nbsp;&nbsp;&nbsp;&nbsp;&nbsp;&nbsp;&nbsp;&nbsp;&nbsp;&nbsp;&nbsp;2&nbsp;&nbsp;&nbsp;&nbsp;&nbsp;&nbsp;&nbsp;&nbsp;&nbsp;&nbsp;&nbsp;&nbsp;&nbsp;&nbsp;&nbsp;&nbsp;&nbsp;&nbsp;&nbsp;3&nbsp;&nbsp;&nbsp;&nbsp;&nbsp;&nbsp;&nbsp;&nbsp;&nbsp;&nbsp;&nbsp;&nbsp;&nbsp;&nbsp;&nbsp;&nbsp;&nbsp;&nbsp;&nbsp;4</p><p style=""font-size:14px"">Not at all familiar&nbsp;&nbsp;&nbsp;&nbsp;A little familiar&nbsp;&nbsp;&nbsp;Moderately familiar&nbsp;&nbsp;&nbsp;Extremely familiar</p><p>(press the corresponding number on your keyboard)</p>","","52","","","FAM-RESPONSE","","","","","","","","sounds/A/FAM/W003.mp3","word","","","","","","","","","","","","","","","","","","","",""
"html-keyboard-response","253","1411769","0.0-7.0-1.0-0.11","1","0","p4ma7vw34euptou","","null","","","","null","","","","","","","","","","","","","","","","","","","","","","","","","","","","","","","",""
"audio-keyboard-response","254","1412715","0.0-7.0-1.0-1.11","1","0","p4ma7vw34euptou","","null","","sounds/A/FAM/P001.mp3","","null","","","","","","","","","","","","","","","","","","","","","","","","","","","","","","","",""
"html-keyboard-response","255","1413873","0.0-7.0-1.0-2.11","1","0","p4ma7vw34euptou","","657.1000000238419","","<p>How familiar did this sound to you?</p><p>1&nbsp;&nbsp;&nbsp;&nbsp;&nbsp;&nbsp;&nbsp;&nbsp;&nbsp;&nbsp;&nbsp;&nbsp;&nbsp;&nbsp;&nbsp;&nbsp;&nbsp;&nbsp;&nbsp;2&nbsp;&nbsp;&nbsp;&nbsp;&nbsp;&nbsp;&nbsp;&nbsp;&nbsp;&nbsp;&nbsp;&nbsp;&nbsp;&nbsp;&nbsp;&nbsp;&nbsp;&nbsp;&nbsp;3&nbsp;&nbsp;&nbsp;&nbsp;&nbsp;&nbsp;&nbsp;&nbsp;&nbsp;&nbsp;&nbsp;&nbsp;&nbsp;&nbsp;&nbsp;&nbsp;&nbsp;&nbsp;&nbsp;4</p><p style=""font-size:14px"">Not at all familiar&nbsp;&nbsp;&nbsp;&nbsp;A little familiar&nbsp;&nbsp;&nbsp;Moderately familiar&nbsp;&nbsp;&nbsp;Extremely familiar</p><p>(press the corresponding number on your keyboard)</p>","","52","","","FAM-RESPONSE","","","","","","","","sounds/A/FAM/P001.mp3","partword","","","","","","","","","","","","","","","","","","","",""
"html-button-response","256","1447866","0.0-8.0-0.0","1","0","p4ma7vw34euptou","","32988.90000009537","","<p>You will now listen to longer sound sequences.</p><p>Each sound sequence will last about 16 seconds.</p><p>On each trial, you will be given a <u>TARGET SOUND</u>. Your task is to listen very carefully for this sound.</p><p>Every time you hear the <u>TARGET SOUND</u>, you will press the <b>SPACEBAR</b> as quickly and accurately as you can.</p>","0","","","","","","","","","","","","","","","","","","","","","","","","","","","","","","","","",""
"html-button-response","257","1465758","0.0-8.0-1.0","1","0","p4ma7vw34euptou","","17637.100000023842","","<p>It is very important that you make your responses as quickly and accurately as possible.</p><p>To help you make your responses, you will be able to listen to the <u>TARGET SOUND</u> at the beginning of each trial.</p><p>There will be 36 total trials.</p><p><b>Note: This is meant to be a difficult task. We simply want you to try your best.</p>","0","","","","","","","","","","","","","","","","","","","","","","","","","","","","","","","","",""
"html-button-response","258","1468384","0.0-8.0-2.0-0.0","1","0","p4ma7vw34euptou","","2369.3000000715256","","<p>Trial 1 of 36</p>","0","","","","","","","","","","","","","","NI","sounds/syllables/ni_SWS.wav","2400,6900,8700,12300","3","","","","","","","","","","","","","","","",""
"html-keyboard-response","259","1471718","0.0-8.0-2.0-1.0","1","0","p4ma7vw34euptou","","3333.100000023842","","","","80","","","","","","","","","","","","","NI","","2400,6900,8700,12300","3","","","","","","","","","","","","","","","",""
"audio-keyboard-response","260","1472424","0.0-8.0-2.0-2.0-0.0","1","0","p4ma7vw34euptou","","null","","sounds/syllables/ni_SWS.wav","","null","","","","","","","","","","","","","","","","","","","","","","","","","","","","","","","",""
"html-keyboard-response","261","1475081","0.0-8.0-2.0-2.0-1.0","1","0","p4ma7vw34euptou","","2656.899999976158","","<p>To replay the <u>TARGET SOUND</u>, press P.</p> When you are ready to begin, press SPACEBAR.","","80","","","","","","","","","","","","","","","","","","","","","","","","","","","","","","","",""
"audio-keyboard-response","262","1475885","0.0-8.0-2.0-2.1-0.1","1","0","p4ma7vw34euptou","","null","","sounds/syllables/ni_SWS.wav","","null","","","","","","","","","","","","","","","","","","","","","","","","","","","","","","","",""
"html-keyboard-response","263","1477145","0.0-8.0-2.0-2.1-1.1","1","0","p4ma7vw34euptou","","1259.7000000476837","","<p>To replay the <u>TARGET SOUND</u>, press P.</p> When you are ready to begin, press SPACEBAR.","","32","","","","","","","","","","","","","","","","","","","","","","","","","","","","","","","",""
"audio-keyboard-response","264","1492093","0.0-8.0-2.0-3.0","1","0","p4ma7vw34euptou","","4763","","sounds/A/TD/NI_04_TD.mp3","","32","","","TD_SUMMARY","","","","","","","","","","NI","","2400,6900,8700,12300","3","2400","6900","8700","12300","null","null","null","821.3000000715256","4762.100000023842_11163.800000071526_13121.300000071526","2","","","","","",""
"html-button-response","265","1493558","0.0-8.0-2.0-0.1","1","0","p4ma7vw34euptou","","1462.5","","<p>Trial 2 of 36</p>","0","","","","","","","","","","","","","","FU","sounds/syllables/fu_SWS.wav","3900,5700,7500,12000","2","","","","","","","","","","","","","","","",""
"html-keyboard-response","266","1495529","0.0-8.0-2.0-1.1","1","0","p4ma7vw34euptou","","1969.8999999761581","","","","80","","","","","","","","","","","","","FU","","3900,5700,7500,12000","2","","","","","","","","","","","","","","","",""
"audio-keyboard-response","267","1495832","0.0-8.0-2.0-2.2-0.2","1","0","p4ma7vw34euptou","","null","","sounds/syllables/fu_SWS.wav","","null","","","","","","","","","","","","","","","","","","","","","","","","","","","","","","","",""
"html-keyboard-response","268","1498044","0.0-8.0-2.0-2.2-1.2","1","0","p4ma7vw34euptou","","2211.5","","<p>To replay the <u>TARGET SOUND</u>, press P.</p> When you are ready to begin, press SPACEBAR.","","80","","","","","","","","","","","","","","","","","","","","","","","","","","","","","","","",""
"audio-keyboard-response","269","1498845","0.0-8.0-2.0-2.3-0.3","1","0","p4ma7vw34euptou","","null","","sounds/syllables/fu_SWS.wav","","null","","","","","","","","","","","","","","","","","","","","","","","","","","","","","","","",""
"html-keyboard-response","270","1499584","0.0-8.0-2.0-2.3-1.3","1","0","p4ma7vw34euptou","","737.8999999761581","","<p>To replay the <u>TARGET SOUND</u>, press P.</p> When you are ready to begin, press SPACEBAR.","","32","","","","","","","","","","","","","","","","","","","","","","","","","","","","","","","",""
"audio-keyboard-response","271","1514537","0.0-8.0-2.0-3.1","1","0","p4ma7vw34euptou","","3029","","sounds/A/TD/FU_05_TD.mp3","","32","","","TD_SUMMARY","","","","","","","","","","FU","","3900,5700,7500,12000","2","3900","5700","7500","12000","632.2000000476837","859.2000000476837","700.7999999523163","778.3999999761581","___3032.2999999523163_4532.200000047684_6559.200000047684_8200.799999952316_10458.299999952316_12778.399999976158","2","","","","","",""
"html-button-response","272","1515786","0.0-8.0-2.0-0.2","1","0","p4ma7vw34euptou","","1247.5","","<p>Trial 3 of 36</p>","0","","","","","","","","","","","","","","RU","sounds/syllables/ru_SWS.wav","900,5400,7200,11700","1","","","","","","","","","","","","","","","",""
"html-keyboard-response","273","1518228","0.0-8.0-2.0-1.2","1","0","p4ma7vw34euptou","","2440.899999976158","","","","80","","","","","","","","","","","","","RU","","900,5400,7200,11700","1","","","","","","","","","","","","","","","",""
"audio-keyboard-response","274","1518531","0.0-8.0-2.0-2.4-0.4","1","0","p4ma7vw34euptou","","null","","sounds/syllables/ru_SWS.wav","","null","","","","","","","","","","","","","","","","","","","","","","","","","","","","","","","",""
"html-keyboard-response","275","1520230","0.0-8.0-2.0-2.4-1.4","1","0","p4ma7vw34euptou","","1697.8999999761581","","<p>To replay the <u>TARGET SOUND</u>, press P.</p> When you are ready to begin, press SPACEBAR.","","80","","","","","","","","","","","","","","","","","","","","","","","","","","","","","","","",""
"audio-keyboard-response","276","1521033","0.0-8.0-2.0-2.5-0.5","1","0","p4ma7vw34euptou","","null","","sounds/syllables/ru_SWS.wav","","null","","","","","","","","","","","","","","","","","","","","","","","","","","","","","","","",""
"html-keyboard-response","277","1521627","0.0-8.0-2.0-2.5-1.5","1","0","p4ma7vw34euptou","","593.5","","<p>To replay the <u>TARGET SOUND</u>, press P.</p> When you are ready to begin, press SPACEBAR.","","32","","","","","","","","","","","","","","","","","","","","","","","","","","","","","","","",""
"audio-keyboard-response","278","1536580","0.0-8.0-2.0-3.2","1","0","p4ma7vw34euptou","","1643","","sounds/A/TD/RU_02_TD.mp3","","32","","","TD_SUMMARY","","","","","","","","","","RU","","900,5400,7200,11700","1","900","5400","7200","11700","743.2000000476837","781","521.8999999761581","817.6000000238419","_________1643.2000000476837_2923.399999976158_6181_7721.899999976158_12517.600000023842_14273.700000047684","2","","","","","",""
"html-button-response","279","1537991","0.0-8.0-2.0-0.3","1","0","p4ma7vw34euptou","","1409.2000000476837","","<p>Trial 4 of 36</p>","0","","","","","","","","","","","","","","TA","sounds/syllables/ta_SWS.wav","5400,7200,9000,12600","1","","","","","","","","","","","","","","","",""
"html-keyboard-response","280","1539240","0.0-8.0-2.0-1.3","1","0","p4ma7vw34euptou","","1247.5","","","","80","","","","","","","","","","","","","TA","","5400,7200,9000,12600","1","","","","","","","","","","","","","","","",""
"audio-keyboard-response","281","1539540","0.0-8.0-2.0-2.6-0.6","1","0","p4ma7vw34euptou","","null","","sounds/syllables/ta_SWS.wav","","null","","","","","","","","","","","","","","","","","","","","","","","","","","","","","","","",""
"html-keyboard-response","282","1540565","0.0-8.0-2.0-2.6-1.6","1","0","p4ma7vw34euptou","","1024.2000000476837","","<p>To replay the <u>TARGET SOUND</u>, press P.</p> When you are ready to begin, press SPACEBAR.","","80","","","","","","","","","","","","","","","","","","","","","","","","","","","","","","","",""
"audio-keyboard-response","283","1541369","0.0-8.0-2.0-2.7-0.7","1","0","p4ma7vw34euptou","","null","","sounds/syllables/ta_SWS.wav","","null","","","","","","","","","","","","","","","","","","","","","","","","","","","","","","","",""
"html-keyboard-response","284","1541875","0.0-8.0-2.0-2.7-1.7","1","0","p4ma7vw34euptou","","505","","<p>To replay the <u>TARGET SOUND</u>, press P.</p> When you are ready to begin, press SPACEBAR.","","32","","","","","","","","","","","","","","","","","","","","","","","","","","","","","","","",""
"audio-keyboard-response","285","1556826","0.0-8.0-2.0-3.3","1","0","p4ma7vw34euptou","","1067","","sounds/A/TD/TA_09_TD.mp3","","32","","","TD_SUMMARY","","","","","","","","","","TA","","5400,7200,9000,12600","1","5400","7200","9000","12600","335.8000000715256","315.60000002384186","750.5","757.8000000715256","_______________1070.8999999761581_3208.5_5735.800000071526_7515.600000023842_9750.5_11408.200000047684_13357.800000071526","2","","","","","",""
"html-button-response","286","1558243","0.0-8.0-2.0-0.4","1","0","p4ma7vw34euptou","","1415.1000000238419","","<p>Trial 5 of 36</p>","0","","","","","","","","","","","","","","RE","sounds/syllables/re_SWS.wav","2700,5400,8100,11700","1","","","","","","","","","","","","","","","",""
"html-keyboard-response","287","1559470","0.0-8.0-2.0-1.4","1","0","p4ma7vw34euptou","","1226.7000000476837","","","","80","","","","","","","","","","","","","RE","","2700,5400,8100,11700","1","","","","","","","","","","","","","","","",""
"audio-keyboard-response","288","1559770","0.0-8.0-2.0-2.8-0.8","1","0","p4ma7vw34euptou","","null","","sounds/syllables/re_SWS.wav","","null","","","","","","","","","","","","","","","","","","","","","","","","","","","","","","","",""
"html-keyboard-response","289","1560923","0.0-8.0-2.0-2.8-1.8","1","0","p4ma7vw34euptou","","1152.9000000953674","","<p>To replay the <u>TARGET SOUND</u>, press P.</p> When you are ready to begin, press SPACEBAR.","","80","","","","","","","","","","","","","","","","","","","","","","","","","","","","","","","",""
"audio-keyboard-response","290","1561727","0.0-8.0-2.0-2.9-0.9","1","0","p4ma7vw34euptou","","null","","sounds/syllables/re_SWS.wav","","null","","","","","","","","","","","","","","","","","","","","","","","","","","","","","","","",""
"html-keyboard-response","291","1562164","0.0-8.0-2.0-2.9-1.9","1","0","p4ma7vw34euptou","","436.10000002384186","","<p>To replay the <u>TARGET SOUND</u>, press P.</p> When you are ready to begin, press SPACEBAR.","","32","","","","","","","","","","","","","","","","","","","","","","","","","","","","","","","",""
"audio-keyboard-response","292","1577115","0.0-8.0-2.0-3.4","1","0","p4ma7vw34euptou","","3376","","sounds/A/TD/RE_01_TD.mp3","","32","","","TD_SUMMARY","","","","","","","","","","RE","","2700,5400,8100,11700","1","2700","5400","8100","11700","675.6000000238419","982.1000000238419","615.2000000476837","584.8999999761581","______________________3375.600000023842_4440.600000023842_6382.100000023842_8715.200000047684_12284.899999976158","2","","","","","",""
"html-button-response","293","1578164","0.0-8.0-2.0-0.5","1","0","p4ma7vw34euptou","","1047.7000000476837","","<p>Trial 6 of 36</p>","0","","","","","","","","","","","","","","FE","sounds/syllables/fe_SWS.wav","900,3600,5400,10800","1","","","","","","","","","","","","","","","",""
"html-keyboard-response","294","1579552","0.0-8.0-2.0-1.5","1","0","p4ma7vw34euptou","","1386.4000000953674","","","","80","","","","","","","","","","","","","FE","","900,3600,5400,10800","1","","","","","","","","","","","","","","","",""
"audio-keyboard-response","295","1579856","0.0-8.0-2.0-2.10-0.10","1","0","p4ma7vw34euptou","","null","","sounds/syllables/fe_SWS.wav","","null","","","","","","","","","","","","","","","","","","","","","","","","","","","","","","","",""
"html-keyboard-response","296","1580693","0.0-8.0-2.0-2.10-1.10","1","0","p4ma7vw34euptou","","836.5","","<p>To replay the <u>TARGET SOUND</u>, press P.</p> When you are ready to begin, press SPACEBAR.","","80","","","","","","","","","","","","","","","","","","","","","","","","","","","","","","","",""
"audio-keyboard-response","297","1581498","0.0-8.0-2.0-2.11-0.11","1","0","p4ma7vw34euptou","","null","","sounds/syllables/fe_SWS.wav","","null","","","","","","","","","","","","","","","","","","","","","","","","","","","","","","","",""
"html-keyboard-response","298","1583361","0.0-8.0-2.0-2.11-1.11","1","0","p4ma7vw34euptou","","1862.2999999523163","","<p>To replay the <u>TARGET SOUND</u>, press P.</p> When you are ready to begin, press SPACEBAR.","","32","","","","","","","","","","","","","","","","","","","","","","","","","","","","","","","",""
"audio-keyboard-response","299","1598315","0.0-8.0-2.0-3.5","1","0","p4ma7vw34euptou","","1680","","sounds/A/TD/FE_06_TD.mp3","","32","","","TD_SUMMARY","","","","","","","","","","FE","","900,3600,5400,10800","1","900","3600","5400","10800","780.2999999523163","759.5","null","688.5","___________________________1680.2999999523163_2720.2000000476837_4359.5_5527.399999976158_8789.700000047684_11488.5_13315.600000023842","2","","","","","",""
"html-button-response","300","1599396","0.0-8.0-2.0-0.6","1","0","p4ma7vw34euptou","","1079.5","","<p>Trial 7 of 36</p>","0","","","","","","","","","","","","","","SU","sounds/syllables/su_SWS.wav","7800,9600,11400,13200","3","","","","","","","","","","","","","","","",""
"html-keyboard-response","301","1600714","0.0-8.0-2.0-1.6","1","0","p4ma7vw34euptou","","1316.7999999523163","","","","80","","","","","","","","","","","","","SU","","7800,9600,11400,13200","3","","","","","","","","","","","","","","","",""
"audio-keyboard-response","302","1601014","0.0-8.0-2.0-2.12-0.12","1","0","p4ma7vw34euptou","","null","","sounds/syllables/su_SWS.wav","","null","","","","","","","","","","","","","","","","","","","","","","","","","","","","","","","",""
"html-keyboard-response","303","1601939","0.0-8.0-2.0-2.12-1.12","1","0","p4ma7vw34euptou","","924.4000000953674","","<p>To replay the <u>TARGET SOUND</u>, press P.</p> When you are ready to begin, press SPACEBAR.","","80","","","","","","","","","","","","","","","","","","","","","","","","","","","","","","","",""
"audio-keyboard-response","304","1602742","0.0-8.0-2.0-2.13-0.13","1","0","p4ma7vw34euptou","","null","","sounds/syllables/su_SWS.wav","","null","","","","","","","","","","","","","","","","","","","","","","","","","","","","","","","",""
"html-keyboard-response","305","1603345","0.0-8.0-2.0-2.13-1.13","1","0","p4ma7vw34euptou","","602.3999999761581","","<p>To replay the <u>TARGET SOUND</u>, press P.</p> When you are ready to begin, press SPACEBAR.","","32","","","","","","","","","","","","","","","","","","","","","","","","","","","","","","","",""
"audio-keyboard-response","306","1618294","0.0-8.0-2.0-3.6","1","0","p4ma7vw34euptou","","4587","","sounds/A/TD/SU_08_TD.mp3","","32","","","TD_SUMMARY","","","","","","","","","","SU","","7800,9600,11400,13200","3","7800","9600","11400","13200","null","551.3999999761581","789.3000000715256","623.3000000715256","__________________________________4587.399999976158_7680.300000071526_10151.399999976158_12189.300000071526_13823.300000071526","2","","","","","",""
"html-button-response","307","1619327","0.0-8.0-2.0-0.7","1","0","p4ma7vw34euptou","","1030.3999999761581","","<p>Trial 8 of 36</p>","0","","","","","","","","","","","","","","RE","sounds/syllables/re_SWS.wav","900,2700,5400,10800","1","","","","","","","","","","","","","","","",""
"html-keyboard-response","308","1620140","0.0-8.0-2.0-1.7","1","0","p4ma7vw34euptou","","812.2000000476837","","","","80","","","","","","","","","","","","","RE","","900,2700,5400,10800","1","","","","","","","","","","","","","","","",""
"audio-keyboard-response","309","1620444","0.0-8.0-2.0-2.14-0.14","1","0","p4ma7vw34euptou","","null","","sounds/syllables/re_SWS.wav","","null","","","","","","","","","","","","","","","","","","","","","","","","","","","","","","","",""
"html-keyboard-response","310","1621086","0.0-8.0-2.0-2.14-1.14","1","0","p4ma7vw34euptou","","641.8000000715256","","<p>To replay the <u>TARGET SOUND</u>, press P.</p> When you are ready to begin, press SPACEBAR.","","80","","","","","","","","","","","","","","","","","","","","","","","","","","","","","","","",""
"audio-keyboard-response","311","1621895","0.0-8.0-2.0-2.15-0.15","1","0","p4ma7vw34euptou","","null","","sounds/syllables/re_SWS.wav","","null","","","","","","","","","","","","","","","","","","","","","","","","","","","","","","","",""
"html-keyboard-response","312","1622608","0.0-8.0-2.0-2.15-1.15","1","0","p4ma7vw34euptou","","712.5","","<p>To replay the <u>TARGET SOUND</u>, press P.</p> When you are ready to begin, press SPACEBAR.","","32","","","","","","","","","","","","","","","","","","","","","","","","","","","","","","","",""
"audio-keyboard-response","313","1637559","0.0-8.0-2.0-3.7","1","0","p4ma7vw34euptou","","731","","sounds/A/TD/RE_04_TD.mp3","","32","","","TD_SUMMARY","","","","","","","","","","RE","","900,2700,5400,10800","1","900","2700","5400","10800","893.2000000476837","740.2000000476837","632.1000000238419","797.8999999761581","_______________________________________732.7000000476837_1793.2000000476837_3440.2000000476837_6032.100000023842_8029.800000071526_8871.600000023842_11597.899999976158","2","","","","","",""
"html-button-response","314","1639037","0.0-8.0-2.0-0.8","1","0","p4ma7vw34euptou","","1476.2999999523163","","<p>Trial 9 of 36</p>","0","","","","","","","","","","","","","","GE","sounds/syllables/ge_SWS.wav","2100,4800,8400,12900","2","","","","","","","","","","","","","","","",""
"html-keyboard-response","315","1640051","0.0-8.0-2.0-1.8","1","0","p4ma7vw34euptou","","1012.6000000238419","","","","80","","","","","","","","","","","","","GE","","2100,4800,8400,12900","2","","","","","","","","","","","","","","","",""
"audio-keyboard-response","316","1640354","0.0-8.0-2.0-2.16-0.16","1","0","p4ma7vw34euptou","","null","","sounds/syllables/ge_SWS.wav","","null","","","","","","","","","","","","","","","","","","","","","","","","","","","","","","","",""
"html-keyboard-response","317","1641082","0.0-8.0-2.0-2.16-1.16","1","0","p4ma7vw34euptou","","728.1000000238419","","<p>To replay the <u>TARGET SOUND</u>, press P.</p> When you are ready to begin, press SPACEBAR.","","80","","","","","","","","","","","","","","","","","","","","","","","","","","","","","","","",""
"audio-keyboard-response","318","1641890","0.0-8.0-2.0-2.17-0.17","1","0","p4ma7vw34euptou","","null","","sounds/syllables/ge_SWS.wav","","null","","","","","","","","","","","","","","","","","","","","","","","","","","","","","","","",""
"html-keyboard-response","319","1642588","0.0-8.0-2.0-2.17-1.17","1","0","p4ma7vw34euptou","","697.3999999761581","","<p>To replay the <u>TARGET SOUND</u>, press P.</p> When you are ready to begin, press SPACEBAR.","","32","","","","","","","","","","","","","","","","","","","","","","","","","","","","","","","",""
"audio-keyboard-response","320","1657538","0.0-8.0-2.0-3.8","1","0","p4ma7vw34euptou","","1595","","sounds/A/TD/GE_06_TD.mp3","","32","","","TD_SUMMARY","","","","","","","","","","GE","","2100,4800,8400,12900","2","2100","4800","8400","12900","518","503.39999997615814","null","370.1999999284744","______________________________________________1592.8999999761581_2618_5303.399999976158_8582.5_10670.5_13270.199999928474","2","","","","","",""
"html-button-response","321","1660038","0.0-8.0-2.0-0.9","1","0","p4ma7vw34euptou","","2498.3000000715256","","<p>Trial 10 of 36</p>","0","","","","","","","","","","","","","","TA","sounds/syllables/ta_SWS.wav","4500,6300,9900,11700","1","","","","","","","","","","","","","","","",""
"html-keyboard-response","322","1661026","0.0-8.0-2.0-1.9","1","0","p4ma7vw34euptou","","986.6000000238419","","","","80","","","","","","","","","","","","","TA","","4500,6300,9900,11700","1","","","","","","","","","","","","","","","",""
"audio-keyboard-response","323","1661330","0.0-8.0-2.0-2.18-0.18","1","0","p4ma7vw34euptou","","null","","sounds/syllables/ta_SWS.wav","","null","","","","","","","","","","","","","","","","","","","","","","","","","","","","","","","",""
"html-keyboard-response","324","1662123","0.0-8.0-2.0-2.18-1.18","1","0","p4ma7vw34euptou","","791.8999999761581","","<p>To replay the <u>TARGET SOUND</u>, press P.</p> When you are ready to begin, press SPACEBAR.","","80","","","","","","","","","","","","","","","","","","","","","","","","","","","","","","","",""
"audio-keyboard-response","325","1662925","0.0-8.0-2.0-2.19-0.19","1","0","p4ma7vw34euptou","","null","","sounds/syllables/ta_SWS.wav","","null","","","","","","","","","","","","","","","","","","","","","","","","","","","","","","","",""
"html-keyboard-response","326","1663737","0.0-8.0-2.0-2.19-1.19","1","0","p4ma7vw34euptou","","811","","<p>To replay the <u>TARGET SOUND</u>, press P.</p> When you are ready to begin, press SPACEBAR.","","80","","","","","","","","","","","","","","","","","","","","","","","","","","","","","","","",""
"audio-keyboard-response","327","1664541","0.0-8.0-2.0-2.20-0.20","1","0","p4ma7vw34euptou","","null","","sounds/syllables/ta_SWS.wav","","null","","","","","","","","","","","","","","","","","","","","","","","","","","","","","","","",""
"html-keyboard-response","328","1664826","0.0-8.0-2.0-2.20-1.20","1","0","p4ma7vw34euptou","","284","","<p>To replay the <u>TARGET SOUND</u>, press P.</p> When you are ready to begin, press SPACEBAR.","","32","","","","","","","","","","","","","","","","","","","","","","","","","","","","","","","",""
"audio-keyboard-response","329","1679779","0.0-8.0-2.0-3.9","1","0","p4ma7vw34euptou","","5157","","sounds/A/TD/TA_04_TD.mp3","","32","","","TD_SUMMARY","","","","","","","","","","TA","","4500,6300,9900,11700","1","4500","6300","9900","11700","657.6000000238419","1094.3999999761581","674.7999999523163","null","____________________________________________________5157.600000023842_7394.399999976158_9280.5_10574.799999952316","3","","","","","",""
"html-button-response","330","1681117","0.0-8.0-2.0-0.10","1","0","p4ma7vw34euptou","","1336.1000000238419","","<p>Trial 11 of 36</p>","0","","","","","","","","","","","","","","FU","sounds/syllables/fu_SWS.wav","5700,9300,11100,12900","2","","","","","","","","","","","","","","","",""
"html-keyboard-response","331","1682059","0.0-8.0-2.0-1.10","1","0","p4ma7vw34euptou","","940.6999999284744","","","","80","","","","","","","","","","","","","FU","","5700,9300,11100,12900","2","","","","","","","","","","","","","","","",""
"audio-keyboard-response","332","1682360","0.0-8.0-2.0-2.21-0.21","1","0","p4ma7vw34euptou","","null","","sounds/syllables/fu_SWS.wav","","null","","","","","","","","","","","","","","","","","","","","","","","","","","","","","","","",""
"html-keyboard-response","333","1682952","0.0-8.0-2.0-2.21-1.21","1","0","p4ma7vw34euptou","","591.1000000238419","","<p>To replay the <u>TARGET SOUND</u>, press P.</p> When you are ready to begin, press SPACEBAR.","","80","","","","","","","","","","","","","","","","","","","","","","","","","","","","","","","",""
"audio-keyboard-response","334","1683758","0.0-8.0-2.0-2.22-0.22","1","0","p4ma7vw34euptou","","null","","sounds/syllables/fu_SWS.wav","","null","","","","","","","","","","","","","","","","","","","","","","","","","","","","","","","",""
"html-keyboard-response","335","1684430","0.0-8.0-2.0-2.22-1.22","1","0","p4ma7vw34euptou","","672.3000000715256","","<p>To replay the <u>TARGET SOUND</u>, press P.</p> When you are ready to begin, press SPACEBAR.","","80","","","","","","","","","","","","","","","","","","","","","","","","","","","","","","","",""
"audio-keyboard-response","336","1685235","0.0-8.0-2.0-2.23-0.23","1","0","p4ma7vw34euptou","","null","","sounds/syllables/fu_SWS.wav","","null","","","","","","","","","","","","","","","","","","","","","","","","","","","","","","","",""
"html-keyboard-response","337","1685740","0.0-8.0-2.0-2.23-1.23","1","0","p4ma7vw34euptou","","504.2000000476837","","<p>To replay the <u>TARGET SOUND</u>, press P.</p> When you are ready to begin, press SPACEBAR.","","32","","","","","","","","","","","","","","","","","","","","","","","","","","","","","","","",""
