"trial_type","trial_index","time_elapsed","internal_node_id","counterbalance","lang_instruct","ParticipantID","view_history","rt","url","stimulus","button_pressed","key_press","correctRESP","correct","designation","location","correctanswer","responses","sentence","keywords","typed_resp","keyword1_acc","keyword2_acc","keyword3_acc","keyword4_acc","keyword5_acc","total_acc","prop_acc","timeouts","pause_rt01","pause_rt02","train_file","numKeyPress","sound","fam_type","SYLLABLE","EXEMPLAR","TD_LOCS","TD_TYPE","TDLOC_01","TDLOC_02","TDLOC_03","TDLOC_04","TD_RT_01","TD_RT_02","TD_RT_03","TD_RT_04","TD_SUBJ_RTs","number_of_plays","slider_start","response","question_order","syllable","syllable_type"
"pavlovia","0","4","0.0-0.0","1","1","c8m8tg2760xalr2","","","","","","","","","","","","","","","","","","","","","","","","","","","","","","","","","","","","","","","","","","","","","","","",""
"instructions","1","6232","0.0-1.0","1","1","c8m8tg2760xalr2","[{""page_index"":0,""viewing_time"":2416.89999999851},{""page_index"":1,""viewing_time"":3808}]","6227.60000000149","","","","","","","","","","","","","","","","","","","","","","","","","","","","","","","","","","","","","","","","","","","","","",""
"external-html","2","18745","0.0-2.0","1","1","c8m8tg2760xalr2","","12283.20000000298","consent/consent.html","","","","","","","","","","","","","","","","","","","","","","","","","","","","","","","","","","","","","","","","","","","","",""
"html-button-response","3","47055","0.0-3.0-0.0-0.0","1","1","c8m8tg2760xalr2","","28306.29999999702","","<p>Welcome to the study. You will first complete a short volume calibration and headphone check.</p><p>Please make sure you are in a quiet listening environment, that you are wearing headphones, and that your computer's volume is turned on.<p></p>","0","","","","","","","","","","","","","","","","","","","","","","","","","","","","","","","","","","","","","","","","","","",""
"html-button-response","4","53626","0.0-3.0-0.0-1.0","1","1","c8m8tg2760xalr2","","6318.5","","<p>The volume calibration will be first.</p><p>You will hear a thirty-second noise. Please adjust your computer's volume so that this noise is being presented at a comfortable level.<p></p>","0","","","","","","","","","","","","","","","","","","","","","","","","","","","","","","","","","","","","","","","","","","",""
"audio-button-response","5","59328","0.0-3.0-0.0-2.0","1","1","c8m8tg2760xalr2","","5004","","audCalib/volumetest.mp3","0","","","","","","","","","","","","","","","","","","","","","","","","","","","","","","","","","","","","","","","","","","",""
"html-button-response","6","64815","0.0-3.0-1.0-0.0","1","1","c8m8tg2760xalr2","","5485.80000000447","","<p>You will now complete a short headphone check.</p><p>On each trial, you will hear three tones. One of these tones will be quieter than the others. Your task is to identify whether the quiet tone occured first, second, or third.</p><p>There are six trials in total.<p></p>","0","","","","","","","","","","","","","","","","","","","","","","","","","","","","","","","","","","","","","","","","","","",""
"html-keyboard-response","7","65572","0.0-3.0-1.0-1.0-0.0","1","1","c8m8tg2760xalr2","","null","","<div style=""font-size:60px;"">+</div>","","null","","","","","","","","","","","","","","","","","","","","","","","","","","","","","","","","","","","","","","","","","",""
"audio-button-response","8","70578","0.0-3.0-1.0-1.0-1.0","1","1","c8m8tg2760xalr2","","5004","","audCalib/t2_1.mp3","1","","1","1","headphone-test","","","","","","","","","","","","","","","","","","","","","","","","","","","","","","","","","","","","","","",""
"html-keyboard-response","9","71336","0.0-3.0-1.0-1.0-0.1","1","1","c8m8tg2760xalr2","","null","","<div style=""font-size:60px;"">+</div>","","null","","","","","","","","","","","","","","","","","","","","","","","","","","","","","","","","","","","","","","","","","",""
"audio-button-response","10","76240","0.0-3.0-1.0-1.0-1.1","1","1","c8m8tg2760xalr2","","4899","","audCalib/t2_2.mp3","1","","1","1","headphone-test","","","","","","","","","","","","","","","","","","","","","","","","","","","","","","","","","","","","","","",""
"html-keyboard-response","11","76995","0.0-3.0-1.0-1.0-0.2","1","1","c8m8tg2760xalr2","","null","","<div style=""font-size:60px;"">+</div>","","null","","","","","","","","","","","","","","","","","","","","","","","","","","","","","","","","","","","","","","","","","",""
"audio-button-response","12","81567","0.0-3.0-1.0-1.0-1.2","1","1","c8m8tg2760xalr2","","4569","","audCalib/t3_1.mp3","2","","2","1","headphone-test","","","","","","","","","","","","","","","","","","","","","","","","","","","","","","","","","","","","","","",""
"html-keyboard-response","13","82325","0.0-3.0-1.0-1.0-0.3","1","1","c8m8tg2760xalr2","","null","","<div style=""font-size:60px;"">+</div>","","null","","","","","","","","","","","","","","","","","","","","","","","","","","","","","","","","","","","","","","","","","",""
"audio-button-response","14","87078","0.0-3.0-1.0-1.0-1.3","1","1","c8m8tg2760xalr2","","4754","","audCalib/t1_1.mp3","0","","0","1","headphone-test","","","","","","","","","","","","","","","","","","","","","","","","","","","","","","","","","","","","","","",""
"html-keyboard-response","15","87833","0.0-3.0-1.0-1.0-0.4","1","1","c8m8tg2760xalr2","","null","","<div style=""font-size:60px;"">+</div>","","null","","","","","","","","","","","","","","","","","","","","","","","","","","","","","","","","","","","","","","","","","",""
"audio-button-response","16","92398","0.0-3.0-1.0-1.0-1.4","1","1","c8m8tg2760xalr2","","4563","","audCalib/t3_2.mp3","2","","2","1","headphone-test","","","","","","","","","","","","","","","","","","","","","","","","","","","","","","","","","","","","","","",""
"html-keyboard-response","17","93155","0.0-3.0-1.0-1.0-0.5","1","1","c8m8tg2760xalr2","","null","","<div style=""font-size:60px;"">+</div>","","null","","","","","","","","","","","","","","","","","","","","","","","","","","","","","","","","","","","","","","","","","",""
"audio-button-response","18","97846","0.0-3.0-1.0-1.0-1.5","1","1","c8m8tg2760xalr2","","4685","","audCalib/t1_2.mp3","0","","0","1","headphone-test","","","","","","","","","","","","","","","","","","","","","","","","","","","","","","","","","","","","","","",""
"html-button-response","19","99423","0.0-3.0-2.0","1","1","c8m8tg2760xalr2","","1320.3999999985099","","<p>The volume calibration and headphone check are now complete.</p>","0","","","","","","","","","","","","","","","","","","","","","","","","","","","","","","","","","","","","","","","","","","",""
"instructions","20","112398","0.0-4.0-0.0","1","1","c8m8tg2760xalr2","[{""page_index"":0,""viewing_time"":1183.5},{""page_index"":1,""viewing_time"":9273},{""page_index"":2,""viewing_time"":2518.2000000029802}]","12975","","","","","","","","","","","","","","","","","","","","","","","","","","","","","","","","","","","","","","","","","","","","","",""
"audio-keyboard-response","21","112702","0.0-4.0-1.0-0.0","1","1","c8m8tg2760xalr2","","null","","sounds/induction/right/ge_SWS.wav","","null","","","","","","","","","","","","","","","","","","","","","","","","","","","","","","","","","","","","","","","","","",""
"html-button-response","22","114564","0.0-4.0-1.0-1.0","1","1","c8m8tg2760xalr2","","1861.1000000014901","","What sound did you hear?","0","","","1","INDUCTION-JUDGMENT","right","0","","","","","","","","","","","","","","","","","","","","","","","","","","","","","","","","","","","","",""
"html-keyboard-response","23","115566","0.0-4.0-1.0-2.0","1","1","c8m8tg2760xalr2","","null","","<p style=""color:green;""><b>Correct!</b></p>","","null","","","","","","","","","","","","","","","","","","","","","","","","","","","","","","","","","","","","","","","","","",""
"audio-keyboard-response","24","116368","0.0-4.0-1.0-0.1","1","1","c8m8tg2760xalr2","","null","","sounds/induction/right/ko_SWS.wav","","null","","","","","","","","","","","","","","","","","","","","","","","","","","","","","","","","","","","","","","","","","",""
"html-button-response","25","118895","0.0-4.0-1.0-1.1","1","1","c8m8tg2760xalr2","","2526.39999999851","","What sound did you hear?","0","","","1","INDUCTION-JUDGMENT","right","0","","","","","","","","","","","","","","","","","","","","","","","","","","","","","","","","","","","","",""
"html-keyboard-response","26","119901","0.0-4.0-1.0-2.1","1","1","c8m8tg2760xalr2","","null","","<p style=""color:green;""><b>Correct!</b></p>","","null","","","","","","","","","","","","","","","","","","","","","","","","","","","","","","","","","","","","","","","","","",""
"audio-keyboard-response","27","120706","0.0-4.0-1.0-0.2","1","1","c8m8tg2760xalr2","","null","","sounds/induction/left/me_SWS.wav","","null","","","","","","","","","","","","","","","","","","","","","","","","","","","","","","","","","","","","","","","","","",""
"html-button-response","28","122014","0.0-4.0-1.0-1.2","1","1","c8m8tg2760xalr2","","1306.7000000029802","","What sound did you hear?","1","","","1","INDUCTION-JUDGMENT","left","1","","","","","","","","","","","","","","","","","","","","","","","","","","","","","","","","","","","","",""
"html-keyboard-response","29","123017","0.0-4.0-1.0-2.2","1","1","c8m8tg2760xalr2","","null","","<p style=""color:green;""><b>Correct!</b></p>","","null","","","","","","","","","","","","","","","","","","","","","","","","","","","","","","","","","","","","","","","","","",""
"audio-keyboard-response","30","123822","0.0-4.0-1.0-0.3","1","1","c8m8tg2760xalr2","","null","","sounds/induction/right/ru_SWS.wav","","null","","","","","","","","","","","","","","","","","","","","","","","","","","","","","","","","","","","","","","","","","",""
"html-button-response","31","125250","0.0-4.0-1.0-1.3","1","1","c8m8tg2760xalr2","","1426.3000000044703","","What sound did you hear?","1","","","1","INDUCTION-JUDGMENT","right","1","","","","","","","","","","","","","","","","","","","","","","","","","","","","","","","","","","","","",""
"html-keyboard-response","32","126252","0.0-4.0-1.0-2.3","1","1","c8m8tg2760xalr2","","null","","<p style=""color:green;""><b>Correct!</b></p>","","null","","","","","","","","","","","","","","","","","","","","","","","","","","","","","","","","","","","","","","","","","",""
"audio-keyboard-response","33","127054","0.0-4.0-1.0-0.4","1","1","c8m8tg2760xalr2","","null","","sounds/induction/left/ru_SWS.wav","","null","","","","","","","","","","","","","","","","","","","","","","","","","","","","","","","","","","","","","","","","","",""
"html-button-response","34","128219","0.0-4.0-1.0-1.4","1","1","c8m8tg2760xalr2","","1162.3000000044703","","What sound did you hear?","0","","","1","INDUCTION-JUDGMENT","left","0","","","","","","","","","","","","","","","","","","","","","","","","","","","","","","","","","","","","",""
"html-keyboard-response","35","129223","0.0-4.0-1.0-2.4","1","1","c8m8tg2760xalr2","","null","","<p style=""color:green;""><b>Correct!</b></p>","","null","","","","","","","","","","","","","","","","","","","","","","","","","","","","","","","","","","","","","","","","","",""
"audio-keyboard-response","36","130025","0.0-4.0-1.0-0.5","1","1","c8m8tg2760xalr2","","null","","sounds/induction/left/ge_SWS.wav","","null","","","","","","","","","","","","","","","","","","","","","","","","","","","","","","","","","","","","","","","","","",""
"html-button-response","37","132110","0.0-4.0-1.0-1.5","1","1","c8m8tg2760xalr2","","2084.39999999851","","What sound did you hear?","1","","","1","INDUCTION-JUDGMENT","left","1","","","","","","","","","","","","","","","","","","","","","","","","","","","","","","","","","","","","",""
"html-keyboard-response","38","133112","0.0-4.0-1.0-2.5","1","1","c8m8tg2760xalr2","","null","","<p style=""color:green;""><b>Correct!</b></p>","","null","","","","","","","","","","","","","","","","","","","","","","","","","","","","","","","","","","","","","","","","","",""
"audio-keyboard-response","39","133917","0.0-4.0-1.0-0.6","1","1","c8m8tg2760xalr2","","null","","sounds/induction/right/re_SWS.wav","","null","","","","","","","","","","","","","","","","","","","","","","","","","","","","","","","","","","","","","","","","","",""
"html-button-response","40","135800","0.0-4.0-1.0-1.6","1","1","c8m8tg2760xalr2","","1882","","What sound did you hear?","1","","","1","INDUCTION-JUDGMENT","right","1","","","","","","","","","","","","","","","","","","","","","","","","","","","","","","","","","","","","",""
"html-keyboard-response","41","136801","0.0-4.0-1.0-2.6","1","1","c8m8tg2760xalr2","","null","","<p style=""color:green;""><b>Correct!</b></p>","","null","","","","","","","","","","","","","","","","","","","","","","","","","","","","","","","","","","","","","","","","","",""
"audio-keyboard-response","42","137607","0.0-4.0-1.0-0.7","1","1","c8m8tg2760xalr2","","null","","sounds/induction/left/su_SWS.wav","","null","","","","","","","","","","","","","","","","","","","","","","","","","","","","","","","","","","","","","","","","","",""
"html-button-response","43","139050","0.0-4.0-1.0-1.7","1","1","c8m8tg2760xalr2","","1441.8000000044703","","What sound did you hear?","0","","","1","INDUCTION-JUDGMENT","left","0","","","","","","","","","","","","","","","","","","","","","","","","","","","","","","","","","","","","",""
"html-keyboard-response","44","140054","0.0-4.0-1.0-2.7","1","1","c8m8tg2760xalr2","","null","","<p style=""color:green;""><b>Correct!</b></p>","","null","","","","","","","","","","","","","","","","","","","","","","","","","","","","","","","","","","","","","","","","","",""
"audio-keyboard-response","45","140855","0.0-4.0-1.0-0.8","1","1","c8m8tg2760xalr2","","null","","sounds/induction/left/ko_SWS.wav","","null","","","","","","","","","","","","","","","","","","","","","","","","","","","","","","","","","","","","","","","","","",""
"html-button-response","46","142836","0.0-4.0-1.0-1.8","1","1","c8m8tg2760xalr2","","1980.3000000044703","","What sound did you hear?","0","","","0","INDUCTION-JUDGMENT","left","1","","","","","","","","","","","","","","","","","","","","","","","","","","","","","","","","","","","","",""
"html-keyboard-response","47","143842","0.0-4.0-1.0-2.8","1","1","c8m8tg2760xalr2","","null","","<p style=""color:red;""><b>Incorrect!</b></p>","","null","","","","","","","","","","","","","","","","","","","","","","","","","","","","","","","","","","","","","","","","","",""
"audio-keyboard-response","48","144643","0.0-4.0-1.0-0.9","1","1","c8m8tg2760xalr2","","null","","sounds/induction/left/ru_SWS.wav","","null","","","","","","","","","","","","","","","","","","","","","","","","","","","","","","","","","","","","","","","","","",""
"html-button-response","49","145860","0.0-4.0-1.0-1.9","1","1","c8m8tg2760xalr2","","1216.2000000029802","","What sound did you hear?","0","","","1","INDUCTION-JUDGMENT","left","0","","","","","","","","","","","","","","","","","","","","","","","","","","","","","","","","","","","","",""
"html-keyboard-response","50","146861","0.0-4.0-1.0-2.9","1","1","c8m8tg2760xalr2","","null","","<p style=""color:green;""><b>Correct!</b></p>","","null","","","","","","","","","","","","","","","","","","","","","","","","","","","","","","","","","","","","","","","","","",""
"audio-keyboard-response","51","147666","0.0-4.0-1.0-0.10","1","1","c8m8tg2760xalr2","","null","","sounds/induction/left/fu_SWS.wav","","null","","","","","","","","","","","","","","","","","","","","","","","","","","","","","","","","","","","","","","","","","",""
"html-button-response","52","148947","0.0-4.0-1.0-1.10","1","1","c8m8tg2760xalr2","","1280","","What sound did you hear?","1","","","1","INDUCTION-JUDGMENT","left","1","","","","","","","","","","","","","","","","","","","","","","","","","","","","","","","","","","","","",""
"html-keyboard-response","53","149952","0.0-4.0-1.0-2.10","1","1","c8m8tg2760xalr2","","null","","<p style=""color:green;""><b>Correct!</b></p>","","null","","","","","","","","","","","","","","","","","","","","","","","","","","","","","","","","","","","","","","","","","",""
"audio-keyboard-response","54","150753","0.0-4.0-1.0-0.11","1","1","c8m8tg2760xalr2","","null","","sounds/induction/right/ru_SWS.wav","","null","","","","","","","","","","","","","","","","","","","","","","","","","","","","","","","","","","","","","","","","","",""
"html-button-response","55","151857","0.0-4.0-1.0-1.11","1","1","c8m8tg2760xalr2","","1103","","What sound did you hear?","1","","","1","INDUCTION-JUDGMENT","right","1","","","","","","","","","","","","","","","","","","","","","","","","","","","","","","","","","","","","",""
"html-keyboard-response","56","152861","0.0-4.0-1.0-2.11","1","1","c8m8tg2760xalr2","","null","","<p style=""color:green;""><b>Correct!</b></p>","","null","","","","","","","","","","","","","","","","","","","","","","","","","","","","","","","","","","","","","","","","","",""
"audio-keyboard-response","57","153667","0.0-4.0-1.0-0.12","1","1","c8m8tg2760xalr2","","null","","sounds/induction/right/ti_SWS.wav","","null","","","","","","","","","","","","","","","","","","","","","","","","","","","","","","","","","","","","","","","","","",""
"html-button-response","58","155360","0.0-4.0-1.0-1.12","1","1","c8m8tg2760xalr2","","1692.5999999940395","","What sound did you hear?","0","","","0","INDUCTION-JUDGMENT","right","1","","","","","","","","","","","","","","","","","","","","","","","","","","","","","","","","","","","","",""
"html-keyboard-response","59","156365","0.0-4.0-1.0-2.12","1","1","c8m8tg2760xalr2","","null","","<p style=""color:red;""><b>Incorrect!</b></p>","","null","","","","","","","","","","","","","","","","","","","","","","","","","","","","","","","","","","","","","","","","","",""
"audio-keyboard-response","60","157170","0.0-4.0-1.0-0.13","1","1","c8m8tg2760xalr2","","null","","sounds/induction/right/ta_SWS.wav","","null","","","","","","","","","","","","","","","","","","","","","","","","","","","","","","","","","","","","","","","","","",""
"html-button-response","61","158482","0.0-4.0-1.0-1.13","1","1","c8m8tg2760xalr2","","1311.2999999970198","","What sound did you hear?","1","","","1","INDUCTION-JUDGMENT","right","1","","","","","","","","","","","","","","","","","","","","","","","","","","","","","","","","","","","","",""
"html-keyboard-response","62","159484","0.0-4.0-1.0-2.13","1","1","c8m8tg2760xalr2","","null","","<p style=""color:green;""><b>Correct!</b></p>","","null","","","","","","","","","","","","","","","","","","","","","","","","","","","","","","","","","","","","","","","","","",""
"audio-keyboard-response","63","160286","0.0-4.0-1.0-0.14","1","1","c8m8tg2760xalr2","","null","","sounds/induction/left/re_SWS.wav","","null","","","","","","","","","","","","","","","","","","","","","","","","","","","","","","","","","","","","","","","","","",""
"html-button-response","64","161735","0.0-4.0-1.0-1.14","1","1","c8m8tg2760xalr2","","1447.2999999970198","","What sound did you hear?","0","","","1","INDUCTION-JUDGMENT","left","0","","","","","","","","","","","","","","","","","","","","","","","","","","","","","","","","","","","","",""
"html-keyboard-response","65","162740","0.0-4.0-1.0-2.14","1","1","c8m8tg2760xalr2","","null","","<p style=""color:green;""><b>Correct!</b></p>","","null","","","","","","","","","","","","","","","","","","","","","","","","","","","","","","","","","","","","","","","","","",""
"audio-keyboard-response","66","163541","0.0-4.0-1.0-0.15","1","1","c8m8tg2760xalr2","","null","","sounds/induction/right/ni_SWS.wav","","null","","","","","","","","","","","","","","","","","","","","","","","","","","","","","","","","","","","","","","","","","",""
"html-button-response","67","165490","0.0-4.0-1.0-1.15","1","1","c8m8tg2760xalr2","","1947.3999999985099","","What sound did you hear?","0","","","1","INDUCTION-JUDGMENT","right","0","","","","","","","","","","","","","","","","","","","","","","","","","","","","","","","","","","","","",""
"html-keyboard-response","68","166494","0.0-4.0-1.0-2.15","1","1","c8m8tg2760xalr2","","null","","<p style=""color:green;""><b>Correct!</b></p>","","null","","","","","","","","","","","","","","","","","","","","","","","","","","","","","","","","","","","","","","","","","",""
"audio-keyboard-response","69","167294","0.0-4.0-1.0-0.16","1","1","c8m8tg2760xalr2","","null","","sounds/induction/left/ti_SWS.wav","","null","","","","","","","","","","","","","","","","","","","","","","","","","","","","","","","","","","","","","","","","","",""
"html-button-response","70","168750","0.0-4.0-1.0-1.16","1","1","c8m8tg2760xalr2","","1452.5","","What sound did you hear?","0","","","1","INDUCTION-JUDGMENT","left","0","","","","","","","","","","","","","","","","","","","","","","","","","","","","","","","","","","","","",""
"html-keyboard-response","71","169751","0.0-4.0-1.0-2.16","1","1","c8m8tg2760xalr2","","null","","<p style=""color:green;""><b>Correct!</b></p>","","null","","","","","","","","","","","","","","","","","","","","","","","","","","","","","","","","","","","","","","","","","",""
"audio-keyboard-response","72","170555","0.0-4.0-1.0-0.17","1","1","c8m8tg2760xalr2","","null","","sounds/induction/right/me_SWS.wav","","null","","","","","","","","","","","","","","","","","","","","","","","","","","","","","","","","","","","","","","","","","",""
"html-button-response","73","171961","0.0-4.0-1.0-1.17","1","1","c8m8tg2760xalr2","","1405.2999999970198","","What sound did you hear?","0","","","1","INDUCTION-JUDGMENT","right","0","","","","","","","","","","","","","","","","","","","","","","","","","","","","","","","","","","","","",""
"html-keyboard-response","74","172965","0.0-4.0-1.0-2.17","1","1","c8m8tg2760xalr2","","null","","<p style=""color:green;""><b>Correct!</b></p>","","null","","","","","","","","","","","","","","","","","","","","","","","","","","","","","","","","","","","","","","","","","",""
"audio-keyboard-response","75","173769","0.0-4.0-1.0-0.18","1","1","c8m8tg2760xalr2","","null","","sounds/induction/right/pu_SWS.wav","","null","","","","","","","","","","","","","","","","","","","","","","","","","","","","","","","","","","","","","","","","","",""
"html-button-response","76","176212","0.0-4.0-1.0-1.18","1","1","c8m8tg2760xalr2","","2440.7999999970198","","What sound did you hear?","1","","","1","INDUCTION-JUDGMENT","right","1","","","","","","","","","","","","","","","","","","","","","","","","","","","","","","","","","","","","",""
"html-keyboard-response","77","177216","0.0-4.0-1.0-2.18","1","1","c8m8tg2760xalr2","","null","","<p style=""color:green;""><b>Correct!</b></p>","","null","","","","","","","","","","","","","","","","","","","","","","","","","","","","","","","","","","","","","","","","","",""
"audio-keyboard-response","78","178021","0.0-4.0-1.0-0.19","1","1","c8m8tg2760xalr2","","null","","sounds/induction/right/su_SWS.wav","","null","","","","","","","","","","","","","","","","","","","","","","","","","","","","","","","","","","","","","","","","","",""
"html-button-response","79","179936","0.0-4.0-1.0-1.19","1","1","c8m8tg2760xalr2","","1914.6999999955297","","What sound did you hear?","1","","","1","INDUCTION-JUDGMENT","right","1","","","","","","","","","","","","","","","","","","","","","","","","","","","","","","","","","","","","",""
"html-keyboard-response","80","180937","0.0-4.0-1.0-2.19","1","1","c8m8tg2760xalr2","","null","","<p style=""color:green;""><b>Correct!</b></p>","","null","","","","","","","","","","","","","","","","","","","","","","","","","","","","","","","","","","","","","","","","","",""
"audio-keyboard-response","81","181739","0.0-4.0-1.0-0.20","1","1","c8m8tg2760xalr2","","null","","sounds/induction/right/ta_SWS.wav","","null","","","","","","","","","","","","","","","","","","","","","","","","","","","","","","","","","","","","","","","","","",""
"html-button-response","82","183106","0.0-4.0-1.0-1.20","1","1","c8m8tg2760xalr2","","1366.1000000014901","","What sound did you hear?","1","","","1","INDUCTION-JUDGMENT","right","1","","","","","","","","","","","","","","","","","","","","","","","","","","","","","","","","","","","","",""
"html-keyboard-response","83","184107","0.0-4.0-1.0-2.20","1","1","c8m8tg2760xalr2","","null","","<p style=""color:green;""><b>Correct!</b></p>","","null","","","","","","","","","","","","","","","","","","","","","","","","","","","","","","","","","","","","","","","","","",""
"audio-keyboard-response","84","184913","0.0-4.0-1.0-0.21","1","1","c8m8tg2760xalr2","","null","","sounds/induction/right/pu_SWS.wav","","null","","","","","","","","","","","","","","","","","","","","","","","","","","","","","","","","","","","","","","","","","",""
"html-button-response","85","186282","0.0-4.0-1.0-1.21","1","1","c8m8tg2760xalr2","","1368.6999999955297","","What sound did you hear?","0","","","0","INDUCTION-JUDGMENT","right","1","","","","","","","","","","","","","","","","","","","","","","","","","","","","","","","","","","","","",""
"html-keyboard-response","86","187284","0.0-4.0-1.0-2.21","1","1","c8m8tg2760xalr2","","null","","<p style=""color:red;""><b>Incorrect!</b></p>","","null","","","","","","","","","","","","","","","","","","","","","","","","","","","","","","","","","","","","","","","","","",""
"audio-keyboard-response","87","188087","0.0-4.0-1.0-0.22","1","1","c8m8tg2760xalr2","","null","","sounds/induction/left/fu_SWS.wav","","null","","","","","","","","","","","","","","","","","","","","","","","","","","","","","","","","","","","","","","","","","",""
"html-button-response","88","189341","0.0-4.0-1.0-1.22","1","1","c8m8tg2760xalr2","","1252.9000000059605","","What sound did you hear?","0","","","0","INDUCTION-JUDGMENT","left","1","","","","","","","","","","","","","","","","","","","","","","","","","","","","","","","","","","","","",""
"html-keyboard-response","89","190345","0.0-4.0-1.0-2.22","1","1","c8m8tg2760xalr2","","null","","<p style=""color:red;""><b>Incorrect!</b></p>","","null","","","","","","","","","","","","","","","","","","","","","","","","","","","","","","","","","","","","","","","","","",""
"audio-keyboard-response","90","191144","0.0-4.0-1.0-0.23","1","1","c8m8tg2760xalr2","","null","","sounds/induction/right/fu_SWS.wav","","null","","","","","","","","","","","","","","","","","","","","","","","","","","","","","","","","","","","","","","","","","",""
"html-button-response","91","192600","0.0-4.0-1.0-1.23","1","1","c8m8tg2760xalr2","","1454.6000000014901","","What sound did you hear?","0","","","1","INDUCTION-JUDGMENT","right","0","","","","","","","","","","","","","","","","","","","","","","","","","","","","","","","","","","","","",""
"html-keyboard-response","92","193606","0.0-4.0-1.0-2.23","1","1","c8m8tg2760xalr2","","null","","<p style=""color:green;""><b>Correct!</b></p>","","null","","","","","","","","","","","","","","","","","","","","","","","","","","","","","","","","","","","","","","","","","",""
"audio-keyboard-response","93","194411","0.0-4.0-1.0-0.24","1","1","c8m8tg2760xalr2","","null","","sounds/induction/left/pu_SWS.wav","","null","","","","","","","","","","","","","","","","","","","","","","","","","","","","","","","","","","","","","","","","","",""
"html-button-response","94","195973","0.0-4.0-1.0-1.24","1","1","c8m8tg2760xalr2","","1560.9000000059605","","What sound did you hear?","0","","","1","INDUCTION-JUDGMENT","left","0","","","","","","","","","","","","","","","","","","","","","","","","","","","","","","","","","","","","",""
"html-keyboard-response","95","196975","0.0-4.0-1.0-2.24","1","1","c8m8tg2760xalr2","","null","","<p style=""color:green;""><b>Correct!</b></p>","","null","","","","","","","","","","","","","","","","","","","","","","","","","","","","","","","","","","","","","","","","","",""
"audio-keyboard-response","96","197782","0.0-4.0-1.0-0.25","1","1","c8m8tg2760xalr2","","null","","sounds/induction/left/ta_SWS.wav","","null","","","","","","","","","","","","","","","","","","","","","","","","","","","","","","","","","","","","","","","","","",""
"html-button-response","97","199394","0.0-4.0-1.0-1.25","1","1","c8m8tg2760xalr2","","1611.6999999955297","","What sound did you hear?","0","","","1","INDUCTION-JUDGMENT","left","0","","","","","","","","","","","","","","","","","","","","","","","","","","","","","","","","","","","","",""
"html-keyboard-response","98","200398","0.0-4.0-1.0-2.25","1","1","c8m8tg2760xalr2","","null","","<p style=""color:green;""><b>Correct!</b></p>","","null","","","","","","","","","","","","","","","","","","","","","","","","","","","","","","","","","","","","","","","","","",""
"audio-keyboard-response","99","201199","0.0-4.0-1.0-0.26","1","1","c8m8tg2760xalr2","","null","","sounds/induction/right/ti_SWS.wav","","null","","","","","","","","","","","","","","","","","","","","","","","","","","","","","","","","","","","","","","","","","",""
"html-button-response","100","202971","0.0-4.0-1.0-1.26","1","1","c8m8tg2760xalr2","","1770.8999999985099","","What sound did you hear?","1","","","1","INDUCTION-JUDGMENT","right","1","","","","","","","","","","","","","","","","","","","","","","","","","","","","","","","","","","","","",""
"html-keyboard-response","101","203974","0.0-4.0-1.0-2.26","1","1","c8m8tg2760xalr2","","null","","<p style=""color:green;""><b>Correct!</b></p>","","null","","","","","","","","","","","","","","","","","","","","","","","","","","","","","","","","","","","","","","","","","",""
"audio-keyboard-response","102","204772","0.0-4.0-1.0-0.27","1","1","c8m8tg2760xalr2","","null","","sounds/induction/left/ni_SWS.wav","","null","","","","","","","","","","","","","","","","","","","","","","","","","","","","","","","","","","","","","","","","","",""
"html-button-response","103","206176","0.0-4.0-1.0-1.27","1","1","c8m8tg2760xalr2","","1402.3000000044703","","What sound did you hear?","1","","","1","INDUCTION-JUDGMENT","left","1","","","","","","","","","","","","","","","","","","","","","","","","","","","","","","","","","","","","",""
"html-keyboard-response","104","207178","0.0-4.0-1.0-2.27","1","1","c8m8tg2760xalr2","","null","","<p style=""color:green;""><b>Correct!</b></p>","","null","","","","","","","","","","","","","","","","","","","","","","","","","","","","","","","","","","","","","","","","","",""
"audio-keyboard-response","105","207981","0.0-4.0-1.0-0.28","1","1","c8m8tg2760xalr2","","null","","sounds/induction/right/fe_SWS.wav","","null","","","","","","","","","","","","","","","","","","","","","","","","","","","","","","","","","","","","","","","","","",""
"html-button-response","106","209371","0.0-4.0-1.0-1.28","1","1","c8m8tg2760xalr2","","1389.5","","What sound did you hear?","0","","","1","INDUCTION-JUDGMENT","right","0","","","","","","","","","","","","","","","","","","","","","","","","","","","","","","","","","","","","",""
"html-keyboard-response","107","210373","0.0-4.0-1.0-2.28","1","1","c8m8tg2760xalr2","","null","","<p style=""color:green;""><b>Correct!</b></p>","","null","","","","","","","","","","","","","","","","","","","","","","","","","","","","","","","","","","","","","","","","","",""
"audio-keyboard-response","108","211184","0.0-4.0-1.0-0.29","1","1","c8m8tg2760xalr2","","null","","sounds/induction/left/ge_SWS.wav","","null","","","","","","","","","","","","","","","","","","","","","","","","","","","","","","","","","","","","","","","","","",""
"html-button-response","109","212752","0.0-4.0-1.0-1.29","1","1","c8m8tg2760xalr2","","1567.5","","What sound did you hear?","0","","","0","INDUCTION-JUDGMENT","left","1","","","","","","","","","","","","","","","","","","","","","","","","","","","","","","","","","","","","",""
"html-keyboard-response","110","213755","0.0-4.0-1.0-2.29","1","1","c8m8tg2760xalr2","","null","","<p style=""color:red;""><b>Incorrect!</b></p>","","null","","","","","","","","","","","","","","","","","","","","","","","","","","","","","","","","","","","","","","","","","",""
"audio-keyboard-response","111","214560","0.0-4.0-1.0-0.30","1","1","c8m8tg2760xalr2","","null","","sounds/induction/left/fe_SWS.wav","","null","","","","","","","","","","","","","","","","","","","","","","","","","","","","","","","","","","","","","","","","","",""
"html-button-response","112","215882","0.0-4.0-1.0-1.30","1","1","c8m8tg2760xalr2","","1321.1999999955297","","What sound did you hear?","1","","","1","INDUCTION-JUDGMENT","left","1","","","","","","","","","","","","","","","","","","","","","","","","","","","","","","","","","","","","",""
"html-keyboard-response","113","216888","0.0-4.0-1.0-2.30","1","1","c8m8tg2760xalr2","","null","","<p style=""color:green;""><b>Correct!</b></p>","","null","","","","","","","","","","","","","","","","","","","","","","","","","","","","","","","","","","","","","","","","","",""
"audio-keyboard-response","114","217688","0.0-4.0-1.0-0.31","1","1","c8m8tg2760xalr2","","null","","sounds/induction/right/ni_SWS.wav","","null","","","","","","","","","","","","","","","","","","","","","","","","","","","","","","","","","","","","","","","","","",""
"html-button-response","115","218859","0.0-4.0-1.0-1.31","1","1","c8m8tg2760xalr2","","1169.7999999970198","","What sound did you hear?","0","","","1","INDUCTION-JUDGMENT","right","0","","","","","","","","","","","","","","","","","","","","","","","","","","","","","","","","","","","","",""
"html-keyboard-response","116","219860","0.0-4.0-1.0-2.31","1","1","c8m8tg2760xalr2","","null","","<p style=""color:green;""><b>Correct!</b></p>","","null","","","","","","","","","","","","","","","","","","","","","","","","","","","","","","","","","","","","","","","","","",""
"audio-keyboard-response","117","220665","0.0-4.0-1.0-0.32","1","1","c8m8tg2760xalr2","","null","","sounds/induction/right/fe_SWS.wav","","null","","","","","","","","","","","","","","","","","","","","","","","","","","","","","","","","","","","","","","","","","",""
"html-button-response","118","222177","0.0-4.0-1.0-1.32","1","1","c8m8tg2760xalr2","","1511.2999999970198","","What sound did you hear?","0","","","1","INDUCTION-JUDGMENT","right","0","","","","","","","","","","","","","","","","","","","","","","","","","","","","","","","","","","","","",""
"html-keyboard-response","119","223178","0.0-4.0-1.0-2.32","1","1","c8m8tg2760xalr2","","null","","<p style=""color:green;""><b>Correct!</b></p>","","null","","","","","","","","","","","","","","","","","","","","","","","","","","","","","","","","","","","","","","","","","",""
"audio-keyboard-response","120","223983","0.0-4.0-1.0-0.33","1","1","c8m8tg2760xalr2","","null","","sounds/induction/right/fu_SWS.wav","","null","","","","","","","","","","","","","","","","","","","","","","","","","","","","","","","","","","","","","","","","","",""
"html-button-response","121","225354","0.0-4.0-1.0-1.33","1","1","c8m8tg2760xalr2","","1369.5","","What sound did you hear?","0","","","1","INDUCTION-JUDGMENT","right","0","","","","","","","","","","","","","","","","","","","","","","","","","","","","","","","","","","","","",""
"html-keyboard-response","122","226355","0.0-4.0-1.0-2.33","1","1","c8m8tg2760xalr2","","null","","<p style=""color:green;""><b>Correct!</b></p>","","null","","","","","","","","","","","","","","","","","","","","","","","","","","","","","","","","","","","","","","","","","",""
"audio-keyboard-response","123","227157","0.0-4.0-1.0-0.34","1","1","c8m8tg2760xalr2","","null","","sounds/induction/right/re_SWS.wav","","null","","","","","","","","","","","","","","","","","","","","","","","","","","","","","","","","","","","","","","","","","",""
"html-button-response","124","229215","0.0-4.0-1.0-1.34","1","1","c8m8tg2760xalr2","","2056.5999999940395","","What sound did you hear?","1","","","1","INDUCTION-JUDGMENT","right","1","","","","","","","","","","","","","","","","","","","","","","","","","","","","","","","","","","","","",""
"html-keyboard-response","125","230216","0.0-4.0-1.0-2.34","1","1","c8m8tg2760xalr2","","null","","<p style=""color:green;""><b>Correct!</b></p>","","null","","","","","","","","","","","","","","","","","","","","","","","","","","","","","","","","","","","","","","","","","",""
"audio-keyboard-response","126","231020","0.0-4.0-1.0-0.35","1","1","c8m8tg2760xalr2","","null","","sounds/induction/left/ko_SWS.wav","","null","","","","","","","","","","","","","","","","","","","","","","","","","","","","","","","","","","","","","","","","","",""
"html-button-response","127","232994","0.0-4.0-1.0-1.35","1","1","c8m8tg2760xalr2","","1972.8999999985099","","What sound did you hear?","1","","","1","INDUCTION-JUDGMENT","left","1","","","","","","","","","","","","","","","","","","","","","","","","","","","","","","","","","","","","",""
"html-keyboard-response","128","233999","0.0-4.0-1.0-2.35","1","1","c8m8tg2760xalr2","","null","","<p style=""color:green;""><b>Correct!</b></p>","","null","","","","","","","","","","","","","","","","","","","","","","","","","","","","","","","","","","","","","","","","","",""
"audio-keyboard-response","129","234802","0.0-4.0-1.0-0.36","1","1","c8m8tg2760xalr2","","null","","sounds/induction/right/ko_SWS.wav","","null","","","","","","","","","","","","","","","","","","","","","","","","","","","","","","","","","","","","","","","","","",""
"html-button-response","130","235986","0.0-4.0-1.0-1.36","1","1","c8m8tg2760xalr2","","1183.1999999955297","","What sound did you hear?","0","","","1","INDUCTION-JUDGMENT","right","0","","","","","","","","","","","","","","","","","","","","","","","","","","","","","","","","","","","","",""
"html-keyboard-response","131","236991","0.0-4.0-1.0-2.36","1","1","c8m8tg2760xalr2","","null","","<p style=""color:green;""><b>Correct!</b></p>","","null","","","","","","","","","","","","","","","","","","","","","","","","","","","","","","","","","","","","","","","","","",""
"audio-keyboard-response","132","237796","0.0-4.0-1.0-0.37","1","1","c8m8tg2760xalr2","","null","","sounds/induction/left/ti_SWS.wav","","null","","","","","","","","","","","","","","","","","","","","","","","","","","","","","","","","","","","","","","","","","",""
"html-button-response","133","238841","0.0-4.0-1.0-1.37","1","1","c8m8tg2760xalr2","","1044.1000000014901","","What sound did you hear?","0","","","1","INDUCTION-JUDGMENT","left","0","","","","","","","","","","","","","","","","","","","","","","","","","","","","","","","","","","","","",""
"html-keyboard-response","134","239847","0.0-4.0-1.0-2.37","1","1","c8m8tg2760xalr2","","null","","<p style=""color:green;""><b>Correct!</b></p>","","null","","","","","","","","","","","","","","","","","","","","","","","","","","","","","","","","","","","","","","","","","",""
"audio-keyboard-response","135","240651","0.0-4.0-1.0-0.38","1","1","c8m8tg2760xalr2","","null","","sounds/induction/right/su_SWS.wav","","null","","","","","","","","","","","","","","","","","","","","","","","","","","","","","","","","","","","","","","","","","",""
"html-button-response","136","242483","0.0-4.0-1.0-1.38","1","1","c8m8tg2760xalr2","","1831","","What sound did you hear?","1","","","1","INDUCTION-JUDGMENT","right","1","","","","","","","","","","","","","","","","","","","","","","","","","","","","","","","","","","","","",""
"html-keyboard-response","137","243486","0.0-4.0-1.0-2.38","1","1","c8m8tg2760xalr2","","null","","<p style=""color:green;""><b>Correct!</b></p>","","null","","","","","","","","","","","","","","","","","","","","","","","","","","","","","","","","","","","","","","","","","",""
"audio-keyboard-response","138","244289","0.0-4.0-1.0-0.39","1","1","c8m8tg2760xalr2","","null","","sounds/induction/left/ta_SWS.wav","","null","","","","","","","","","","","","","","","","","","","","","","","","","","","","","","","","","","","","","","","","","",""
"html-button-response","139","245322","0.0-4.0-1.0-1.39","1","1","c8m8tg2760xalr2","","1032.3999999985099","","What sound did you hear?","0","","","1","INDUCTION-JUDGMENT","left","0","","","","","","","","","","","","","","","","","","","","","","","","","","","","","","","","","","","","",""
"html-keyboard-response","140","246328","0.0-4.0-1.0-2.39","1","1","c8m8tg2760xalr2","","null","","<p style=""color:green;""><b>Correct!</b></p>","","null","","","","","","","","","","","","","","","","","","","","","","","","","","","","","","","","","","","","","","","","","",""
"audio-keyboard-response","141","247132","0.0-4.0-1.0-0.40","1","1","c8m8tg2760xalr2","","null","","sounds/induction/left/pu_SWS.wav","","null","","","","","","","","","","","","","","","","","","","","","","","","","","","","","","","","","","","","","","","","","",""
"html-button-response","142","248428","0.0-4.0-1.0-1.40","1","1","c8m8tg2760xalr2","","1294.3999999985099","","What sound did you hear?","0","","","1","INDUCTION-JUDGMENT","left","0","","","","","","","","","","","","","","","","","","","","","","","","","","","","","","","","","","","","",""
"html-keyboard-response","143","249432","0.0-4.0-1.0-2.40","1","1","c8m8tg2760xalr2","","null","","<p style=""color:green;""><b>Correct!</b></p>","","null","","","","","","","","","","","","","","","","","","","","","","","","","","","","","","","","","","","","","","","","","",""
"audio-keyboard-response","144","250237","0.0-4.0-1.0-0.41","1","1","c8m8tg2760xalr2","","null","","sounds/induction/right/me_SWS.wav","","null","","","","","","","","","","","","","","","","","","","","","","","","","","","","","","","","","","","","","","","","","",""
"html-button-response","145","251330","0.0-4.0-1.0-1.41","1","1","c8m8tg2760xalr2","","1092.6000000014901","","What sound did you hear?","0","","","1","INDUCTION-JUDGMENT","right","0","","","","","","","","","","","","","","","","","","","","","","","","","","","","","","","","","","","","",""
"html-keyboard-response","146","252335","0.0-4.0-1.0-2.41","1","1","c8m8tg2760xalr2","","null","","<p style=""color:green;""><b>Correct!</b></p>","","null","","","","","","","","","","","","","","","","","","","","","","","","","","","","","","","","","","","","","","","","","",""
"audio-keyboard-response","147","253139","0.0-4.0-1.0-0.42","1","1","c8m8tg2760xalr2","","null","","sounds/induction/left/me_SWS.wav","","null","","","","","","","","","","","","","","","","","","","","","","","","","","","","","","","","","","","","","","","","","",""
"html-button-response","148","254153","0.0-4.0-1.0-1.42","1","1","c8m8tg2760xalr2","","1013.6000000014901","","What sound did you hear?","1","","","1","INDUCTION-JUDGMENT","left","1","","","","","","","","","","","","","","","","","","","","","","","","","","","","","","","","","","","","",""
"html-keyboard-response","149","255155","0.0-4.0-1.0-2.42","1","1","c8m8tg2760xalr2","","null","","<p style=""color:green;""><b>Correct!</b></p>","","null","","","","","","","","","","","","","","","","","","","","","","","","","","","","","","","","","","","","","","","","","",""
"audio-keyboard-response","150","255959","0.0-4.0-1.0-0.43","1","1","c8m8tg2760xalr2","","null","","sounds/induction/left/su_SWS.wav","","null","","","","","","","","","","","","","","","","","","","","","","","","","","","","","","","","","","","","","","","","","",""
"html-button-response","151","258117","0.0-4.0-1.0-1.43","1","1","c8m8tg2760xalr2","","2157","","What sound did you hear?","0","","","1","INDUCTION-JUDGMENT","left","0","","","","","","","","","","","","","","","","","","","","","","","","","","","","","","","","","","","","",""
"html-keyboard-response","152","259119","0.0-4.0-1.0-2.43","1","1","c8m8tg2760xalr2","","null","","<p style=""color:green;""><b>Correct!</b></p>","","null","","","","","","","","","","","","","","","","","","","","","","","","","","","","","","","","","","","","","","","","","",""
"audio-keyboard-response","153","259921","0.0-4.0-1.0-0.44","1","1","c8m8tg2760xalr2","","null","","sounds/induction/left/fe_SWS.wav","","null","","","","","","","","","","","","","","","","","","","","","","","","","","","","","","","","","","","","","","","","","",""
"html-button-response","154","261046","0.0-4.0-1.0-1.44","1","1","c8m8tg2760xalr2","","1124","","What sound did you hear?","1","","","1","INDUCTION-JUDGMENT","left","1","","","","","","","","","","","","","","","","","","","","","","","","","","","","","","","","","","","","",""
"html-keyboard-response","155","262050","0.0-4.0-1.0-2.44","1","1","c8m8tg2760xalr2","","null","","<p style=""color:green;""><b>Correct!</b></p>","","null","","","","","","","","","","","","","","","","","","","","","","","","","","","","","","","","","","","","","","","","","",""
"audio-keyboard-response","156","262851","0.0-4.0-1.0-0.45","1","1","c8m8tg2760xalr2","","null","","sounds/induction/right/ge_SWS.wav","","null","","","","","","","","","","","","","","","","","","","","","","","","","","","","","","","","","","","","","","","","","",""
"html-button-response","157","263899","0.0-4.0-1.0-1.45","1","1","c8m8tg2760xalr2","","1047.2999999970198","","What sound did you hear?","1","","","0","INDUCTION-JUDGMENT","right","0","","","","","","","","","","","","","","","","","","","","","","","","","","","","","","","","","","","","",""
"html-keyboard-response","158","264903","0.0-4.0-1.0-2.45","1","1","c8m8tg2760xalr2","","null","","<p style=""color:red;""><b>Incorrect!</b></p>","","null","","","","","","","","","","","","","","","","","","","","","","","","","","","","","","","","","","","","","","","","","",""
"audio-keyboard-response","159","265707","0.0-4.0-1.0-0.46","1","1","c8m8tg2760xalr2","","null","","sounds/induction/left/re_SWS.wav","","null","","","","","","","","","","","","","","","","","","","","","","","","","","","","","","","","","","","","","","","","","",""
"html-button-response","160","267153","0.0-4.0-1.0-1.46","1","1","c8m8tg2760xalr2","","1446","","What sound did you hear?","0","","","1","INDUCTION-JUDGMENT","left","0","","","","","","","","","","","","","","","","","","","","","","","","","","","","","","","","","","","","",""
"html-keyboard-response","161","268160","0.0-4.0-1.0-2.46","1","1","c8m8tg2760xalr2","","null","","<p style=""color:green;""><b>Correct!</b></p>","","null","","","","","","","","","","","","","","","","","","","","","","","","","","","","","","","","","","","","","","","","","",""
"audio-keyboard-response","162","268961","0.0-4.0-1.0-0.47","1","1","c8m8tg2760xalr2","","null","","sounds/induction/left/ni_SWS.wav","","null","","","","","","","","","","","","","","","","","","","","","","","","","","","","","","","","","","","","","","","","","",""
"html-button-response","163","270104","0.0-4.0-1.0-1.47","1","1","c8m8tg2760xalr2","","1141.3999999985099","","What sound did you hear?","1","","","1","INDUCTION-JUDGMENT","left","1","","","","","","","","","","","","","","","","","","","","","","","","","","","","","","","","","","","","",""
"html-keyboard-response","164","271106","0.0-4.0-1.0-2.47","1","1","c8m8tg2760xalr2","","null","","<p style=""color:green;""><b>Correct!</b></p>","","null","","","","","","","","","","","","","","","","","","","","","","","","","","","","","","","","","","","","","","","","","",""
"html-button-response","165","281105","0.0-5.0-0.0","1","1","c8m8tg2760xalr2","","9495.39999999851","","<p>Thank you for your answers.</p><p>You will now listen to similar sounds. The main difference is that the sounds will be longer and will make up complete sentences.</p><p>Please listen carefully to each sentence. After each sentence, you will be asked to type back what you heard to the best of your ability. After you provide your response, you will be given feedback about the correct answer.</p><p>There are 10 sentences in total.","0","","","","","","","","","","","","","","","","","","","","","","","","","","","","","","","","","","","","","","","","","","",""
"audio-keyboard-response","166","283666","0.0-5.0-1.0-0.0","1","1","c8m8tg2760xalr2","","null","","sounds/sentences/left/14_04_cfSWS.wav","","null","","","","","","","","","","","","","","","","","","","","","","","","","","","","","","","","","","","","","","","","","",""
"sentence-resp","167","294520","0.0-5.0-1.0-1.0","1","1","c8m8tg2760xalr2","","10851","","","","","","","SWS-SENT-RESPONSE","","","{""Q0"":""we are walking""}","Two plus seven is less than ten.","two,plus,seven,less,ten","WE ARE WALKING","0","0","0","0","0","0","0","","","","","","","","","","","","","","","","","","","","","","","","","",""
"html-keyboard-response","168","295780","0.0-5.0-1.0-2.0","1","1","c8m8tg2760xalr2","","null","","","","null","","","","","","","","","","","","","","","","","","","","","","","","","","","","","","","","","","","","","","","","","",""
"audio-keyboard-response","169","297833","0.0-5.0-1.0-3.0","1","1","c8m8tg2760xalr2","","null","","sounds/sentences/left/14_04_cfSWS.wav","","null","","","","","","","","","","","","","","","","","","","","","","","","","","","","","","","","","","","","","","","","","",""
"html-keyboard-response","170","298835","0.0-5.0-1.0-4.0","1","1","c8m8tg2760xalr2","","null","","","","null","","","","","","","","","","","","","","","","","","","","","","","","","","","","","","","","","","","","","","","","","",""
"html-button-response","171","302188","0.0-5.0-1.0-5.0","1","1","c8m8tg2760xalr2","","2851.2999999970198","","<p>Press the button below when you are ready to continue.</p>","0","","","","","","","","","","","","","","","","","","","","","","","","","","","","","","","","","","","","","","","","","","",""
"audio-keyboard-response","172","305078","0.0-5.0-1.0-0.1","1","1","c8m8tg2760xalr2","","null","","sounds/sentences/right/14_07_cfSWS.wav","","null","","","","","","","","","","","","","","","","","","","","","","","","","","","","","","","","","","","","","","","","","",""
"sentence-resp","173","312595","0.0-5.0-1.0-1.1","1","1","c8m8tg2760xalr2","","7515","","","","","","","SWS-SENT-RESPONSE","","","{""Q0"":""i have no idea""}","Write a fond note to the friend you cherish.","write,fond,note,friend,cherish","I HAVE NO IDEA","0","0","0","0","0","0","0","","","","","","","","","","","","","","","","","","","","","","","","","",""
"html-keyboard-response","174","313853","0.0-5.0-1.0-2.1","1","1","c8m8tg2760xalr2","","null","","","","null","","","","","","","","","","","","","","","","","","","","","","","","","","","","","","","","","","","","","","","","","",""
"audio-keyboard-response","175","316245","0.0-5.0-1.0-3.1","1","1","c8m8tg2760xalr2","","null","","sounds/sentences/right/14_07_cfSWS.wav","","null","","","","","","","","","","","","","","","","","","","","","","","","","","","","","","","","","","","","","","","","","",""
"html-keyboard-response","176","317248","0.0-5.0-1.0-4.1","1","1","c8m8tg2760xalr2","","null","","","","null","","","","","","","","","","","","","","","","","","","","","","","","","","","","","","","","","","","","","","","","","",""
"html-button-response","177","318891","0.0-5.0-1.0-5.1","1","1","c8m8tg2760xalr2","","1139.7000000029802","","<p>Press the button below when you are ready to continue.</p>","0","","","","","","","","","","","","","","","","","","","","","","","","","","","","","","","","","","","","","","","","","","",""
"audio-keyboard-response","178","321886","0.0-5.0-1.0-0.2","1","1","c8m8tg2760xalr2","","null","","sounds/sentences/left/14_05_cfSWS.wav","","null","","","","","","","","","","","","","","","","","","","","","","","","","","","","","","","","","","","","","","","","","",""
"sentence-resp","179","330586","0.0-5.0-1.0-1.2","1","1","c8m8tg2760xalr2","","8699","","","","","","","SWS-SENT-RESPONSE","","","{""Q0"":""your eyes are through gone""}","The glow deepened in the eyes of the sweet girl.","glow,deepened,eyes,sweet,girl","YOUR EYES ARE THROUGH GONE","0","0","1","0","0","1","0.2","","","","","","","","","","","","","","","","","","","","","","","","","",""
"html-keyboard-response","180","331842","0.0-5.0-1.0-2.2","1","1","c8m8tg2760xalr2","","null","","","","null","","","","","","","","","","","","","","","","","","","","","","","","","","","","","","","","","","","","","","","","","",""
"audio-keyboard-response","181","334332","0.0-5.0-1.0-3.2","1","1","c8m8tg2760xalr2","","null","","sounds/sentences/left/14_05_cfSWS.wav","","null","","","","","","","","","","","","","","","","","","","","","","","","","","","","","","","","","","","","","","","","","",""
"html-keyboard-response","182","335337","0.0-5.0-1.0-4.2","1","1","c8m8tg2760xalr2","","null","","","","null","","","","","","","","","","","","","","","","","","","","","","","","","","","","","","","","","","","","","","","","","",""
"html-button-response","183","336969","0.0-5.0-1.0-5.2","1","1","c8m8tg2760xalr2","","1131.5","","<p>Press the button below when you are ready to continue.</p>","0","","","","","","","","","","","","","","","","","","","","","","","","","","","","","","","","","","","","","","","","","","",""
"audio-keyboard-response","184","339788","0.0-5.0-1.0-0.3","1","1","c8m8tg2760xalr2","","null","","sounds/sentences/left/14_02_cfSWS.wav","","null","","","","","","","","","","","","","","","","","","","","","","","","","","","","","","","","","","","","","","","","","",""
"sentence-resp","185","346399","0.0-5.0-1.0-1.3","1","1","c8m8tg2760xalr2","","6609","","","","","","","SWS-SENT-RESPONSE","","","{""Q0"":""she said the same phrase thirty times""}","He said the same phrase thirty times.","said,same,phrase,thirty,times","SHE SAID THE SAME PHRASE THIRTY TIMES","1","1","1","1","1","5","1","","","","","","","","","","","","","","","","","","","","","","","","","",""
"html-keyboard-response","186","347653","0.0-5.0-1.0-2.3","1","1","c8m8tg2760xalr2","","null","","","","null","","","","","","","","","","","","","","","","","","","","","","","","","","","","","","","","","","","","","","","","","",""
"audio-keyboard-response","187","349970","0.0-5.0-1.0-3.3","1","1","c8m8tg2760xalr2","","null","","sounds/sentences/left/14_02_cfSWS.wav","","null","","","","","","","","","","","","","","","","","","","","","","","","","","","","","","","","","","","","","","","","","",""
"html-keyboard-response","188","350974","0.0-5.0-1.0-4.3","1","1","c8m8tg2760xalr2","","null","","","","null","","","","","","","","","","","","","","","","","","","","","","","","","","","","","","","","","","","","","","","","","",""
"html-button-response","189","352769","0.0-5.0-1.0-5.3","1","1","c8m8tg2760xalr2","","1290","","<p>Press the button below when you are ready to continue.</p>","0","","","","","","","","","","","","","","","","","","","","","","","","","","","","","","","","","","","","","","","","","","",""
"audio-keyboard-response","190","355356","0.0-5.0-1.0-0.4","1","1","c8m8tg2760xalr2","","null","","sounds/sentences/left/14_03_cfSWS.wav","","null","","","","","","","","","","","","","","","","","","","","","","","","","","","","","","","","","","","","","","","","","",""
"sentence-resp","191","365626","0.0-5.0-1.0-1.4","1","1","c8m8tg2760xalr2","","10269","","","","","","","SWS-SENT-RESPONSE","","","{""Q0"":""can you turn off the tap please""}","Pluck the bright rose without leaves.","pluck,bright,rose,without,leaves","CAN YOU TURN OFF THE TAP PLEASE","0","0","0","0","0","0","0","","","","","","","","","","","","","","","","","","","","","","","","","",""
"html-keyboard-response","192","366881","0.0-5.0-1.0-2.4","1","1","c8m8tg2760xalr2","","null","","","","null","","","","","","","","","","","","","","","","","","","","","","","","","","","","","","","","","","","","","","","","","",""
"audio-keyboard-response","193","368966","0.0-5.0-1.0-3.4","1","1","c8m8tg2760xalr2","","null","","sounds/sentences/left/14_03_cfSWS.wav","","null","","","","","","","","","","","","","","","","","","","","","","","","","","","","","","","","","","","","","","","","","",""
"html-keyboard-response","194","369970","0.0-5.0-1.0-4.4","1","1","c8m8tg2760xalr2","","null","","","","null","","","","","","","","","","","","","","","","","","","","","","","","","","","","","","","","","","","","","","","","","",""
"html-button-response","195","371795","0.0-5.0-1.0-5.4","1","1","c8m8tg2760xalr2","","1322.2999999970198","","<p>Press the button below when you are ready to continue.</p>","0","","","","","","","","","","","","","","","","","","","","","","","","","","","","","","","","","","","","","","","","","","",""
"audio-keyboard-response","196","374527","0.0-5.0-1.0-0.5","1","1","c8m8tg2760xalr2","","null","","sounds/sentences/right/14_09_cfSWS.wav","","null","","","","","","","","","","","","","","","","","","","","","","","","","","","","","","","","","","","","","","","","","",""
"sentence-resp","197","384710","0.0-5.0-1.0-1.5","1","1","c8m8tg2760xalr2","","10181","","","","","","","SWS-SENT-RESPONSE","","","{""Q0"":""i have to go to the bathroom""}","We frown when events take a bad turn.","frown,events,take,bad,turn","I HAVE TO GO TO THE BATHROOM","0","0","0","0","0","0","0","","","","","","","","","","","","","","","","","","","","","","","","","",""
"html-keyboard-response","198","385967","0.0-5.0-1.0-2.5","1","1","c8m8tg2760xalr2","","null","","","","null","","","","","","","","","","","","","","","","","","","","","","","","","","","","","","","","","","","","","","","","","",""
"audio-keyboard-response","199","388195","0.0-5.0-1.0-3.5","1","1","c8m8tg2760xalr2","","null","","sounds/sentences/right/14_09_cfSWS.wav","","null","","","","","","","","","","","","","","","","","","","","","","","","","","","","","","","","","","","","","","","","","",""
"html-keyboard-response","200","389197","0.0-5.0-1.0-4.5","1","1","c8m8tg2760xalr2","","null","","","","null","","","","","","","","","","","","","","","","","","","","","","","","","","","","","","","","","","","","","","","","","",""
"html-button-response","201","392121","0.0-5.0-1.0-5.5","1","1","c8m8tg2760xalr2","","2419.89999999851","","<p>Press the button below when you are ready to continue.</p>","0","","","","","","","","","","","","","","","","","","","","","","","","","","","","","","","","","","","","","","","","","","",""
"audio-keyboard-response","202","394884","0.0-5.0-1.0-0.6","1","1","c8m8tg2760xalr2","","null","","sounds/sentences/right/14_08_cfSWS.wav","","null","","","","","","","","","","","","","","","","","","","","","","","","","","","","","","","","","","","","","","","","","",""
"sentence-resp","203","403575","0.0-5.0-1.0-1.6","1","1","c8m8tg2760xalr2","","8690","","","","","","","SWS-SENT-RESPONSE","","","{""Q0"":""i'm not sure if you win""}","Clothes and lodging are free to new men.","clothes,lodging,free,new,men","I'M NOT SURE IF YOU WIN","0","0","0","0","0","0","0","","","","","","","","","","","","","","","","","","","","","","","","","",""
"html-keyboard-response","204","404830","0.0-5.0-1.0-2.6","1","1","c8m8tg2760xalr2","","null","","","","null","","","","","","","","","","","","","","","","","","","","","","","","","","","","","","","","","","","","","","","","","",""
"audio-keyboard-response","205","407087","0.0-5.0-1.0-3.6","1","1","c8m8tg2760xalr2","","null","","sounds/sentences/right/14_08_cfSWS.wav","","null","","","","","","","","","","","","","","","","","","","","","","","","","","","","","","","","","","","","","","","","","",""
"html-keyboard-response","206","408089","0.0-5.0-1.0-4.6","1","1","c8m8tg2760xalr2","","null","","","","null","","","","","","","","","","","","","","","","","","","","","","","","","","","","","","","","","","","","","","","","","",""
"html-button-response","207","409744","0.0-5.0-1.0-5.6","1","1","c8m8tg2760xalr2","","1150.7000000029802","","<p>Press the button below when you are ready to continue.</p>","0","","","","","","","","","","","","","","","","","","","","","","","","","","","","","","","","","","","","","","","","","","",""
"audio-keyboard-response","208","412491","0.0-5.0-1.0-0.7","1","1","c8m8tg2760xalr2","","null","","sounds/sentences/right/14_06_cfSWS.wav","","null","","","","","","","","","","","","","","","","","","","","","","","","","","","","","","","","","","","","","","","","","",""
"sentence-resp","209","421692","0.0-5.0-1.0-1.7","1","1","c8m8tg2760xalr2","","9200","","","","","","","SWS-SENT-RESPONSE","","","{""Q0"":""bring your problems to the wise chief""}","Bring your problems to the wise chief.","bring,your,problems,wise,chief","BRING YOUR PROBLEMS TO THE WISE CHIEF","1","1","1","1","1","5","1","","","","","","","","","","","","","","","","","","","","","","","","","",""
"html-keyboard-response","210","422948","0.0-5.0-1.0-2.7","1","1","c8m8tg2760xalr2","","null","","","","null","","","","","","","","","","","","","","","","","","","","","","","","","","","","","","","","","","","","","","","","","",""
"audio-keyboard-response","211","425186","0.0-5.0-1.0-3.7","1","1","c8m8tg2760xalr2","","null","","sounds/sentences/right/14_06_cfSWS.wav","","null","","","","","","","","","","","","","","","","","","","","","","","","","","","","","","","","","","","","","","","","","",""
"html-keyboard-response","212","426190","0.0-5.0-1.0-4.7","1","1","c8m8tg2760xalr2","","null","","","","null","","","","","","","","","","","","","","","","","","","","","","","","","","","","","","","","","","","","","","","","","",""
"html-button-response","213","427678","0.0-5.0-1.0-5.7","1","1","c8m8tg2760xalr2","","984.6000000014901","","<p>Press the button below when you are ready to continue.</p>","0","","","","","","","","","","","","","","","","","","","","","","","","","","","","","","","","","","","","","","","","","","",""
"audio-keyboard-response","214","430700","0.0-5.0-1.0-0.8","1","1","c8m8tg2760xalr2","","null","","sounds/sentences/right/14_10_cfSWS.wav","","null","","","","","","","","","","","","","","","","","","","","","","","","","","","","","","","","","","","","","","","","","",""
"sentence-resp","215","441628","0.0-5.0-1.0-1.8","1","1","c8m8tg2760xalr2","","10926","","","","","","","SWS-SENT-RESPONSE","","","{""Q0"":""he has a strong mind with a smokey taste""}","Port is a strong wine with a smoky taste.","port,strong,wine,smoky,taste","HE HAS A STRONG MIND WITH A SMOKEY TASTE","0","1","0","0","1","2","0.4","","","","","","","","","","","","","","","","","","","","","","","","","",""
"html-keyboard-response","216","442883","0.0-5.0-1.0-2.8","1","1","c8m8tg2760xalr2","","null","","","","null","","","","","","","","","","","","","","","","","","","","","","","","","","","","","","","","","","","","","","","","","",""
"audio-keyboard-response","217","445399","0.0-5.0-1.0-3.8","1","1","c8m8tg2760xalr2","","null","","sounds/sentences/right/14_10_cfSWS.wav","","null","","","","","","","","","","","","","","","","","","","","","","","","","","","","","","","","","","","","","","","","","",""
"html-keyboard-response","218","446401","0.0-5.0-1.0-4.8","1","1","c8m8tg2760xalr2","","null","","","","null","","","","","","","","","","","","","","","","","","","","","","","","","","","","","","","","","","","","","","","","","",""
"html-button-response","219","447944","0.0-5.0-1.0-5.8","1","1","c8m8tg2760xalr2","","1038.2000000029802","","<p>Press the button below when you are ready to continue.</p>","0","","","","","","","","","","","","","","","","","","","","","","","","","","","","","","","","","","","","","","","","","","",""
"audio-keyboard-response","220","451063","0.0-5.0-1.0-0.9","1","1","c8m8tg2760xalr2","","null","","sounds/sentences/left/14_01_cfSWS.wav","","null","","","","","","","","","","","","","","","","","","","","","","","","","","","","","","","","","","","","","","","","","",""
"sentence-resp","221","461372","0.0-5.0-1.0-1.9","1","1","c8m8tg2760xalr2","","10307","","","","","","","SWS-SENT-RESPONSE","","","{""Q0"":""he is so small he doesn't know how to swim""}","A cramp is no small danger on a swim.","cramp,no,small,danger,swim","HE IS SO SMALL HE DOESN'T KNOW HOW TO SWIM","0","0","1","0","1","2","0.4","","","","","","","","","","","","","","","","","","","","","","","","","",""
"html-keyboard-response","222","462633","0.0-5.0-1.0-2.9","1","1","c8m8tg2760xalr2","","null","","","","null","","","","","","","","","","","","","","","","","","","","","","","","","","","","","","","","","","","","","","","","","",""
"audio-keyboard-response","223","465247","0.0-5.0-1.0-3.9","1","1","c8m8tg2760xalr2","","null","","sounds/sentences/left/14_01_cfSWS.wav","","null","","","","","","","","","","","","","","","","","","","","","","","","","","","","","","","","","","","","","","","","","",""
"html-keyboard-response","224","466249","0.0-5.0-1.0-4.9","1","1","c8m8tg2760xalr2","","null","","","","null","","","","","","","","","","","","","","","","","","","","","","","","","","","","","","","","","","","","","","","","","",""
"html-button-response","225","467890","0.0-5.0-1.0-5.9","1","1","c8m8tg2760xalr2","","1136","","<p>Press the button below when you are ready to continue.</p>","0","","","","","","","","","","","","","","","","","","","","","","","","","","","","","","","","","","","","","","","","","","",""
"html-keyboard-response","226","486545","0.0-6.0-0.0","1","1","c8m8tg2760xalr2","","18151.89999999851","","<p>In this part of the study, you will hear sounds similar to those you just heard.</p><p>Please focus on these sounds, as you may be asked questions about them later.</p><p>Occasionally, the sounds will pause for up to two seconds. When this happens, please press SPACEBAR as quickly as you can.</br>This helps ensure that you are paying attention to the sounds.</p><p>This part of the study will take about 12 minutes to complete, and you will be given the opportunity to take a couple of short breaks every few minutes.</p><p><strong>Press SPACEBAR to begin</strong></p>","","32","","","","","","","","","","","","","","","","","","","","","","","","","","","","","","","","","","","","","","","","","",""
"html-keyboard-response","227","487548","0.0-6.0-1.0-0.0","1","1","c8m8tg2760xalr2","","null","","<p style=""font-size: 40px;"">+</p>","","null","","","","","","","","","","","","","","","","","","","","","","","","","","","","","","","","","","","","","","","","","",""
"html-keyboard-response","228","672559","0.0-6.0-1.0-1.0","1","1","c8m8tg2760xalr2","","null","","","","null","","","SL-TRAIN","","","","","","","","","","","","","","0","1940.2999999970198","1406.2000000029802","sounds/A/TRAIN/SEQ__05.mp3","2","","","","","","","","","","","","","","","","","","","","",""
"html-button-response","229","674424","0.0-6.0-1.0-2.0","1","1","c8m8tg2760xalr2","","1863","","<p>You may take a short break if you wish.</p>","0","","","","","","","","","","","","","","","","","","","","","","","","","","","","","","","","","","","","","","","","","","",""
"html-keyboard-response","230","675428","0.0-6.0-1.0-3.0","1","1","c8m8tg2760xalr2","","null","","<p style=""font-size: 40px;"">+</p>","","null","","","","","","","","","","","","","","","","","","","","","","","","","","","","","","","","","","","","","","","","","",""
"html-keyboard-response","231","860439","0.0-6.0-1.0-4.0","1","1","c8m8tg2760xalr2","","null","","","","null","","","SL-TRAIN","","","","","","","","","","","","","","0","1485.4000000059605","1788.4000000059605","sounds/A/TRAIN/SEQ__11.mp3","4","","","","","","","","","","","","","","","","","","","","",""
"html-button-response","232","863602","0.0-6.0-1.0-5.0","1","1","c8m8tg2760xalr2","","3161.10000000149","","<p>You may take a short break if you wish.</p>","0","","","","","","","","","","","","","","","","","","","","","","","","","","","","","","","","","","","","","","","","","","",""
"html-keyboard-response","233","864607","0.0-6.0-1.0-6.0","1","1","c8m8tg2760xalr2","","null","","<p style=""font-size: 40px;"">+</p>","","null","","","","","","","","","","","","","","","","","","","","","","","","","","","","","","","","","","","","","","","","","",""
"html-keyboard-response","234","1049618","0.0-6.0-1.0-7.0","1","1","c8m8tg2760xalr2","","null","","","","null","","","SL-TRAIN","","","","","","","","","","","","","","2","null","null","sounds/A/TRAIN/SEQ__04.mp3","3","","","","","","","","","","","","","","","","","","","","",""
"html-button-response","235","1052327","0.0-6.0-1.0-8.0","1","1","c8m8tg2760xalr2","","2707.6999999955297","","<p>You may take a short break if you wish.</p>","0","","","","","","","","","","","","","","","","","","","","","","","","","","","","","","","","","","","","","","","","","","",""
"html-keyboard-response","236","1053330","0.0-6.0-1.0-9.0","1","1","c8m8tg2760xalr2","","null","","<p style=""font-size: 40px;"">+</p>","","null","","","","","","","","","","","","","","","","","","","","","","","","","","","","","","","","","","","","","","","","","",""
"html-keyboard-response","237","1238333","0.0-6.0-1.0-10.0","1","1","c8m8tg2760xalr2","","null","","","","null","","","SL-TRAIN","","","","","","","","","","","","","","1","null","1590.3999999985099","sounds/A/TRAIN/SEQ__09.mp3","12","","","","","","","","","","","","","","","","","","","","",""
"html-button-response","238","1241482","0.0-6.0-1.0-11.0","1","1","c8m8tg2760xalr2","","3147.7999999970198","","<p>You may take a short break if you wish.</p>","0","","","","","","","","","","","","","","","","","","","","","","","","","","","","","","","","","","","","","","","","","","",""
"html-button-response","239","1248516","0.0-7.0-0.0","1","1","c8m8tg2760xalr2","","7031.79999999702","","<p>Welcome to the second part of the study. This is a <u>familiarity task</u>.</p><p>You will now hear short sounds and will be asked to rate how familiar they sound to you <b>based on what you heard in the previous part of the study</b>.</p><p>You will rate 12 sounds in total.</p>","0","","","","","","","","","","","","","","","","","","","","","","","","","","","","","","","","","","","","","","","","","","",""
"html-keyboard-response","240","1249519","0.0-7.0-1.0-0.0","1","1","c8m8tg2760xalr2","","null","","","","null","","","","","","","","","","","","","","","","","","","","","","","","","","","","","","","","","","","","","","","","","",""
"audio-keyboard-response","241","1250482","0.0-7.0-1.0-1.0","1","1","c8m8tg2760xalr2","","null","","sounds/A/FAM/P002.mp3","","null","","","","","","","","","","","","","","","","","","","","","","","","","","","","","","","","","","","","","","","","","",""
"html-keyboard-response","242","1255683","0.0-7.0-1.0-2.0","1","1","c8m8tg2760xalr2","","4700.10000000149","","<p>How familiar did this sound to you?</p><p>1&nbsp;&nbsp;&nbsp;&nbsp;&nbsp;&nbsp;&nbsp;&nbsp;&nbsp;&nbsp;&nbsp;&nbsp;&nbsp;&nbsp;&nbsp;&nbsp;&nbsp;&nbsp;&nbsp;2&nbsp;&nbsp;&nbsp;&nbsp;&nbsp;&nbsp;&nbsp;&nbsp;&nbsp;&nbsp;&nbsp;&nbsp;&nbsp;&nbsp;&nbsp;&nbsp;&nbsp;&nbsp;&nbsp;3&nbsp;&nbsp;&nbsp;&nbsp;&nbsp;&nbsp;&nbsp;&nbsp;&nbsp;&nbsp;&nbsp;&nbsp;&nbsp;&nbsp;&nbsp;&nbsp;&nbsp;&nbsp;&nbsp;4</p><p style=""font-size:14px"">Not at all familiar&nbsp;&nbsp;&nbsp;&nbsp;A little familiar&nbsp;&nbsp;&nbsp;Moderately familiar&nbsp;&nbsp;&nbsp;Extremely familiar</p><p>(press the corresponding number on your keyboard)</p>","","51","","","FAM-RESPONSE","","","","","","","","","","","","","","","","","","","sounds/A/FAM/P002.mp3","partword","","","","","","","","","","","","","","","","","","",""
"html-keyboard-response","243","1257692","0.0-7.0-1.0-0.1","1","1","c8m8tg2760xalr2","","null","","","","null","","","","","","","","","","","","","","","","","","","","","","","","","","","","","","","","","","","","","","","","","",""
"audio-keyboard-response","244","1258631","0.0-7.0-1.0-1.1","1","1","c8m8tg2760xalr2","","null","","sounds/A/FAM/W001.mp3","","null","","","","","","","","","","","","","","","","","","","","","","","","","","","","","","","","","","","","","","","","","",""
"html-keyboard-response","245","1259652","0.0-7.0-1.0-2.1","1","1","c8m8tg2760xalr2","","517.1000000014901","","<p>How familiar did this sound to you?</p><p>1&nbsp;&nbsp;&nbsp;&nbsp;&nbsp;&nbsp;&nbsp;&nbsp;&nbsp;&nbsp;&nbsp;&nbsp;&nbsp;&nbsp;&nbsp;&nbsp;&nbsp;&nbsp;&nbsp;2&nbsp;&nbsp;&nbsp;&nbsp;&nbsp;&nbsp;&nbsp;&nbsp;&nbsp;&nbsp;&nbsp;&nbsp;&nbsp;&nbsp;&nbsp;&nbsp;&nbsp;&nbsp;&nbsp;3&nbsp;&nbsp;&nbsp;&nbsp;&nbsp;&nbsp;&nbsp;&nbsp;&nbsp;&nbsp;&nbsp;&nbsp;&nbsp;&nbsp;&nbsp;&nbsp;&nbsp;&nbsp;&nbsp;4</p><p style=""font-size:14px"">Not at all familiar&nbsp;&nbsp;&nbsp;&nbsp;A little familiar&nbsp;&nbsp;&nbsp;Moderately familiar&nbsp;&nbsp;&nbsp;Extremely familiar</p><p>(press the corresponding number on your keyboard)</p>","","52","","","FAM-RESPONSE","","","","","","","","","","","","","","","","","","","sounds/A/FAM/W001.mp3","word","","","","","","","","","","","","","","","","","","",""
"html-keyboard-response","246","1261660","0.0-7.0-1.0-0.2","1","1","c8m8tg2760xalr2","","null","","","","null","","","","","","","","","","","","","","","","","","","","","","","","","","","","","","","","","","","","","","","","","",""
"audio-keyboard-response","247","1262604","0.0-7.0-1.0-1.2","1","1","c8m8tg2760xalr2","","null","","sounds/A/FAM/N002.mp3","","null","","","","","","","","","","","","","","","","","","","","","","","","","","","","","","","","","","","","","","","","","",""
"html-keyboard-response","248","1263669","0.0-7.0-1.0-2.2","1","1","c8m8tg2760xalr2","","563.3999999985099","","<p>How familiar did this sound to you?</p><p>1&nbsp;&nbsp;&nbsp;&nbsp;&nbsp;&nbsp;&nbsp;&nbsp;&nbsp;&nbsp;&nbsp;&nbsp;&nbsp;&nbsp;&nbsp;&nbsp;&nbsp;&nbsp;&nbsp;2&nbsp;&nbsp;&nbsp;&nbsp;&nbsp;&nbsp;&nbsp;&nbsp;&nbsp;&nbsp;&nbsp;&nbsp;&nbsp;&nbsp;&nbsp;&nbsp;&nbsp;&nbsp;&nbsp;3&nbsp;&nbsp;&nbsp;&nbsp;&nbsp;&nbsp;&nbsp;&nbsp;&nbsp;&nbsp;&nbsp;&nbsp;&nbsp;&nbsp;&nbsp;&nbsp;&nbsp;&nbsp;&nbsp;4</p><p style=""font-size:14px"">Not at all familiar&nbsp;&nbsp;&nbsp;&nbsp;A little familiar&nbsp;&nbsp;&nbsp;Moderately familiar&nbsp;&nbsp;&nbsp;Extremely familiar</p><p>(press the corresponding number on your keyboard)</p>","","50","","","FAM-RESPONSE","","","","","","","","","","","","","","","","","","","sounds/A/FAM/N002.mp3","nonword","","","","","","","","","","","","","","","","","","",""
"html-keyboard-response","249","1265673","0.0-7.0-1.0-0.3","1","1","c8m8tg2760xalr2","","null","","","","null","","","","","","","","","","","","","","","","","","","","","","","","","","","","","","","","","","","","","","","","","",""
"audio-keyboard-response","250","1266612","0.0-7.0-1.0-1.3","1","1","c8m8tg2760xalr2","","null","","sounds/A/FAM/N001.mp3","","null","","","","","","","","","","","","","","","","","","","","","","","","","","","","","","","","","","","","","","","","","",""
"html-keyboard-response","251","1267823","0.0-7.0-1.0-2.3","1","1","c8m8tg2760xalr2","","707.5","","<p>How familiar did this sound to you?</p><p>1&nbsp;&nbsp;&nbsp;&nbsp;&nbsp;&nbsp;&nbsp;&nbsp;&nbsp;&nbsp;&nbsp;&nbsp;&nbsp;&nbsp;&nbsp;&nbsp;&nbsp;&nbsp;&nbsp;2&nbsp;&nbsp;&nbsp;&nbsp;&nbsp;&nbsp;&nbsp;&nbsp;&nbsp;&nbsp;&nbsp;&nbsp;&nbsp;&nbsp;&nbsp;&nbsp;&nbsp;&nbsp;&nbsp;3&nbsp;&nbsp;&nbsp;&nbsp;&nbsp;&nbsp;&nbsp;&nbsp;&nbsp;&nbsp;&nbsp;&nbsp;&nbsp;&nbsp;&nbsp;&nbsp;&nbsp;&nbsp;&nbsp;4</p><p style=""font-size:14px"">Not at all familiar&nbsp;&nbsp;&nbsp;&nbsp;A little familiar&nbsp;&nbsp;&nbsp;Moderately familiar&nbsp;&nbsp;&nbsp;Extremely familiar</p><p>(press the corresponding number on your keyboard)</p>","","52","","","FAM-RESPONSE","","","","","","","","","","","","","","","","","","","sounds/A/FAM/N001.mp3","nonword","","","","","","","","","","","","","","","","","","",""
"html-keyboard-response","252","1269830","0.0-7.0-1.0-0.4","1","1","c8m8tg2760xalr2","","null","","","","null","","","","","","","","","","","","","","","","","","","","","","","","","","","","","","","","","","","","","","","","","",""
"audio-keyboard-response","253","1270776","0.0-7.0-1.0-1.4","1","1","c8m8tg2760xalr2","","null","","sounds/A/FAM/N004.mp3","","null","","","","","","","","","","","","","","","","","","","","","","","","","","","","","","","","","","","","","","","","","",""
"html-keyboard-response","254","1271848","0.0-7.0-1.0-2.4","1","1","c8m8tg2760xalr2","","570.2000000029802","","<p>How familiar did this sound to you?</p><p>1&nbsp;&nbsp;&nbsp;&nbsp;&nbsp;&nbsp;&nbsp;&nbsp;&nbsp;&nbsp;&nbsp;&nbsp;&nbsp;&nbsp;&nbsp;&nbsp;&nbsp;&nbsp;&nbsp;2&nbsp;&nbsp;&nbsp;&nbsp;&nbsp;&nbsp;&nbsp;&nbsp;&nbsp;&nbsp;&nbsp;&nbsp;&nbsp;&nbsp;&nbsp;&nbsp;&nbsp;&nbsp;&nbsp;3&nbsp;&nbsp;&nbsp;&nbsp;&nbsp;&nbsp;&nbsp;&nbsp;&nbsp;&nbsp;&nbsp;&nbsp;&nbsp;&nbsp;&nbsp;&nbsp;&nbsp;&nbsp;&nbsp;4</p><p style=""font-size:14px"">Not at all familiar&nbsp;&nbsp;&nbsp;&nbsp;A little familiar&nbsp;&nbsp;&nbsp;Moderately familiar&nbsp;&nbsp;&nbsp;Extremely familiar</p><p>(press the corresponding number on your keyboard)</p>","","52","","","FAM-RESPONSE","","","","","","","","","","","","","","","","","","","sounds/A/FAM/N004.mp3","nonword","","","","","","","","","","","","","","","","","","",""
"html-keyboard-response","255","1273857","0.0-7.0-1.0-0.5","1","1","c8m8tg2760xalr2","","null","","","","null","","","","","","","","","","","","","","","","","","","","","","","","","","","","","","","","","","","","","","","","","",""
"audio-keyboard-response","256","1274795","0.0-7.0-1.0-1.5","1","1","c8m8tg2760xalr2","","null","","sounds/A/FAM/P003.mp3","","null","","","","","","","","","","","","","","","","","","","","","","","","","","","","","","","","","","","","","","","","","",""
"html-keyboard-response","257","1275898","0.0-7.0-1.0-2.5","1","1","c8m8tg2760xalr2","","601.2000000029802","","<p>How familiar did this sound to you?</p><p>1&nbsp;&nbsp;&nbsp;&nbsp;&nbsp;&nbsp;&nbsp;&nbsp;&nbsp;&nbsp;&nbsp;&nbsp;&nbsp;&nbsp;&nbsp;&nbsp;&nbsp;&nbsp;&nbsp;2&nbsp;&nbsp;&nbsp;&nbsp;&nbsp;&nbsp;&nbsp;&nbsp;&nbsp;&nbsp;&nbsp;&nbsp;&nbsp;&nbsp;&nbsp;&nbsp;&nbsp;&nbsp;&nbsp;3&nbsp;&nbsp;&nbsp;&nbsp;&nbsp;&nbsp;&nbsp;&nbsp;&nbsp;&nbsp;&nbsp;&nbsp;&nbsp;&nbsp;&nbsp;&nbsp;&nbsp;&nbsp;&nbsp;4</p><p style=""font-size:14px"">Not at all familiar&nbsp;&nbsp;&nbsp;&nbsp;A little familiar&nbsp;&nbsp;&nbsp;Moderately familiar&nbsp;&nbsp;&nbsp;Extremely familiar</p><p>(press the corresponding number on your keyboard)</p>","","51","","","FAM-RESPONSE","","","","","","","","","","","","","","","","","","","sounds/A/FAM/P003.mp3","partword","","","","","","","","","","","","","","","","","","",""
"html-keyboard-response","258","1277902","0.0-7.0-1.0-0.6","1","1","c8m8tg2760xalr2","","null","","","","null","","","","","","","","","","","","","","","","","","","","","","","","","","","","","","","","","","","","","","","","","",""
"audio-keyboard-response","259","1278838","0.0-7.0-1.0-1.6","1","1","c8m8tg2760xalr2","","null","","sounds/A/FAM/N003.mp3","","null","","","","","","","","","","","","","","","","","","","","","","","","","","","","","","","","","","","","","","","","","",""
"html-keyboard-response","260","1280507","0.0-7.0-1.0-2.6","1","1","c8m8tg2760xalr2","","1164.7999999970198","","<p>How familiar did this sound to you?</p><p>1&nbsp;&nbsp;&nbsp;&nbsp;&nbsp;&nbsp;&nbsp;&nbsp;&nbsp;&nbsp;&nbsp;&nbsp;&nbsp;&nbsp;&nbsp;&nbsp;&nbsp;&nbsp;&nbsp;2&nbsp;&nbsp;&nbsp;&nbsp;&nbsp;&nbsp;&nbsp;&nbsp;&nbsp;&nbsp;&nbsp;&nbsp;&nbsp;&nbsp;&nbsp;&nbsp;&nbsp;&nbsp;&nbsp;3&nbsp;&nbsp;&nbsp;&nbsp;&nbsp;&nbsp;&nbsp;&nbsp;&nbsp;&nbsp;&nbsp;&nbsp;&nbsp;&nbsp;&nbsp;&nbsp;&nbsp;&nbsp;&nbsp;4</p><p style=""font-size:14px"">Not at all familiar&nbsp;&nbsp;&nbsp;&nbsp;A little familiar&nbsp;&nbsp;&nbsp;Moderately familiar&nbsp;&nbsp;&nbsp;Extremely familiar</p><p>(press the corresponding number on your keyboard)</p>","","51","","","FAM-RESPONSE","","","","","","","","","","","","","","","","","","","sounds/A/FAM/N003.mp3","nonword","","","","","","","","","","","","","","","","","","",""
"html-keyboard-response","261","1282510","0.0-7.0-1.0-0.7","1","1","c8m8tg2760xalr2","","null","","","","null","","","","","","","","","","","","","","","","","","","","","","","","","","","","","","","","","","","","","","","","","",""
"audio-keyboard-response","262","1283454","0.0-7.0-1.0-1.7","1","1","c8m8tg2760xalr2","","null","","sounds/A/FAM/W004.mp3","","null","","","","","","","","","","","","","","","","","","","","","","","","","","","","","","","","","","","","","","","","","",""
"html-keyboard-response","263","1286079","0.0-7.0-1.0-2.7","1","1","c8m8tg2760xalr2","","2120.2999999970198","","<p>How familiar did this sound to you?</p><p>1&nbsp;&nbsp;&nbsp;&nbsp;&nbsp;&nbsp;&nbsp;&nbsp;&nbsp;&nbsp;&nbsp;&nbsp;&nbsp;&nbsp;&nbsp;&nbsp;&nbsp;&nbsp;&nbsp;2&nbsp;&nbsp;&nbsp;&nbsp;&nbsp;&nbsp;&nbsp;&nbsp;&nbsp;&nbsp;&nbsp;&nbsp;&nbsp;&nbsp;&nbsp;&nbsp;&nbsp;&nbsp;&nbsp;3&nbsp;&nbsp;&nbsp;&nbsp;&nbsp;&nbsp;&nbsp;&nbsp;&nbsp;&nbsp;&nbsp;&nbsp;&nbsp;&nbsp;&nbsp;&nbsp;&nbsp;&nbsp;&nbsp;4</p><p style=""font-size:14px"">Not at all familiar&nbsp;&nbsp;&nbsp;&nbsp;A little familiar&nbsp;&nbsp;&nbsp;Moderately familiar&nbsp;&nbsp;&nbsp;Extremely familiar</p><p>(press the corresponding number on your keyboard)</p>","","50","","","FAM-RESPONSE","","","","","","","","","","","","","","","","","","","sounds/A/FAM/W004.mp3","word","","","","","","","","","","","","","","","","","","",""
"html-keyboard-response","264","1288081","0.0-7.0-1.0-0.8","1","1","c8m8tg2760xalr2","","null","","","","null","","","","","","","","","","","","","","","","","","","","","","","","","","","","","","","","","","","","","","","","","",""
"audio-keyboard-response","265","1289020","0.0-7.0-1.0-1.8","1","1","c8m8tg2760xalr2","","null","","sounds/A/FAM/P004.mp3","","null","","","","","","","","","","","","","","","","","","","","","","","","","","","","","","","","","","","","","","","","","",""
"html-keyboard-response","266","1290116","0.0-7.0-1.0-2.8","1","1","c8m8tg2760xalr2","","594.7000000029802","","<p>How familiar did this sound to you?</p><p>1&nbsp;&nbsp;&nbsp;&nbsp;&nbsp;&nbsp;&nbsp;&nbsp;&nbsp;&nbsp;&nbsp;&nbsp;&nbsp;&nbsp;&nbsp;&nbsp;&nbsp;&nbsp;&nbsp;2&nbsp;&nbsp;&nbsp;&nbsp;&nbsp;&nbsp;&nbsp;&nbsp;&nbsp;&nbsp;&nbsp;&nbsp;&nbsp;&nbsp;&nbsp;&nbsp;&nbsp;&nbsp;&nbsp;3&nbsp;&nbsp;&nbsp;&nbsp;&nbsp;&nbsp;&nbsp;&nbsp;&nbsp;&nbsp;&nbsp;&nbsp;&nbsp;&nbsp;&nbsp;&nbsp;&nbsp;&nbsp;&nbsp;4</p><p style=""font-size:14px"">Not at all familiar&nbsp;&nbsp;&nbsp;&nbsp;A little familiar&nbsp;&nbsp;&nbsp;Moderately familiar&nbsp;&nbsp;&nbsp;Extremely familiar</p><p>(press the corresponding number on your keyboard)</p>","","50","","","FAM-RESPONSE","","","","","","","","","","","","","","","","","","","sounds/A/FAM/P004.mp3","partword","","","","","","","","","","","","","","","","","","",""
"html-keyboard-response","267","1292120","0.0-7.0-1.0-0.9","1","1","c8m8tg2760xalr2","","null","","","","null","","","","","","","","","","","","","","","","","","","","","","","","","","","","","","","","","","","","","","","","","",""
"audio-keyboard-response","268","1293062","0.0-7.0-1.0-1.9","1","1","c8m8tg2760xalr2","","null","","sounds/A/FAM/P001.mp3","","null","","","","","","","","","","","","","","","","","","","","","","","","","","","","","","","","","","","","","","","","","",""
"html-keyboard-response","269","1294351","0.0-7.0-1.0-2.9","1","1","c8m8tg2760xalr2","","787.2000000029802","","<p>How familiar did this sound to you?</p><p>1&nbsp;&nbsp;&nbsp;&nbsp;&nbsp;&nbsp;&nbsp;&nbsp;&nbsp;&nbsp;&nbsp;&nbsp;&nbsp;&nbsp;&nbsp;&nbsp;&nbsp;&nbsp;&nbsp;2&nbsp;&nbsp;&nbsp;&nbsp;&nbsp;&nbsp;&nbsp;&nbsp;&nbsp;&nbsp;&nbsp;&nbsp;&nbsp;&nbsp;&nbsp;&nbsp;&nbsp;&nbsp;&nbsp;3&nbsp;&nbsp;&nbsp;&nbsp;&nbsp;&nbsp;&nbsp;&nbsp;&nbsp;&nbsp;&nbsp;&nbsp;&nbsp;&nbsp;&nbsp;&nbsp;&nbsp;&nbsp;&nbsp;4</p><p style=""font-size:14px"">Not at all familiar&nbsp;&nbsp;&nbsp;&nbsp;A little familiar&nbsp;&nbsp;&nbsp;Moderately familiar&nbsp;&nbsp;&nbsp;Extremely familiar</p><p>(press the corresponding number on your keyboard)</p>","","52","","","FAM-RESPONSE","","","","","","","","","","","","","","","","","","","sounds/A/FAM/P001.mp3","partword","","","","","","","","","","","","","","","","","","",""
"html-keyboard-response","270","1296358","0.0-7.0-1.0-0.10","1","1","c8m8tg2760xalr2","","null","","","","null","","","","","","","","","","","","","","","","","","","","","","","","","","","","","","","","","","","","","","","","","",""
"audio-keyboard-response","271","1297296","0.0-7.0-1.0-1.10","1","1","c8m8tg2760xalr2","","null","","sounds/A/FAM/W003.mp3","","null","","","","","","","","","","","","","","","","","","","","","","","","","","","","","","","","","","","","","","","","","",""
"html-keyboard-response","272","1298210","0.0-7.0-1.0-2.10","1","1","c8m8tg2760xalr2","","412.5","","<p>How familiar did this sound to you?</p><p>1&nbsp;&nbsp;&nbsp;&nbsp;&nbsp;&nbsp;&nbsp;&nbsp;&nbsp;&nbsp;&nbsp;&nbsp;&nbsp;&nbsp;&nbsp;&nbsp;&nbsp;&nbsp;&nbsp;2&nbsp;&nbsp;&nbsp;&nbsp;&nbsp;&nbsp;&nbsp;&nbsp;&nbsp;&nbsp;&nbsp;&nbsp;&nbsp;&nbsp;&nbsp;&nbsp;&nbsp;&nbsp;&nbsp;3&nbsp;&nbsp;&nbsp;&nbsp;&nbsp;&nbsp;&nbsp;&nbsp;&nbsp;&nbsp;&nbsp;&nbsp;&nbsp;&nbsp;&nbsp;&nbsp;&nbsp;&nbsp;&nbsp;4</p><p style=""font-size:14px"">Not at all familiar&nbsp;&nbsp;&nbsp;&nbsp;A little familiar&nbsp;&nbsp;&nbsp;Moderately familiar&nbsp;&nbsp;&nbsp;Extremely familiar</p><p>(press the corresponding number on your keyboard)</p>","","52","","","FAM-RESPONSE","","","","","","","","","","","","","","","","","","","sounds/A/FAM/W003.mp3","word","","","","","","","","","","","","","","","","","","",""
"html-keyboard-response","273","1300215","0.0-7.0-1.0-0.11","1","1","c8m8tg2760xalr2","","null","","","","null","","","","","","","","","","","","","","","","","","","","","","","","","","","","","","","","","","","","","","","","","",""
"audio-keyboard-response","274","1301153","0.0-7.0-1.0-1.11","1","1","c8m8tg2760xalr2","","null","","sounds/A/FAM/W002.mp3","","null","","","","","","","","","","","","","","","","","","","","","","","","","","","","","","","","","","","","","","","","","",""
"html-keyboard-response","275","1303065","0.0-7.0-1.0-2.11","1","1","c8m8tg2760xalr2","","1406.6999999955297","","<p>How familiar did this sound to you?</p><p>1&nbsp;&nbsp;&nbsp;&nbsp;&nbsp;&nbsp;&nbsp;&nbsp;&nbsp;&nbsp;&nbsp;&nbsp;&nbsp;&nbsp;&nbsp;&nbsp;&nbsp;&nbsp;&nbsp;2&nbsp;&nbsp;&nbsp;&nbsp;&nbsp;&nbsp;&nbsp;&nbsp;&nbsp;&nbsp;&nbsp;&nbsp;&nbsp;&nbsp;&nbsp;&nbsp;&nbsp;&nbsp;&nbsp;3&nbsp;&nbsp;&nbsp;&nbsp;&nbsp;&nbsp;&nbsp;&nbsp;&nbsp;&nbsp;&nbsp;&nbsp;&nbsp;&nbsp;&nbsp;&nbsp;&nbsp;&nbsp;&nbsp;4</p><p style=""font-size:14px"">Not at all familiar&nbsp;&nbsp;&nbsp;&nbsp;A little familiar&nbsp;&nbsp;&nbsp;Moderately familiar&nbsp;&nbsp;&nbsp;Extremely familiar</p><p>(press the corresponding number on your keyboard)</p>","","50","","","FAM-RESPONSE","","","","","","","","","","","","","","","","","","","sounds/A/FAM/W002.mp3","word","","","","","","","","","","","","","","","","","","",""
"html-button-response","276","1312109","0.0-8.0-0.0","1","1","c8m8tg2760xalr2","","8042.20000000298","","<p>You will now listen to longer sound sequences.</p><p>Each sound sequence will last about 16 seconds.</p><p>On each trial, you will be given a <u>TARGET SOUND</u>. Your task is to listen very carefully for this sound.</p><p>Every time you hear the <u>TARGET SOUND</u>, you will press the <b>SPACEBAR</b> as quickly and accurately as you can.</p>","0","","","","","","","","","","","","","","","","","","","","","","","","","","","","","","","","","","","","","","","","","","",""
"html-button-response","277","1320236","0.0-8.0-1.0","1","1","c8m8tg2760xalr2","","7874.69999999553","","<p>It is very important that you make your responses as quickly and accurately as possible.</p><p>To help you make your responses, you will be able to listen to the <u>TARGET SOUND</u> at the beginning of each trial.</p><p>There will be 36 total trials.</p><p><b>Note: This is meant to be a difficult task. We simply want you to try your best.</p>","0","","","","","","","","","","","","","","","","","","","","","","","","","","","","","","","","","","","","","","","","","","",""
"html-button-response","278","1321806","0.0-8.0-2.0-0.0","1","1","c8m8tg2760xalr2","","1312.3999999985099","","<p>Trial 1 of 36</p>","0","","","","","","","","","","","","","","","","","","","","","","","","","TA","sounds/syllables/ta_SWS.wav","900,3600,5400,9900","1","","","","","","","","","","","","","","",""
"html-keyboard-response","279","1325918","0.0-8.0-2.0-1.0","1","1","c8m8tg2760xalr2","","4110.79999999702","","","","80","","","","","","","","","","","","","","","","","","","","","","","","TA","","900,3600,5400,9900","1","","","","","","","","","","","","","","",""
"audio-keyboard-response","280","1326219","0.0-8.0-2.0-2.0-0.0","1","1","c8m8tg2760xalr2","","null","","sounds/syllables/ta_SWS.wav","","null","","","","","","","","","","","","","","","","","","","","","","","","","","","","","","","","","","","","","","","","","",""
"html-keyboard-response","281","1329188","0.0-8.0-2.0-2.0-1.0","1","1","c8m8tg2760xalr2","","2968.2999999970198","","<p>To replay the <u>TARGET SOUND</u>, press P.</p> When you are ready to begin, press SPACEBAR.","","80","","","","","","","","","","","","","","","","","","","","","","","","","","","","","","","","","","","","","","","","","",""
"audio-keyboard-response","282","1329990","0.0-8.0-2.0-2.1-0.1","1","1","c8m8tg2760xalr2","","null","","sounds/syllables/ta_SWS.wav","","null","","","","","","","","","","","","","","","","","","","","","","","","","","","","","","","","","","","","","","","","","",""
"html-keyboard-response","283","1330815","0.0-8.0-2.0-2.1-1.1","1","1","c8m8tg2760xalr2","","824.2000000029802","","<p>To replay the <u>TARGET SOUND</u>, press P.</p> When you are ready to begin, press SPACEBAR.","","32","","","","","","","","","","","","","","","","","","","","","","","","","","","","","","","","","","","","","","","","","",""
"audio-keyboard-response","284","1345767","0.0-8.0-2.0-3.0","1","1","c8m8tg2760xalr2","","1027","","sounds/A/TD/TA_03_TD.mp3","","32","","","TD_SUMMARY","","","","","","","","","","","","","","","","","","","","","TA","","900,3600,5400,9900","1","900","3600","5400","9900","null","null","652.6999999955297","null","1025.7999999970198_3284.5_6052.69999999553_7203.0999999940395_9529.59999999404_12344.69999999553","2","","","","",""
"html-button-response","285","1347520","0.0-8.0-2.0-0.1","1","1","c8m8tg2760xalr2","","1750.8999999985099","","<p>Trial 2 of 36</p>","0","","","","","","","","","","","","","","","","","","","","","","","","","PU","sounds/syllables/pu_SWS.wav","3900,6600,9300,12900","2","","","","","","","","","","","","","","",""
"html-keyboard-response","286","1348589","0.0-8.0-2.0-1.1","1","1","c8m8tg2760xalr2","","1067.8999999985099","","","","80","","","","","","","","","","","","","","","","","","","","","","","","PU","","3900,6600,9300,12900","2","","","","","","","","","","","","","","",""
"audio-keyboard-response","287","1348888","0.0-8.0-2.0-2.2-0.2","1","1","c8m8tg2760xalr2","","null","","sounds/syllables/pu_SWS.wav","","null","","","","","","","","","","","","","","","","","","","","","","","","","","","","","","","","","","","","","","","","","",""
"html-keyboard-response","288","1350067","0.0-8.0-2.0-2.2-1.2","1","1","c8m8tg2760xalr2","","1178.1000000014901","","<p>To replay the <u>TARGET SOUND</u>, press P.</p> When you are ready to begin, press SPACEBAR.","","80","","","","","","","","","","","","","","","","","","","","","","","","","","","","","","","","","","","","","","","","","",""
"audio-keyboard-response","289","1350875","0.0-8.0-2.0-2.3-0.3","1","1","c8m8tg2760xalr2","","null","","sounds/syllables/pu_SWS.wav","","null","","","","","","","","","","","","","","","","","","","","","","","","","","","","","","","","","","","","","","","","","",""
"html-keyboard-response","290","1351464","0.0-8.0-2.0-2.3-1.3","1","1","c8m8tg2760xalr2","","588.2000000029802","","<p>To replay the <u>TARGET SOUND</u>, press P.</p> When you are ready to begin, press SPACEBAR.","","32","","","","","","","","","","","","","","","","","","","","","","","","","","","","","","","","","","","","","","","","","",""
"audio-keyboard-response","291","1366414","0.0-8.0-2.0-3.1","1","1","c8m8tg2760xalr2","","2560","","sounds/A/TD/PU_01_TD.mp3","","32","","","TD_SUMMARY","","","","","","","","","","","","","","","","","","","","","PU","","3900,6600,9300,12900","2","3900","6600","9300","12900","795.3999999985099","1197.2999999970198","1066.1999999955297","655.6000000014901","______2557.10000000149_4695.39999999851_5194_6988.10000000149_7797.29999999702_9921.60000000149_10366.19999999553_11207.39999999851_13555.60000000149_14231.89999999851","2","","","","",""
"html-button-response","292","1368022","0.0-8.0-2.0-0.2","1","1","c8m8tg2760xalr2","","1605.6000000014901","","<p>Trial 3 of 36</p>","0","","","","","","","","","","","","","","","","","","","","","","","","","FU","sounds/syllables/fu_SWS.wav","5700,7500,9300,12000","2","","","","","","","","","","","","","","",""
"html-keyboard-response","293","1368732","0.0-8.0-2.0-1.2","1","1","c8m8tg2760xalr2","","708.3000000044703","","","","80","","","","","","","","","","","","","","","","","","","","","","","","FU","","5700,7500,9300,12000","2","","","","","","","","","","","","","","",""
"audio-keyboard-response","294","1369031","0.0-8.0-2.0-2.4-0.4","1","1","c8m8tg2760xalr2","","null","","sounds/syllables/fu_SWS.wav","","null","","","","","","","","","","","","","","","","","","","","","","","","","","","","","","","","","","","","","","","","","",""
"html-keyboard-response","295","1370474","0.0-8.0-2.0-2.4-1.4","1","1","c8m8tg2760xalr2","","1441.3999999985099","","<p>To replay the <u>TARGET SOUND</u>, press P.</p> When you are ready to begin, press SPACEBAR.","","32","","","","","","","","","","","","","","","","","","","","","","","","","","","","","","","","","","","","","","","","","",""
"audio-keyboard-response","296","1385416","0.0-8.0-2.0-3.2","1","1","c8m8tg2760xalr2","","2873","","sounds/A/TD/FU_03_TD.mp3","","32","","","TD_SUMMARY","","","","","","","","","","","","","","","","","","","","","FU","","5700,7500,9300,12000","2","5700","7500","9300","12000","null","null","null","null","________________2871.39999999851_4203.0999999940395_7097_9257.69999999553_13887.29999999702","1","","","","",""
"html-button-response","297","1386582","0.0-8.0-2.0-0.3","1","1","c8m8tg2760xalr2","","1163.2000000029802","","<p>Trial 4 of 36</p>","0","","","","","","","","","","","","","","","","","","","","","","","","","TI","sounds/syllables/ti_SWS.wav","3000,8400,11100,12900","2","","","","","","","","","","","","","","",""
"html-keyboard-response","298","1387829","0.0-8.0-2.0-1.3","1","1","c8m8tg2760xalr2","","1246.2999999970198","","","","80","","","","","","","","","","","","","","","","","","","","","","","","TI","","3000,8400,11100,12900","2","","","","","","","","","","","","","","",""
"audio-keyboard-response","299","1388127","0.0-8.0-2.0-2.5-0.5","1","1","c8m8tg2760xalr2","","null","","sounds/syllables/ti_SWS.wav","","null","","","","","","","","","","","","","","","","","","","","","","","","","","","","","","","","","","","","","","","","","",""
"html-keyboard-response","300","1389222","0.0-8.0-2.0-2.5-1.5","1","1","c8m8tg2760xalr2","","1094.5","","<p>To replay the <u>TARGET SOUND</u>, press P.</p> When you are ready to begin, press SPACEBAR.","","32","","","","","","","","","","","","","","","","","","","","","","","","","","","","","","","","","","","","","","","","","",""
"audio-keyboard-response","301","1404176","0.0-8.0-2.0-3.3","1","1","c8m8tg2760xalr2","","1852","","sounds/A/TD/TI_02_TD.mp3","","32","","","TD_SUMMARY","","","","","","","","","","","","","","","","","","","","","TI","","3000,8400,11100,12900","2","3000","8400","11100","12900","944.5999999940395","372.29999999701977","null","null","_____________________1857.7999999970198_3944.5999999940395_6512.79999999702_8772.29999999702","1","","","","",""
"html-button-response","302","1406176","0.0-8.0-2.0-0.4","1","1","c8m8tg2760xalr2","","1997.5","","<p>Trial 5 of 36</p>","0","","","","","","","","","","","","","","","","","","","","","","","","","KO","sounds/syllables/ko_SWS.wav","4200,6900,10500,13200","3","","","","","","","","","","","","","","",""
"html-keyboard-response","303","1407410","0.0-8.0-2.0-1.4","1","1","c8m8tg2760xalr2","","1233.0999999940395","","","","80","","","","","","","","","","","","","","","","","","","","","","","","KO","","4200,6900,10500,13200","3","","","","","","","","","","","","","","",""
"audio-keyboard-response","304","1407708","0.0-8.0-2.0-2.6-0.6","1","1","c8m8tg2760xalr2","","null","","sounds/syllables/ko_SWS.wav","","null","","","","","","","","","","","","","","","","","","","","","","","","","","","","","","","","","","","","","","","","","",""
"html-keyboard-response","305","1409103","0.0-8.0-2.0-2.6-1.6","1","1","c8m8tg2760xalr2","","1394.1000000014901","","<p>To replay the <u>TARGET SOUND</u>, press P.</p> When you are ready to begin, press SPACEBAR.","","32","","","","","","","","","","","","","","","","","","","","","","","","","","","","","","","","","","","","","","","","","",""
"audio-keyboard-response","306","1424059","0.0-8.0-2.0-3.4","1","1","c8m8tg2760xalr2","","5143","","sounds/A/TD/KO_03_TD.mp3","","32","","","TD_SUMMARY","","","","","","","","","","","","","","","","","","","","","KO","","4200,6900,10500,13200","3","4200","6900","10500","13200","944.1000000014901","990.7000000029802","914.3000000044703","1060.5","_________________________5144.10000000149_7890.70000000298_11414.30000000447_14260.5","1","","","","",""
"html-button-response","307","1426167","0.0-8.0-2.0-0.5","1","1","c8m8tg2760xalr2","","2105.5","","<p>Trial 6 of 36</p>","0","","","","","","","","","","","","","","","","","","","","","","","","","TA","sounds/syllables/ta_SWS.wav","5400,7200,9000,12600","1","","","","","","","","","","","","","","",""
"html-keyboard-response","308","1427327","0.0-8.0-2.0-1.5","1","1","c8m8tg2760xalr2","","1158.8000000044703","","","","80","","","","","","","","","","","","","","","","","","","","","","","","TA","","5400,7200,9000,12600","1","","","","","","","","","","","","","","",""
"audio-keyboard-response","309","1427626","0.0-8.0-2.0-2.7-0.7","1","1","c8m8tg2760xalr2","","null","","sounds/syllables/ta_SWS.wav","","null","","","","","","","","","","","","","","","","","","","","","","","","","","","","","","","","","","","","","","","","","",""
"html-keyboard-response","310","1428910","0.0-8.0-2.0-2.7-1.7","1","1","c8m8tg2760xalr2","","1283","","<p>To replay the <u>TARGET SOUND</u>, press P.</p> When you are ready to begin, press SPACEBAR.","","32","","","","","","","","","","","","","","","","","","","","","","","","","","","","","","","","","","","","","","","","","",""
"audio-keyboard-response","311","1443802","0.0-8.0-2.0-3.5","1","1","c8m8tg2760xalr2","","1329","","sounds/A/TD/TA_09_TD.mp3","","32","","","TD_SUMMARY","","","","","","","","","","","","","","","","","","","","","TA","","5400,7200,9000,12600","1","5400","7200","9000","12600","937.9000000059605","null","1066.4000000059605","976.4000000059605","_____________________________1325.6000000014901_3374.5_4145.5_6001.5_6337.9000000059605_7212.4000000059605_8656.90000000596_10066.40000000596_13576.40000000596","1","","","","",""
"html-button-response","312","1445770","0.0-8.0-2.0-0.6","1","1","c8m8tg2760xalr2","","1965.8000000044703","","<p>Trial 7 of 36</p>","0","","","","","","","","","","","","","","","","","","","","","","","","","PU","sounds/syllables/pu_SWS.wav","1200,5700,7500,11100","2","","","","","","","","","","","","","","",""
"html-keyboard-response","313","1446654","0.0-8.0-2.0-1.6","1","1","c8m8tg2760xalr2","","882.5","","","","80","","","","","","","","","","","","","","","","","","","","","","","","PU","","1200,5700,7500,11100","2","","","","","","","","","","","","","","",""
