"trial_type","trial_index","time_elapsed","internal_node_id","counterbalance","lang_instruct","ParticipantID","view_history","rt","url","stimulus","button_pressed","key_press","correctRESP","correct","designation","location","correctanswer","responses","sentence","keywords","typed_resp","keyword1_acc","keyword2_acc","keyword3_acc","keyword4_acc","keyword5_acc","total_acc","prop_acc","timeouts","pause_rt01","pause_rt02","train_file","numKeyPress","sound","fam_type","SYLLABLE","EXEMPLAR","TD_LOCS","TD_TYPE","TDLOC_01","TDLOC_02","TDLOC_03","TDLOC_04","TD_RT_01","TD_RT_02","TD_RT_03","TD_RT_04","TD_SUBJ_RTs","number_of_plays","slider_start","response","question_order","syllable","syllable_type"
"pavlovia","0","3","0.0-0.0","2","1","brtpoohevar46ah","","","","","","","","","","","","","","","","","","","","","","","","","","","","","","","","","","","","","","","","","","","","","","","",""
"instructions","1","48132","0.0-1.0","2","1","brtpoohevar46ah","[{""page_index"":0,""viewing_time"":15082.599999964237},{""page_index"":1,""viewing_time"":33043.60000002384}]","48128.09999996424","","","","","","","","","","","","","","","","","","","","","","","","","","","","","","","","","","","","","","","","","","","","","",""
"external-html","2","51857","0.0-2.0","2","1","brtpoohevar46ah","","3605.600000023842","consent/consent.html","","","","","","","","","","","","","","","","","","","","","","","","","","","","","","","","","","","","","","","","","","","","",""
"html-button-response","3","56088","0.0-3.0-0.0-0.0","2","1","brtpoohevar46ah","","4228.899999976158","","<p>Welcome to the study. You will first complete a short volume calibration and headphone check.</p><p>Please make sure you are in a quiet listening environment, that you are wearing headphones, and that your computer's volume is turned on.<p></p>","0","","","","","","","","","","","","","","","","","","","","","","","","","","","","","","","","","","","","","","","","","","",""
"html-button-response","4","60790","0.0-3.0-0.0-1.0","2","1","brtpoohevar46ah","","4436.900000035763","","<p>The volume calibration will be first.</p><p>You will hear a thirty-second noise. Please adjust your computer's volume so that this noise is being presented at a comfortable level.<p></p>","0","","","","","","","","","","","","","","","","","","","","","","","","","","","","","","","","","","","","","","","","","","",""
"audio-button-response","5","70635","0.0-3.0-0.0-2.0","2","1","brtpoohevar46ah","","8909","","audCalib/volumetest.mp3","0","","","","","","","","","","","","","","","","","","","","","","","","","","","","","","","","","","","","","","","","","","",""
"html-button-response","6","75301","0.0-3.0-1.0-0.0","2","1","brtpoohevar46ah","","4664.399999976158","","<p>You will now complete a short headphone check.</p><p>On each trial, you will hear three tones. One of these tones will be quieter than the others. Your task is to identify whether the quiet tone occured first, second, or third.</p><p>There are six trials in total.<p></p>","0","","","","","","","","","","","","","","","","","","","","","","","","","","","","","","","","","","","","","","","","","","",""
"html-keyboard-response","7","76079","0.0-3.0-1.0-1.0-0.0","2","1","brtpoohevar46ah","","null","","<div style=""font-size:60px;"">+</div>","","null","","","","","","","","","","","","","","","","","","","","","","","","","","","","","","","","","","","","","","","","","",""
"audio-button-response","8","81250","0.0-3.0-1.0-1.0-1.0","2","1","brtpoohevar46ah","","5168","","audCalib/t1_1.mp3","0","","0","1","headphone-test","","","","","","","","","","","","","","","","","","","","","","","","","","","","","","","","","","","","","","",""
"html-keyboard-response","9","82004","0.0-3.0-1.0-1.0-0.1","2","1","brtpoohevar46ah","","null","","<div style=""font-size:60px;"">+</div>","","null","","","","","","","","","","","","","","","","","","","","","","","","","","","","","","","","","","","","","","","","","",""
"audio-button-response","10","86480","0.0-3.0-1.0-1.0-1.1","2","1","brtpoohevar46ah","","4480","","audCalib/t2_1.mp3","1","","1","1","headphone-test","","","","","","","","","","","","","","","","","","","","","","","","","","","","","","","","","","","","","","",""
"html-keyboard-response","11","87233","0.0-3.0-1.0-1.0-0.2","2","1","brtpoohevar46ah","","null","","<div style=""font-size:60px;"">+</div>","","null","","","","","","","","","","","","","","","","","","","","","","","","","","","","","","","","","","","","","","","","","",""
"audio-button-response","12","91541","0.0-3.0-1.0-1.0-1.2","2","1","brtpoohevar46ah","","4309","","audCalib/t3_1.mp3","2","","2","1","headphone-test","","","","","","","","","","","","","","","","","","","","","","","","","","","","","","","","","","","","","","",""
"html-keyboard-response","13","92304","0.0-3.0-1.0-1.0-0.3","2","1","brtpoohevar46ah","","null","","<div style=""font-size:60px;"">+</div>","","null","","","","","","","","","","","","","","","","","","","","","","","","","","","","","","","","","","","","","","","","","",""
"audio-button-response","14","96678","0.0-3.0-1.0-1.0-1.3","2","1","brtpoohevar46ah","","4371","","audCalib/t1_2.mp3","0","","0","1","headphone-test","","","","","","","","","","","","","","","","","","","","","","","","","","","","","","","","","","","","","","",""
"html-keyboard-response","15","97447","0.0-3.0-1.0-1.0-0.4","2","1","brtpoohevar46ah","","null","","<div style=""font-size:60px;"">+</div>","","null","","","","","","","","","","","","","","","","","","","","","","","","","","","","","","","","","","","","","","","","","",""
"audio-button-response","16","101741","0.0-3.0-1.0-1.0-1.4","2","1","brtpoohevar46ah","","4291","","audCalib/t3_2.mp3","2","","2","1","headphone-test","","","","","","","","","","","","","","","","","","","","","","","","","","","","","","","","","","","","","","",""
"html-keyboard-response","17","102500","0.0-3.0-1.0-1.0-0.5","2","1","brtpoohevar46ah","","null","","<div style=""font-size:60px;"">+</div>","","null","","","","","","","","","","","","","","","","","","","","","","","","","","","","","","","","","","","","","","","","","",""
"audio-button-response","18","106710","0.0-3.0-1.0-1.0-1.5","2","1","brtpoohevar46ah","","4211","","audCalib/t2_2.mp3","1","","1","1","headphone-test","","","","","","","","","","","","","","","","","","","","","","","","","","","","","","","","","","","","","","",""
"html-button-response","19","108624","0.0-3.0-2.0","2","1","brtpoohevar46ah","","1649.6000000238419","","<p>The volume calibration and headphone check are now complete.</p>","0","","","","","","","","","","","","","","","","","","","","","","","","","","","","","","","","","","","","","","","","","","",""
"instructions","20","120310","0.0-4.0-0.0","2","1","brtpoohevar46ah","[{""page_index"":0,""viewing_time"":1024.699999988079},{""page_index"":1,""viewing_time"":8806.400000035763},{""page_index"":2,""viewing_time"":1854.800000011921}]","11686.100000023842","","","","","","","","","","","","","","","","","","","","","","","","","","","","","","","","","","","","","","","","","","","","","",""
"audio-keyboard-response","21","120619","0.0-4.0-1.0-0.0","2","1","brtpoohevar46ah","","null","","sounds/induction/right/pu_SWS.wav","","null","","","","","","","","","","","","","","","","","","","","","","","","","","","","","","","","","","","","","","","","","",""
"html-button-response","22","122393","0.0-4.0-1.0-1.0","2","1","brtpoohevar46ah","","1772.1000000238419","","What sound did you hear?","0","","","0","INDUCTION-JUDGMENT","right","1","","","","","","","","","","","","","","","","","","","","","","","","","","","","","","","","","","","","",""
"html-keyboard-response","23","123397","0.0-4.0-1.0-2.0","2","1","brtpoohevar46ah","","null","","<p style=""color:red;""><b>Incorrect!</b></p>","","null","","","","","","","","","","","","","","","","","","","","","","","","","","","","","","","","","","","","","","","","","",""
"audio-keyboard-response","24","124218","0.0-4.0-1.0-0.1","2","1","brtpoohevar46ah","","null","","sounds/induction/left/pu_SWS.wav","","null","","","","","","","","","","","","","","","","","","","","","","","","","","","","","","","","","","","","","","","","","",""
"html-button-response","25","125880","0.0-4.0-1.0-1.1","2","1","brtpoohevar46ah","","1660.699999988079","","What sound did you hear?","1","","","0","INDUCTION-JUDGMENT","left","0","","","","","","","","","","","","","","","","","","","","","","","","","","","","","","","","","","","","",""
"html-keyboard-response","26","126888","0.0-4.0-1.0-2.1","2","1","brtpoohevar46ah","","null","","<p style=""color:red;""><b>Incorrect!</b></p>","","null","","","","","","","","","","","","","","","","","","","","","","","","","","","","","","","","","","","","","","","","","",""
"audio-keyboard-response","27","127708","0.0-4.0-1.0-0.2","2","1","brtpoohevar46ah","","null","","sounds/induction/left/ru_SWS.wav","","null","","","","","","","","","","","","","","","","","","","","","","","","","","","","","","","","","","","","","","","","","",""
"html-button-response","28","129021","0.0-4.0-1.0-1.2","2","1","brtpoohevar46ah","","1312.199999988079","","What sound did you hear?","0","","","1","INDUCTION-JUDGMENT","left","0","","","","","","","","","","","","","","","","","","","","","","","","","","","","","","","","","","","","",""
"html-keyboard-response","29","130030","0.0-4.0-1.0-2.2","2","1","brtpoohevar46ah","","null","","<p style=""color:green;""><b>Correct!</b></p>","","null","","","","","","","","","","","","","","","","","","","","","","","","","","","","","","","","","","","","","","","","","",""
"audio-keyboard-response","30","130829","0.0-4.0-1.0-0.3","2","1","brtpoohevar46ah","","null","","sounds/induction/left/ti_SWS.wav","","null","","","","","","","","","","","","","","","","","","","","","","","","","","","","","","","","","","","","","","","","","",""
"html-button-response","31","132714","0.0-4.0-1.0-1.3","2","1","brtpoohevar46ah","","1884.199999988079","","What sound did you hear?","0","","","1","INDUCTION-JUDGMENT","left","0","","","","","","","","","","","","","","","","","","","","","","","","","","","","","","","","","","","","",""
"html-keyboard-response","32","133715","0.0-4.0-1.0-2.3","2","1","brtpoohevar46ah","","null","","<p style=""color:green;""><b>Correct!</b></p>","","null","","","","","","","","","","","","","","","","","","","","","","","","","","","","","","","","","","","","","","","","","",""
"audio-keyboard-response","33","134508","0.0-4.0-1.0-0.4","2","1","brtpoohevar46ah","","null","","sounds/induction/right/ru_SWS.wav","","null","","","","","","","","","","","","","","","","","","","","","","","","","","","","","","","","","","","","","","","","","",""
"html-button-response","34","135724","0.0-4.0-1.0-1.4","2","1","brtpoohevar46ah","","1214.8999999761581","","What sound did you hear?","1","","","1","INDUCTION-JUDGMENT","right","1","","","","","","","","","","","","","","","","","","","","","","","","","","","","","","","","","","","","",""
"html-keyboard-response","35","136731","0.0-4.0-1.0-2.4","2","1","brtpoohevar46ah","","null","","<p style=""color:green;""><b>Correct!</b></p>","","null","","","","","","","","","","","","","","","","","","","","","","","","","","","","","","","","","","","","","","","","","",""
"audio-keyboard-response","36","137538","0.0-4.0-1.0-0.5","2","1","brtpoohevar46ah","","null","","sounds/induction/right/me_SWS.wav","","null","","","","","","","","","","","","","","","","","","","","","","","","","","","","","","","","","","","","","","","","","",""
"html-button-response","37","138930","0.0-4.0-1.0-1.5","2","1","brtpoohevar46ah","","1390.699999988079","","What sound did you hear?","0","","","1","INDUCTION-JUDGMENT","right","0","","","","","","","","","","","","","","","","","","","","","","","","","","","","","","","","","","","","",""
"html-keyboard-response","38","139935","0.0-4.0-1.0-2.5","2","1","brtpoohevar46ah","","null","","<p style=""color:green;""><b>Correct!</b></p>","","null","","","","","","","","","","","","","","","","","","","","","","","","","","","","","","","","","","","","","","","","","",""
"audio-keyboard-response","39","140748","0.0-4.0-1.0-0.6","2","1","brtpoohevar46ah","","null","","sounds/induction/right/ni_SWS.wav","","null","","","","","","","","","","","","","","","","","","","","","","","","","","","","","","","","","","","","","","","","","",""
"html-button-response","40","141800","0.0-4.0-1.0-1.6","2","1","brtpoohevar46ah","","1051.199999988079","","What sound did you hear?","0","","","1","INDUCTION-JUDGMENT","right","0","","","","","","","","","","","","","","","","","","","","","","","","","","","","","","","","","","","","",""
"html-keyboard-response","41","142812","0.0-4.0-1.0-2.6","2","1","brtpoohevar46ah","","null","","<p style=""color:green;""><b>Correct!</b></p>","","null","","","","","","","","","","","","","","","","","","","","","","","","","","","","","","","","","","","","","","","","","",""
"audio-keyboard-response","42","143618","0.0-4.0-1.0-0.7","2","1","brtpoohevar46ah","","null","","sounds/induction/left/me_SWS.wav","","null","","","","","","","","","","","","","","","","","","","","","","","","","","","","","","","","","","","","","","","","","",""
"html-button-response","43","144581","0.0-4.0-1.0-1.7","2","1","brtpoohevar46ah","","961.8000000119209","","What sound did you hear?","1","","","1","INDUCTION-JUDGMENT","left","1","","","","","","","","","","","","","","","","","","","","","","","","","","","","","","","","","","","","",""
"html-keyboard-response","44","145586","0.0-4.0-1.0-2.7","2","1","brtpoohevar46ah","","null","","<p style=""color:green;""><b>Correct!</b></p>","","null","","","","","","","","","","","","","","","","","","","","","","","","","","","","","","","","","","","","","","","","","",""
"audio-keyboard-response","45","146388","0.0-4.0-1.0-0.8","2","1","brtpoohevar46ah","","null","","sounds/induction/left/ge_SWS.wav","","null","","","","","","","","","","","","","","","","","","","","","","","","","","","","","","","","","","","","","","","","","",""
"html-button-response","46","147871","0.0-4.0-1.0-1.8","2","1","brtpoohevar46ah","","1481.3999999761581","","What sound did you hear?","1","","","1","INDUCTION-JUDGMENT","left","1","","","","","","","","","","","","","","","","","","","","","","","","","","","","","","","","","","","","",""
"html-keyboard-response","47","148876","0.0-4.0-1.0-2.8","2","1","brtpoohevar46ah","","null","","<p style=""color:green;""><b>Correct!</b></p>","","null","","","","","","","","","","","","","","","","","","","","","","","","","","","","","","","","","","","","","","","","","",""
"audio-keyboard-response","48","149699","0.0-4.0-1.0-0.9","2","1","brtpoohevar46ah","","null","","sounds/induction/right/su_SWS.wav","","null","","","","","","","","","","","","","","","","","","","","","","","","","","","","","","","","","","","","","","","","","",""
"html-button-response","49","150867","0.0-4.0-1.0-1.9","2","1","brtpoohevar46ah","","1166.5","","What sound did you hear?","0","","","0","INDUCTION-JUDGMENT","right","1","","","","","","","","","","","","","","","","","","","","","","","","","","","","","","","","","","","","",""
"html-keyboard-response","50","151872","0.0-4.0-1.0-2.9","2","1","brtpoohevar46ah","","null","","<p style=""color:red;""><b>Incorrect!</b></p>","","null","","","","","","","","","","","","","","","","","","","","","","","","","","","","","","","","","","","","","","","","","",""
"audio-keyboard-response","51","152678","0.0-4.0-1.0-0.10","2","1","brtpoohevar46ah","","null","","sounds/induction/left/pu_SWS.wav","","null","","","","","","","","","","","","","","","","","","","","","","","","","","","","","","","","","","","","","","","","","",""
"html-button-response","52","154410","0.0-4.0-1.0-1.10","2","1","brtpoohevar46ah","","1731.0999999642372","","What sound did you hear?","0","","","1","INDUCTION-JUDGMENT","left","0","","","","","","","","","","","","","","","","","","","","","","","","","","","","","","","","","","","","",""
"html-keyboard-response","53","155411","0.0-4.0-1.0-2.10","2","1","brtpoohevar46ah","","null","","<p style=""color:green;""><b>Correct!</b></p>","","null","","","","","","","","","","","","","","","","","","","","","","","","","","","","","","","","","","","","","","","","","",""
"audio-keyboard-response","54","156228","0.0-4.0-1.0-0.11","2","1","brtpoohevar46ah","","null","","sounds/induction/left/su_SWS.wav","","null","","","","","","","","","","","","","","","","","","","","","","","","","","","","","","","","","","","","","","","","","",""
"html-button-response","55","157741","0.0-4.0-1.0-1.11","2","1","brtpoohevar46ah","","1511.6000000238419","","What sound did you hear?","0","","","1","INDUCTION-JUDGMENT","left","0","","","","","","","","","","","","","","","","","","","","","","","","","","","","","","","","","","","","",""
"html-keyboard-response","56","158755","0.0-4.0-1.0-2.11","2","1","brtpoohevar46ah","","null","","<p style=""color:green;""><b>Correct!</b></p>","","null","","","","","","","","","","","","","","","","","","","","","","","","","","","","","","","","","","","","","","","","","",""
"audio-keyboard-response","57","159578","0.0-4.0-1.0-0.12","2","1","brtpoohevar46ah","","null","","sounds/induction/left/fe_SWS.wav","","null","","","","","","","","","","","","","","","","","","","","","","","","","","","","","","","","","","","","","","","","","",""
"html-button-response","58","160385","0.0-4.0-1.0-1.12","2","1","brtpoohevar46ah","","806.1999999880791","","What sound did you hear?","0","","","0","INDUCTION-JUDGMENT","left","1","","","","","","","","","","","","","","","","","","","","","","","","","","","","","","","","","","","","",""
"html-keyboard-response","59","161399","0.0-4.0-1.0-2.12","2","1","brtpoohevar46ah","","null","","<p style=""color:red;""><b>Incorrect!</b></p>","","null","","","","","","","","","","","","","","","","","","","","","","","","","","","","","","","","","","","","","","","","","",""
"audio-keyboard-response","60","162218","0.0-4.0-1.0-0.13","2","1","brtpoohevar46ah","","null","","sounds/induction/left/fu_SWS.wav","","null","","","","","","","","","","","","","","","","","","","","","","","","","","","","","","","","","","","","","","","","","",""
"html-button-response","61","163144","0.0-4.0-1.0-1.13","2","1","brtpoohevar46ah","","924.5","","What sound did you hear?","1","","","1","INDUCTION-JUDGMENT","left","1","","","","","","","","","","","","","","","","","","","","","","","","","","","","","","","","","","","","",""
"html-keyboard-response","62","164153","0.0-4.0-1.0-2.13","2","1","brtpoohevar46ah","","null","","<p style=""color:green;""><b>Correct!</b></p>","","null","","","","","","","","","","","","","","","","","","","","","","","","","","","","","","","","","","","","","","","","","",""
"audio-keyboard-response","63","164978","0.0-4.0-1.0-0.14","2","1","brtpoohevar46ah","","null","","sounds/induction/right/ta_SWS.wav","","null","","","","","","","","","","","","","","","","","","","","","","","","","","","","","","","","","","","","","","","","","",""
"html-button-response","64","166097","0.0-4.0-1.0-1.14","2","1","brtpoohevar46ah","","1117.9000000357628","","What sound did you hear?","0","","","0","INDUCTION-JUDGMENT","right","1","","","","","","","","","","","","","","","","","","","","","","","","","","","","","","","","","","","","",""
"html-keyboard-response","65","167112","0.0-4.0-1.0-2.14","2","1","brtpoohevar46ah","","null","","<p style=""color:red;""><b>Incorrect!</b></p>","","null","","","","","","","","","","","","","","","","","","","","","","","","","","","","","","","","","","","","","","","","","",""
"audio-keyboard-response","66","167918","0.0-4.0-1.0-0.15","2","1","brtpoohevar46ah","","null","","sounds/induction/right/re_SWS.wav","","null","","","","","","","","","","","","","","","","","","","","","","","","","","","","","","","","","","","","","","","","","",""
"html-button-response","67","169020","0.0-4.0-1.0-1.15","2","1","brtpoohevar46ah","","1101.300000011921","","What sound did you hear?","1","","","1","INDUCTION-JUDGMENT","right","1","","","","","","","","","","","","","","","","","","","","","","","","","","","","","","","","","","","","",""
"html-keyboard-response","68","170022","0.0-4.0-1.0-2.15","2","1","brtpoohevar46ah","","null","","<p style=""color:green;""><b>Correct!</b></p>","","null","","","","","","","","","","","","","","","","","","","","","","","","","","","","","","","","","","","","","","","","","",""
"audio-keyboard-response","69","170828","0.0-4.0-1.0-0.16","2","1","brtpoohevar46ah","","null","","sounds/induction/left/fu_SWS.wav","","null","","","","","","","","","","","","","","","","","","","","","","","","","","","","","","","","","","","","","","","","","",""
"html-button-response","70","172661","0.0-4.0-1.0-1.16","2","1","brtpoohevar46ah","","1831.1000000238419","","What sound did you hear?","0","","","0","INDUCTION-JUDGMENT","left","1","","","","","","","","","","","","","","","","","","","","","","","","","","","","","","","","","","","","",""
"html-keyboard-response","71","173669","0.0-4.0-1.0-2.16","2","1","brtpoohevar46ah","","null","","<p style=""color:red;""><b>Incorrect!</b></p>","","null","","","","","","","","","","","","","","","","","","","","","","","","","","","","","","","","","","","","","","","","","",""
"audio-keyboard-response","72","174469","0.0-4.0-1.0-0.17","2","1","brtpoohevar46ah","","null","","sounds/induction/right/ko_SWS.wav","","null","","","","","","","","","","","","","","","","","","","","","","","","","","","","","","","","","","","","","","","","","",""
"html-button-response","73","175647","0.0-4.0-1.0-1.17","2","1","brtpoohevar46ah","","1176.800000011921","","What sound did you hear?","0","","","1","INDUCTION-JUDGMENT","right","0","","","","","","","","","","","","","","","","","","","","","","","","","","","","","","","","","","","","",""
"html-keyboard-response","74","176654","0.0-4.0-1.0-2.17","2","1","brtpoohevar46ah","","null","","<p style=""color:green;""><b>Correct!</b></p>","","null","","","","","","","","","","","","","","","","","","","","","","","","","","","","","","","","","","","","","","","","","",""
"audio-keyboard-response","75","177468","0.0-4.0-1.0-0.18","2","1","brtpoohevar46ah","","null","","sounds/induction/right/ge_SWS.wav","","null","","","","","","","","","","","","","","","","","","","","","","","","","","","","","","","","","","","","","","","","","",""
"html-button-response","76","178413","0.0-4.0-1.0-1.18","2","1","brtpoohevar46ah","","944.3000000119209","","What sound did you hear?","1","","","0","INDUCTION-JUDGMENT","right","0","","","","","","","","","","","","","","","","","","","","","","","","","","","","","","","","","","","","",""
"html-keyboard-response","77","179431","0.0-4.0-1.0-2.18","2","1","brtpoohevar46ah","","null","","<p style=""color:red;""><b>Incorrect!</b></p>","","null","","","","","","","","","","","","","","","","","","","","","","","","","","","","","","","","","","","","","","","","","",""
"audio-keyboard-response","78","180228","0.0-4.0-1.0-0.19","2","1","brtpoohevar46ah","","null","","sounds/induction/right/fu_SWS.wav","","null","","","","","","","","","","","","","","","","","","","","","","","","","","","","","","","","","","","","","","","","","",""
"html-button-response","79","181355","0.0-4.0-1.0-1.19","2","1","brtpoohevar46ah","","1126.1000000238419","","What sound did you hear?","0","","","1","INDUCTION-JUDGMENT","right","0","","","","","","","","","","","","","","","","","","","","","","","","","","","","","","","","","","","","",""
"html-keyboard-response","80","182363","0.0-4.0-1.0-2.19","2","1","brtpoohevar46ah","","null","","<p style=""color:green;""><b>Correct!</b></p>","","null","","","","","","","","","","","","","","","","","","","","","","","","","","","","","","","","","","","","","","","","","",""
"audio-keyboard-response","81","183159","0.0-4.0-1.0-0.20","2","1","brtpoohevar46ah","","null","","sounds/induction/right/ti_SWS.wav","","null","","","","","","","","","","","","","","","","","","","","","","","","","","","","","","","","","","","","","","","","","",""
"html-button-response","82","184150","0.0-4.0-1.0-1.20","2","1","brtpoohevar46ah","","990.8000000119209","","What sound did you hear?","0","","","0","INDUCTION-JUDGMENT","right","1","","","","","","","","","","","","","","","","","","","","","","","","","","","","","","","","","","","","",""
"html-keyboard-response","83","185162","0.0-4.0-1.0-2.20","2","1","brtpoohevar46ah","","null","","<p style=""color:red;""><b>Incorrect!</b></p>","","null","","","","","","","","","","","","","","","","","","","","","","","","","","","","","","","","","","","","","","","","","",""
"audio-keyboard-response","84","185959","0.0-4.0-1.0-0.21","2","1","brtpoohevar46ah","","null","","sounds/induction/left/fe_SWS.wav","","null","","","","","","","","","","","","","","","","","","","","","","","","","","","","","","","","","","","","","","","","","",""
"html-button-response","85","187195","0.0-4.0-1.0-1.21","2","1","brtpoohevar46ah","","1234.5999999642372","","What sound did you hear?","0","","","0","INDUCTION-JUDGMENT","left","1","","","","","","","","","","","","","","","","","","","","","","","","","","","","","","","","","","","","",""
"html-keyboard-response","86","188209","0.0-4.0-1.0-2.21","2","1","brtpoohevar46ah","","null","","<p style=""color:red;""><b>Incorrect!</b></p>","","null","","","","","","","","","","","","","","","","","","","","","","","","","","","","","","","","","","","","","","","","","",""
"audio-keyboard-response","87","189028","0.0-4.0-1.0-0.22","2","1","brtpoohevar46ah","","null","","sounds/induction/right/ko_SWS.wav","","null","","","","","","","","","","","","","","","","","","","","","","","","","","","","","","","","","","","","","","","","","",""
"html-button-response","88","190168","0.0-4.0-1.0-1.22","2","1","brtpoohevar46ah","","1138.800000011921","","What sound did you hear?","1","","","0","INDUCTION-JUDGMENT","right","0","","","","","","","","","","","","","","","","","","","","","","","","","","","","","","","","","","","","",""
"html-keyboard-response","89","191179","0.0-4.0-1.0-2.22","2","1","brtpoohevar46ah","","null","","<p style=""color:red;""><b>Incorrect!</b></p>","","null","","","","","","","","","","","","","","","","","","","","","","","","","","","","","","","","","","","","","","","","","",""
"audio-keyboard-response","90","191988","0.0-4.0-1.0-0.23","2","1","brtpoohevar46ah","","null","","sounds/induction/left/re_SWS.wav","","null","","","","","","","","","","","","","","","","","","","","","","","","","","","","","","","","","","","","","","","","","",""
"html-button-response","91","193005","0.0-4.0-1.0-1.23","2","1","brtpoohevar46ah","","1015.6999999880791","","What sound did you hear?","0","","","1","INDUCTION-JUDGMENT","left","0","","","","","","","","","","","","","","","","","","","","","","","","","","","","","","","","","","","","",""
"html-keyboard-response","92","194022","0.0-4.0-1.0-2.23","2","1","brtpoohevar46ah","","null","","<p style=""color:green;""><b>Correct!</b></p>","","null","","","","","","","","","","","","","","","","","","","","","","","","","","","","","","","","","","","","","","","","","",""
"audio-keyboard-response","93","194828","0.0-4.0-1.0-0.24","2","1","brtpoohevar46ah","","null","","sounds/induction/left/su_SWS.wav","","null","","","","","","","","","","","","","","","","","","","","","","","","","","","","","","","","","","","","","","","","","",""
"html-button-response","94","196069","0.0-4.0-1.0-1.24","2","1","brtpoohevar46ah","","1240.1000000238419","","What sound did you hear?","0","","","1","INDUCTION-JUDGMENT","left","0","","","","","","","","","","","","","","","","","","","","","","","","","","","","","","","","","","","","",""
"html-keyboard-response","95","197073","0.0-4.0-1.0-2.24","2","1","brtpoohevar46ah","","null","","<p style=""color:green;""><b>Correct!</b></p>","","null","","","","","","","","","","","","","","","","","","","","","","","","","","","","","","","","","","","","","","","","","",""
"audio-keyboard-response","96","197878","0.0-4.0-1.0-0.25","2","1","brtpoohevar46ah","","null","","sounds/induction/right/fu_SWS.wav","","null","","","","","","","","","","","","","","","","","","","","","","","","","","","","","","","","","","","","","","","","","",""
"html-button-response","97","198771","0.0-4.0-1.0-1.25","2","1","brtpoohevar46ah","","892.5999999642372","","What sound did you hear?","0","","","1","INDUCTION-JUDGMENT","right","0","","","","","","","","","","","","","","","","","","","","","","","","","","","","","","","","","","","","",""
"html-keyboard-response","98","199775","0.0-4.0-1.0-2.25","2","1","brtpoohevar46ah","","null","","<p style=""color:green;""><b>Correct!</b></p>","","null","","","","","","","","","","","","","","","","","","","","","","","","","","","","","","","","","","","","","","","","","",""
"audio-keyboard-response","99","200589","0.0-4.0-1.0-0.26","2","1","brtpoohevar46ah","","null","","sounds/induction/right/fe_SWS.wav","","null","","","","","","","","","","","","","","","","","","","","","","","","","","","","","","","","","","","","","","","","","",""
"html-button-response","100","201509","0.0-4.0-1.0-1.26","2","1","brtpoohevar46ah","","919.1999999880791","","What sound did you hear?","0","","","1","INDUCTION-JUDGMENT","right","0","","","","","","","","","","","","","","","","","","","","","","","","","","","","","","","","","","","","",""
"html-keyboard-response","101","202513","0.0-4.0-1.0-2.26","2","1","brtpoohevar46ah","","null","","<p style=""color:green;""><b>Correct!</b></p>","","null","","","","","","","","","","","","","","","","","","","","","","","","","","","","","","","","","","","","","","","","","",""
"audio-keyboard-response","102","203339","0.0-4.0-1.0-0.27","2","1","brtpoohevar46ah","","null","","sounds/induction/right/ge_SWS.wav","","null","","","","","","","","","","","","","","","","","","","","","","","","","","","","","","","","","","","","","","","","","",""
"html-button-response","103","204728","0.0-4.0-1.0-1.27","2","1","brtpoohevar46ah","","1387.699999988079","","What sound did you hear?","1","","","0","INDUCTION-JUDGMENT","right","0","","","","","","","","","","","","","","","","","","","","","","","","","","","","","","","","","","","","",""
"html-keyboard-response","104","205732","0.0-4.0-1.0-2.27","2","1","brtpoohevar46ah","","null","","<p style=""color:red;""><b>Incorrect!</b></p>","","null","","","","","","","","","","","","","","","","","","","","","","","","","","","","","","","","","","","","","","","","","",""
"audio-keyboard-response","105","206539","0.0-4.0-1.0-0.28","2","1","brtpoohevar46ah","","null","","sounds/induction/right/ni_SWS.wav","","null","","","","","","","","","","","","","","","","","","","","","","","","","","","","","","","","","","","","","","","","","",""
"html-button-response","106","207580","0.0-4.0-1.0-1.28","2","1","brtpoohevar46ah","","1040.5","","What sound did you hear?","1","","","0","INDUCTION-JUDGMENT","right","0","","","","","","","","","","","","","","","","","","","","","","","","","","","","","","","","","","","","",""
"html-keyboard-response","107","208587","0.0-4.0-1.0-2.28","2","1","brtpoohevar46ah","","null","","<p style=""color:red;""><b>Incorrect!</b></p>","","null","","","","","","","","","","","","","","","","","","","","","","","","","","","","","","","","","","","","","","","","","",""
"audio-keyboard-response","108","209398","0.0-4.0-1.0-0.29","2","1","brtpoohevar46ah","","null","","sounds/induction/left/ru_SWS.wav","","null","","","","","","","","","","","","","","","","","","","","","","","","","","","","","","","","","","","","","","","","","",""
"html-button-response","109","210540","0.0-4.0-1.0-1.29","2","1","brtpoohevar46ah","","1140.8999999761581","","What sound did you hear?","0","","","1","INDUCTION-JUDGMENT","left","0","","","","","","","","","","","","","","","","","","","","","","","","","","","","","","","","","","","","",""
"html-keyboard-response","110","211543","0.0-4.0-1.0-2.29","2","1","brtpoohevar46ah","","null","","<p style=""color:green;""><b>Correct!</b></p>","","null","","","","","","","","","","","","","","","","","","","","","","","","","","","","","","","","","","","","","","","","","",""
"audio-keyboard-response","111","212348","0.0-4.0-1.0-0.30","2","1","brtpoohevar46ah","","null","","sounds/induction/right/me_SWS.wav","","null","","","","","","","","","","","","","","","","","","","","","","","","","","","","","","","","","","","","","","","","","",""
"html-button-response","112","213147","0.0-4.0-1.0-1.30","2","1","brtpoohevar46ah","","798.3000000119209","","What sound did you hear?","0","","","1","INDUCTION-JUDGMENT","right","0","","","","","","","","","","","","","","","","","","","","","","","","","","","","","","","","","","","","",""
"html-keyboard-response","113","214156","0.0-4.0-1.0-2.30","2","1","brtpoohevar46ah","","null","","<p style=""color:green;""><b>Correct!</b></p>","","null","","","","","","","","","","","","","","","","","","","","","","","","","","","","","","","","","","","","","","","","","",""
"audio-keyboard-response","114","214948","0.0-4.0-1.0-0.31","2","1","brtpoohevar46ah","","null","","sounds/induction/left/ta_SWS.wav","","null","","","","","","","","","","","","","","","","","","","","","","","","","","","","","","","","","","","","","","","","","",""
"html-button-response","115","216512","0.0-4.0-1.0-1.31","2","1","brtpoohevar46ah","","1563.1000000238419","","What sound did you hear?","1","","","0","INDUCTION-JUDGMENT","left","0","","","","","","","","","","","","","","","","","","","","","","","","","","","","","","","","","","","","",""
"html-keyboard-response","116","217522","0.0-4.0-1.0-2.31","2","1","brtpoohevar46ah","","null","","<p style=""color:red;""><b>Incorrect!</b></p>","","null","","","","","","","","","","","","","","","","","","","","","","","","","","","","","","","","","","","","","","","","","",""
"audio-keyboard-response","117","218338","0.0-4.0-1.0-0.32","2","1","brtpoohevar46ah","","null","","sounds/induction/right/ti_SWS.wav","","null","","","","","","","","","","","","","","","","","","","","","","","","","","","","","","","","","","","","","","","","","",""
"html-button-response","118","219454","0.0-4.0-1.0-1.32","2","1","brtpoohevar46ah","","1114.699999988079","","What sound did you hear?","1","","","1","INDUCTION-JUDGMENT","right","1","","","","","","","","","","","","","","","","","","","","","","","","","","","","","","","","","","","","",""
"html-keyboard-response","119","220459","0.0-4.0-1.0-2.32","2","1","brtpoohevar46ah","","null","","<p style=""color:green;""><b>Correct!</b></p>","","null","","","","","","","","","","","","","","","","","","","","","","","","","","","","","","","","","","","","","","","","","",""
"audio-keyboard-response","120","221268","0.0-4.0-1.0-0.33","2","1","brtpoohevar46ah","","null","","sounds/induction/right/fe_SWS.wav","","null","","","","","","","","","","","","","","","","","","","","","","","","","","","","","","","","","","","","","","","","","",""
"html-button-response","121","222821","0.0-4.0-1.0-1.33","2","1","brtpoohevar46ah","","1552","","What sound did you hear?","0","","","1","INDUCTION-JUDGMENT","right","0","","","","","","","","","","","","","","","","","","","","","","","","","","","","","","","","","","","","",""
"html-keyboard-response","122","223833","0.0-4.0-1.0-2.33","2","1","brtpoohevar46ah","","null","","<p style=""color:green;""><b>Correct!</b></p>","","null","","","","","","","","","","","","","","","","","","","","","","","","","","","","","","","","","","","","","","","","","",""
"audio-keyboard-response","123","224628","0.0-4.0-1.0-0.34","2","1","brtpoohevar46ah","","null","","sounds/induction/left/me_SWS.wav","","null","","","","","","","","","","","","","","","","","","","","","","","","","","","","","","","","","","","","","","","","","",""
"html-button-response","124","225451","0.0-4.0-1.0-1.34","2","1","brtpoohevar46ah","","822","","What sound did you hear?","1","","","1","INDUCTION-JUDGMENT","left","1","","","","","","","","","","","","","","","","","","","","","","","","","","","","","","","","","","","","",""
"html-keyboard-response","125","226453","0.0-4.0-1.0-2.34","2","1","brtpoohevar46ah","","null","","<p style=""color:green;""><b>Correct!</b></p>","","null","","","","","","","","","","","","","","","","","","","","","","","","","","","","","","","","","","","","","","","","","",""
"audio-keyboard-response","126","227268","0.0-4.0-1.0-0.35","2","1","brtpoohevar46ah","","null","","sounds/induction/left/ko_SWS.wav","","null","","","","","","","","","","","","","","","","","","","","","","","","","","","","","","","","","","","","","","","","","",""
"html-button-response","127","228289","0.0-4.0-1.0-1.35","2","1","brtpoohevar46ah","","1020.7999999523163","","What sound did you hear?","1","","","1","INDUCTION-JUDGMENT","left","1","","","","","","","","","","","","","","","","","","","","","","","","","","","","","","","","","","","","",""
"html-keyboard-response","128","229290","0.0-4.0-1.0-2.35","2","1","brtpoohevar46ah","","null","","<p style=""color:green;""><b>Correct!</b></p>","","null","","","","","","","","","","","","","","","","","","","","","","","","","","","","","","","","","","","","","","","","","",""
"audio-keyboard-response","129","230098","0.0-4.0-1.0-0.36","2","1","brtpoohevar46ah","","null","","sounds/induction/right/ru_SWS.wav","","null","","","","","","","","","","","","","","","","","","","","","","","","","","","","","","","","","","","","","","","","","",""
"html-button-response","130","231001","0.0-4.0-1.0-1.36","2","1","brtpoohevar46ah","","902.4000000357628","","What sound did you hear?","1","","","1","INDUCTION-JUDGMENT","right","1","","","","","","","","","","","","","","","","","","","","","","","","","","","","","","","","","","","","",""
"html-keyboard-response","131","232004","0.0-4.0-1.0-2.36","2","1","brtpoohevar46ah","","null","","<p style=""color:green;""><b>Correct!</b></p>","","null","","","","","","","","","","","","","","","","","","","","","","","","","","","","","","","","","","","","","","","","","",""
"audio-keyboard-response","132","232829","0.0-4.0-1.0-0.37","2","1","brtpoohevar46ah","","null","","sounds/induction/left/ni_SWS.wav","","null","","","","","","","","","","","","","","","","","","","","","","","","","","","","","","","","","","","","","","","","","",""
"html-button-response","133","233891","0.0-4.0-1.0-1.37","2","1","brtpoohevar46ah","","1061","","What sound did you hear?","0","","","0","INDUCTION-JUDGMENT","left","1","","","","","","","","","","","","","","","","","","","","","","","","","","","","","","","","","","","","",""
"html-keyboard-response","134","234907","0.0-4.0-1.0-2.37","2","1","brtpoohevar46ah","","null","","<p style=""color:red;""><b>Incorrect!</b></p>","","null","","","","","","","","","","","","","","","","","","","","","","","","","","","","","","","","","","","","","","","","","",""
"audio-keyboard-response","135","235720","0.0-4.0-1.0-0.38","2","1","brtpoohevar46ah","","null","","sounds/induction/left/ti_SWS.wav","","null","","","","","","","","","","","","","","","","","","","","","","","","","","","","","","","","","","","","","","","","","",""
"html-button-response","136","236657","0.0-4.0-1.0-1.38","2","1","brtpoohevar46ah","","936.3000000119209","","What sound did you hear?","1","","","0","INDUCTION-JUDGMENT","left","0","","","","","","","","","","","","","","","","","","","","","","","","","","","","","","","","","","","","",""
"html-keyboard-response","137","237670","0.0-4.0-1.0-2.38","2","1","brtpoohevar46ah","","null","","<p style=""color:red;""><b>Incorrect!</b></p>","","null","","","","","","","","","","","","","","","","","","","","","","","","","","","","","","","","","","","","","","","","","",""
"audio-keyboard-response","138","238478","0.0-4.0-1.0-0.39","2","1","brtpoohevar46ah","","null","","sounds/induction/left/re_SWS.wav","","null","","","","","","","","","","","","","","","","","","","","","","","","","","","","","","","","","","","","","","","","","",""
"html-button-response","139","239223","0.0-4.0-1.0-1.39","2","1","brtpoohevar46ah","","743.8999999761581","","What sound did you hear?","0","","","1","INDUCTION-JUDGMENT","left","0","","","","","","","","","","","","","","","","","","","","","","","","","","","","","","","","","","","","",""
"html-keyboard-response","140","240224","0.0-4.0-1.0-2.39","2","1","brtpoohevar46ah","","null","","<p style=""color:green;""><b>Correct!</b></p>","","null","","","","","","","","","","","","","","","","","","","","","","","","","","","","","","","","","","","","","","","","","",""
"audio-keyboard-response","141","241028","0.0-4.0-1.0-0.40","2","1","brtpoohevar46ah","","null","","sounds/induction/left/ni_SWS.wav","","null","","","","","","","","","","","","","","","","","","","","","","","","","","","","","","","","","","","","","","","","","",""
"html-button-response","142","242541","0.0-4.0-1.0-1.40","2","1","brtpoohevar46ah","","1511.800000011921","","What sound did you hear?","0","","","0","INDUCTION-JUDGMENT","left","1","","","","","","","","","","","","","","","","","","","","","","","","","","","","","","","","","","","","",""
"html-keyboard-response","143","243546","0.0-4.0-1.0-2.40","2","1","brtpoohevar46ah","","null","","<p style=""color:red;""><b>Incorrect!</b></p>","","null","","","","","","","","","","","","","","","","","","","","","","","","","","","","","","","","","","","","","","","","","",""
"audio-keyboard-response","144","244358","0.0-4.0-1.0-0.41","2","1","brtpoohevar46ah","","null","","sounds/induction/right/re_SWS.wav","","null","","","","","","","","","","","","","","","","","","","","","","","","","","","","","","","","","","","","","","","","","",""
"html-button-response","145","245893","0.0-4.0-1.0-1.41","2","1","brtpoohevar46ah","","1534.199999988079","","What sound did you hear?","0","","","0","INDUCTION-JUDGMENT","right","1","","","","","","","","","","","","","","","","","","","","","","","","","","","","","","","","","","","","",""
"html-keyboard-response","146","246895","0.0-4.0-1.0-2.41","2","1","brtpoohevar46ah","","null","","<p style=""color:red;""><b>Incorrect!</b></p>","","null","","","","","","","","","","","","","","","","","","","","","","","","","","","","","","","","","","","","","","","","","",""
"audio-keyboard-response","147","247708","0.0-4.0-1.0-0.42","2","1","brtpoohevar46ah","","null","","sounds/induction/left/ko_SWS.wav","","null","","","","","","","","","","","","","","","","","","","","","","","","","","","","","","","","","","","","","","","","","",""
"html-button-response","148","249117","0.0-4.0-1.0-1.42","2","1","brtpoohevar46ah","","1407.5","","What sound did you hear?","1","","","1","INDUCTION-JUDGMENT","left","1","","","","","","","","","","","","","","","","","","","","","","","","","","","","","","","","","","","","",""
"html-keyboard-response","149","250125","0.0-4.0-1.0-2.42","2","1","brtpoohevar46ah","","null","","<p style=""color:green;""><b>Correct!</b></p>","","null","","","","","","","","","","","","","","","","","","","","","","","","","","","","","","","","","","","","","","","","","",""
"audio-keyboard-response","150","250918","0.0-4.0-1.0-0.43","2","1","brtpoohevar46ah","","null","","sounds/induction/right/ta_SWS.wav","","null","","","","","","","","","","","","","","","","","","","","","","","","","","","","","","","","","","","","","","","","","",""
"html-button-response","151","252810","0.0-4.0-1.0-1.43","2","1","brtpoohevar46ah","","1891.199999988079","","What sound did you hear?","0","","","0","INDUCTION-JUDGMENT","right","1","","","","","","","","","","","","","","","","","","","","","","","","","","","","","","","","","","","","",""
"html-keyboard-response","152","253815","0.0-4.0-1.0-2.43","2","1","brtpoohevar46ah","","null","","<p style=""color:red;""><b>Incorrect!</b></p>","","null","","","","","","","","","","","","","","","","","","","","","","","","","","","","","","","","","","","","","","","","","",""
"audio-keyboard-response","153","254629","0.0-4.0-1.0-0.44","2","1","brtpoohevar46ah","","null","","sounds/induction/left/ta_SWS.wav","","null","","","","","","","","","","","","","","","","","","","","","","","","","","","","","","","","","","","","","","","","","",""
"html-button-response","154","255484","0.0-4.0-1.0-1.44","2","1","brtpoohevar46ah","","853.8000000119209","","What sound did you hear?","1","","","0","INDUCTION-JUDGMENT","left","0","","","","","","","","","","","","","","","","","","","","","","","","","","","","","","","","","","","","",""
"html-keyboard-response","155","256494","0.0-4.0-1.0-2.44","2","1","brtpoohevar46ah","","null","","<p style=""color:red;""><b>Incorrect!</b></p>","","null","","","","","","","","","","","","","","","","","","","","","","","","","","","","","","","","","","","","","","","","","",""
"audio-keyboard-response","156","257308","0.0-4.0-1.0-0.45","2","1","brtpoohevar46ah","","null","","sounds/induction/left/ge_SWS.wav","","null","","","","","","","","","","","","","","","","","","","","","","","","","","","","","","","","","","","","","","","","","",""
"html-button-response","157","259102","0.0-4.0-1.0-1.45","2","1","brtpoohevar46ah","","1792.7000000476837","","What sound did you hear?","1","","","1","INDUCTION-JUDGMENT","left","1","","","","","","","","","","","","","","","","","","","","","","","","","","","","","","","","","","","","",""
"html-keyboard-response","158","260112","0.0-4.0-1.0-2.45","2","1","brtpoohevar46ah","","null","","<p style=""color:green;""><b>Correct!</b></p>","","null","","","","","","","","","","","","","","","","","","","","","","","","","","","","","","","","","","","","","","","","","",""
"audio-keyboard-response","159","260918","0.0-4.0-1.0-0.46","2","1","brtpoohevar46ah","","null","","sounds/induction/right/su_SWS.wav","","null","","","","","","","","","","","","","","","","","","","","","","","","","","","","","","","","","","","","","","","","","",""
"html-button-response","160","262323","0.0-4.0-1.0-1.46","2","1","brtpoohevar46ah","","1404.699999988079","","What sound did you hear?","0","","","0","INDUCTION-JUDGMENT","right","1","","","","","","","","","","","","","","","","","","","","","","","","","","","","","","","","","","","","",""
"html-keyboard-response","161","263327","0.0-4.0-1.0-2.46","2","1","brtpoohevar46ah","","null","","<p style=""color:red;""><b>Incorrect!</b></p>","","null","","","","","","","","","","","","","","","","","","","","","","","","","","","","","","","","","","","","","","","","","",""
"audio-keyboard-response","162","264118","0.0-4.0-1.0-0.47","2","1","brtpoohevar46ah","","null","","sounds/induction/right/pu_SWS.wav","","null","","","","","","","","","","","","","","","","","","","","","","","","","","","","","","","","","","","","","","","","","",""
"html-button-response","163","265360","0.0-4.0-1.0-1.47","2","1","brtpoohevar46ah","","1240.9000000357628","","What sound did you hear?","1","","","1","INDUCTION-JUDGMENT","right","1","","","","","","","","","","","","","","","","","","","","","","","","","","","","","","","","","","","","",""
"html-keyboard-response","164","266361","0.0-4.0-1.0-2.47","2","1","brtpoohevar46ah","","null","","<p style=""color:green;""><b>Correct!</b></p>","","null","","","","","","","","","","","","","","","","","","","","","","","","","","","","","","","","","","","","","","","","","",""
"html-button-response","165","272780","0.0-5.0-0.0","2","1","brtpoohevar46ah","","5910.600000023842","","<p>Thank you for your answers.</p><p>You will now listen to similar sounds. The main difference is that the sounds will be longer and will make up complete sentences.</p><p>Please listen carefully to each sentence. After each sentence, you will be asked to type back what you heard to the best of your ability. After you provide your response, you will be given feedback about the correct answer.</p><p>There are 10 sentences in total.","0","","","","","","","","","","","","","","","","","","","","","","","","","","","","","","","","","","","","","","","","","","",""
"audio-keyboard-response","166","275509","0.0-5.0-1.0-0.0","2","1","brtpoohevar46ah","","null","","sounds/sentences/right/14_09_cfSWS.wav","","null","","","","","","","","","","","","","","","","","","","","","","","","","","","","","","","","","","","","","","","","","",""
"sentence-resp","167","291891","0.0-5.0-1.0-1.0","2","1","brtpoohevar46ah","","16379","","","","","","","SWS-SENT-RESPONSE","","","{""Q0"":""ree poo rue ta ree\n""}","We frown when events take a bad turn.","frown,events,take,bad,turn","REE POO RUE TA REE ","0","0","0","0","0","0","0","","","","","","","","","","","","","","","","","","","","","","","","","",""
"html-keyboard-response","168","293157","0.0-5.0-1.0-2.0","2","1","brtpoohevar46ah","","null","","","","null","","","","","","","","","","","","","","","","","","","","","","","","","","","","","","","","","","","","","","","","","",""
"audio-keyboard-response","169","295378","0.0-5.0-1.0-3.0","2","1","brtpoohevar46ah","","null","","sounds/sentences/right/14_09_cfSWS.wav","","null","","","","","","","","","","","","","","","","","","","","","","","","","","","","","","","","","","","","","","","","","",""
"html-keyboard-response","170","296385","0.0-5.0-1.0-4.0","2","1","brtpoohevar46ah","","null","","","","null","","","","","","","","","","","","","","","","","","","","","","","","","","","","","","","","","","","","","","","","","",""
"html-button-response","171","298438","0.0-5.0-1.0-5.0","2","1","brtpoohevar46ah","","1536.800000011921","","<p>Press the button below when you are ready to continue.</p>","0","","","","","","","","","","","","","","","","","","","","","","","","","","","","","","","","","","","","","","","","","","",""
"audio-keyboard-response","172","301459","0.0-5.0-1.0-0.1","2","1","brtpoohevar46ah","","null","","sounds/sentences/right/14_10_cfSWS.wav","","null","","","","","","","","","","","","","","","","","","","","","","","","","","","","","","","","","","","","","","","","","",""
"sentence-resp","173","314282","0.0-5.0-1.0-1.1","2","1","brtpoohevar46ah","","12820","","","","","","","SWS-SENT-RESPONSE","","","{""Q0"":""we like to go when we hear her come""}","Port is a strong wine with a smoky taste.","port,strong,wine,smoky,taste","WE LIKE TO GO WHEN WE HEAR HER COME","0","0","0","0","0","0","0","","","","","","","","","","","","","","","","","","","","","","","","","",""
"html-keyboard-response","174","315561","0.0-5.0-1.0-2.1","2","1","brtpoohevar46ah","","null","","","","null","","","","","","","","","","","","","","","","","","","","","","","","","","","","","","","","","","","","","","","","","",""
"audio-keyboard-response","175","318079","0.0-5.0-1.0-3.1","2","1","brtpoohevar46ah","","null","","sounds/sentences/right/14_10_cfSWS.wav","","null","","","","","","","","","","","","","","","","","","","","","","","","","","","","","","","","","","","","","","","","","",""
"html-keyboard-response","176","319081","0.0-5.0-1.0-4.1","2","1","brtpoohevar46ah","","null","","","","null","","","","","","","","","","","","","","","","","","","","","","","","","","","","","","","","","","","","","","","","","",""
"html-button-response","177","322394","0.0-5.0-1.0-5.1","2","1","brtpoohevar46ah","","2795.899999976158","","<p>Press the button below when you are ready to continue.</p>","0","","","","","","","","","","","","","","","","","","","","","","","","","","","","","","","","","","","","","","","","","","",""
"audio-keyboard-response","178","325219","0.0-5.0-1.0-0.2","2","1","brtpoohevar46ah","","null","","sounds/sentences/left/14_02_cfSWS.wav","","null","","","","","","","","","","","","","","","","","","","","","","","","","","","","","","","","","","","","","","","","","",""
"sentence-resp","179","333650","0.0-5.0-1.0-1.2","2","1","brtpoohevar46ah","","8428","","","","","","","SWS-SENT-RESPONSE","","","{""Q0"":""me loves to go out""}","He said the same phrase thirty times.","said,same,phrase,thirty,times","ME LOVES TO GO OUT","0","0","0","0","0","0","0","","","","","","","","","","","","","","","","","","","","","","","","","",""
"html-keyboard-response","180","334930","0.0-5.0-1.0-2.2","2","1","brtpoohevar46ah","","null","","","","null","","","","","","","","","","","","","","","","","","","","","","","","","","","","","","","","","","","","","","","","","",""
"audio-keyboard-response","181","337249","0.0-5.0-1.0-3.2","2","1","brtpoohevar46ah","","null","","sounds/sentences/left/14_02_cfSWS.wav","","null","","","","","","","","","","","","","","","","","","","","","","","","","","","","","","","","","","","","","","","","","",""
"html-keyboard-response","182","338254","0.0-5.0-1.0-4.2","2","1","brtpoohevar46ah","","null","","","","null","","","","","","","","","","","","","","","","","","","","","","","","","","","","","","","","","","","","","","","","","",""
"html-button-response","183","339670","0.0-5.0-1.0-5.2","2","1","brtpoohevar46ah","","901.0999999642372","","<p>Press the button below when you are ready to continue.</p>","0","","","","","","","","","","","","","","","","","","","","","","","","","","","","","","","","","","","","","","","","","","",""
"audio-keyboard-response","184","342789","0.0-5.0-1.0-0.3","2","1","brtpoohevar46ah","","null","","sounds/sentences/left/14_01_cfSWS.wav","","null","","","","","","","","","","","","","","","","","","","","","","","","","","","","","","","","","","","","","","","","","",""
"sentence-resp","185","351179","0.0-5.0-1.0-1.3","2","1","brtpoohevar46ah","","8388","","","","","","","SWS-SENT-RESPONSE","","","{""Q0"":""he said he would let me go outside""}","A cramp is no small danger on a swim.","cramp,no,small,danger,swim","HE SAID HE WOULD LET ME GO OUTSIDE","0","0","0","0","0","0","0","","","","","","","","","","","","","","","","","","","","","","","","","",""
"html-keyboard-response","186","352436","0.0-5.0-1.0-2.3","2","1","brtpoohevar46ah","","null","","","","null","","","","","","","","","","","","","","","","","","","","","","","","","","","","","","","","","","","","","","","","","",""
"audio-keyboard-response","187","355050","0.0-5.0-1.0-3.3","2","1","brtpoohevar46ah","","null","","sounds/sentences/left/14_01_cfSWS.wav","","null","","","","","","","","","","","","","","","","","","","","","","","","","","","","","","","","","","","","","","","","","",""
"html-keyboard-response","188","356061","0.0-5.0-1.0-4.3","2","1","brtpoohevar46ah","","null","","","","null","","","","","","","","","","","","","","","","","","","","","","","","","","","","","","","","","","","","","","","","","",""
"html-button-response","189","357243","0.0-5.0-1.0-5.3","2","1","brtpoohevar46ah","","666.5999999642372","","<p>Press the button below when you are ready to continue.</p>","0","","","","","","","","","","","","","","","","","","","","","","","","","","","","","","","","","","","","","","","","","","",""
"audio-keyboard-response","190","360010","0.0-5.0-1.0-0.4","2","1","brtpoohevar46ah","","null","","sounds/sentences/right/14_08_cfSWS.wav","","null","","","","","","","","","","","","","","","","","","","","","","","","","","","","","","","","","","","","","","","","","",""
"sentence-resp","191","370300","0.0-5.0-1.0-1.4","2","1","brtpoohevar46ah","","10289","","","","","","","SWS-SENT-RESPONSE","","","{""Q0"":""please do not be alarmed from the swim""}","Clothes and lodging are free to new men.","clothes,lodging,free,new,men","PLEASE DO NOT BE ALARMED FROM THE SWIM","0","0","0","0","0","0","0","","","","","","","","","","","","","","","","","","","","","","","","","",""
"html-keyboard-response","192","371563","0.0-5.0-1.0-2.4","2","1","brtpoohevar46ah","","null","","","","null","","","","","","","","","","","","","","","","","","","","","","","","","","","","","","","","","","","","","","","","","",""
"audio-keyboard-response","193","373819","0.0-5.0-1.0-3.4","2","1","brtpoohevar46ah","","null","","sounds/sentences/right/14_08_cfSWS.wav","","null","","","","","","","","","","","","","","","","","","","","","","","","","","","","","","","","","","","","","","","","","",""
"html-keyboard-response","194","374834","0.0-5.0-1.0-4.4","2","1","brtpoohevar46ah","","null","","","","null","","","","","","","","","","","","","","","","","","","","","","","","","","","","","","","","","","","","","","","","","",""
"html-button-response","195","376263","0.0-5.0-1.0-5.4","2","1","brtpoohevar46ah","","926.8000000119209","","<p>Press the button below when you are ready to continue.</p>","0","","","","","","","","","","","","","","","","","","","","","","","","","","","","","","","","","","","","","","","","","","",""
"audio-keyboard-response","196","378859","0.0-5.0-1.0-0.5","2","1","brtpoohevar46ah","","null","","sounds/sentences/left/14_03_cfSWS.wav","","null","","","","","","","","","","","","","","","","","","","","","","","","","","","","","","","","","","","","","","","","","",""
"sentence-resp","197","386792","0.0-5.0-1.0-1.5","2","1","brtpoohevar46ah","","7931","","","","","","","SWS-SENT-RESPONSE","","","{""Q0"":""lodging is freezing sometimes""}","Pluck the bright rose without leaves.","pluck,bright,rose,without,leaves","LODGING IS FREEZING SOMETIMES","0","0","0","0","0","0","0","","","","","","","","","","","","","","","","","","","","","","","","","",""
"html-keyboard-response","198","388062","0.0-5.0-1.0-2.5","2","1","brtpoohevar46ah","","null","","","","null","","","","","","","","","","","","","","","","","","","","","","","","","","","","","","","","","","","","","","","","","",""
"audio-keyboard-response","199","390149","0.0-5.0-1.0-3.5","2","1","brtpoohevar46ah","","null","","sounds/sentences/left/14_03_cfSWS.wav","","null","","","","","","","","","","","","","","","","","","","","","","","","","","","","","","","","","","","","","","","","","",""
"html-keyboard-response","200","391162","0.0-5.0-1.0-4.5","2","1","brtpoohevar46ah","","null","","","","null","","","","","","","","","","","","","","","","","","","","","","","","","","","","","","","","","","","","","","","","","",""
"html-button-response","201","392642","0.0-5.0-1.0-5.5","2","1","brtpoohevar46ah","","976.6999999880791","","<p>Press the button below when you are ready to continue.</p>","0","","","","","","","","","","","","","","","","","","","","","","","","","","","","","","","","","","","","","","","","","","",""
"audio-keyboard-response","202","395639","0.0-5.0-1.0-0.6","2","1","brtpoohevar46ah","","null","","sounds/sentences/left/14_05_cfSWS.wav","","null","","","","","","","","","","","","","","","","","","","","","","","","","","","","","","","","","","","","","","","","","",""
"sentence-resp","203","402462","0.0-5.0-1.0-1.6","2","1","brtpoohevar46ah","","6820","","","","","","","SWS-SENT-RESPONSE","","","{""Q0"":""we like to sleep outside at night""}","The glow deepened in the eyes of the sweet girl.","glow,deepened,eyes,sweet,girl","WE LIKE TO SLEEP OUTSIDE AT NIGHT","0","0","0","0","0","0","0","","","","","","","","","","","","","","","","","","","","","","","","","",""
"html-keyboard-response","204","403743","0.0-5.0-1.0-2.6","2","1","brtpoohevar46ah","","null","","","","null","","","","","","","","","","","","","","","","","","","","","","","","","","","","","","","","","","","","","","","","","",""
"audio-keyboard-response","205","406228","0.0-5.0-1.0-3.6","2","1","brtpoohevar46ah","","null","","sounds/sentences/left/14_05_cfSWS.wav","","null","","","","","","","","","","","","","","","","","","","","","","","","","","","","","","","","","","","","","","","","","",""
"html-keyboard-response","206","407244","0.0-5.0-1.0-4.6","2","1","brtpoohevar46ah","","null","","","","null","","","","","","","","","","","","","","","","","","","","","","","","","","","","","","","","","","","","","","","","","",""
"html-button-response","207","408837","0.0-5.0-1.0-5.6","2","1","brtpoohevar46ah","","1077","","<p>Press the button below when you are ready to continue.</p>","0","","","","","","","","","","","","","","","","","","","","","","","","","","","","","","","","","","","","","","","","","","",""
"audio-keyboard-response","208","411739","0.0-5.0-1.0-0.7","2","1","brtpoohevar46ah","","null","","sounds/sentences/right/14_07_cfSWS.wav","","null","","","","","","","","","","","","","","","","","","","","","","","","","","","","","","","","","","","","","","","","","",""
"sentence-resp","209","419465","0.0-5.0-1.0-1.7","2","1","brtpoohevar46ah","","7724","","","","","","","SWS-SENT-RESPONSE","","","{""Q0"":""drive a car between the two trees""}","Write a fond note to the friend you cherish.","write,fond,note,friend,cherish","DRIVE A CAR BETWEEN THE TWO TREES","0","0","0","0","0","0","0","","","","","","","","","","","","","","","","","","","","","","","","","",""
"html-keyboard-response","210","420742","0.0-5.0-1.0-2.7","2","1","brtpoohevar46ah","","null","","","","null","","","","","","","","","","","","","","","","","","","","","","","","","","","","","","","","","","","","","","","","","",""
"audio-keyboard-response","211","423129","0.0-5.0-1.0-3.7","2","1","brtpoohevar46ah","","null","","sounds/sentences/right/14_07_cfSWS.wav","","null","","","","","","","","","","","","","","","","","","","","","","","","","","","","","","","","","","","","","","","","","",""
"html-keyboard-response","212","424143","0.0-5.0-1.0-4.7","2","1","brtpoohevar46ah","","null","","","","null","","","","","","","","","","","","","","","","","","","","","","","","","","","","","","","","","","","","","","","","","",""
"html-button-response","213","425413","0.0-5.0-1.0-5.7","2","1","brtpoohevar46ah","","765.5","","<p>Press the button below when you are ready to continue.</p>","0","","","","","","","","","","","","","","","","","","","","","","","","","","","","","","","","","","","","","","","","","","",""
"audio-keyboard-response","214","427969","0.0-5.0-1.0-0.8","2","1","brtpoohevar46ah","","null","","sounds/sentences/left/14_04_cfSWS.wav","","null","","","","","","","","","","","","","","","","","","","","","","","","","","","","","","","","","","","","","","","","","",""
"sentence-resp","215","434890","0.0-5.0-1.0-1.8","2","1","brtpoohevar46ah","","6918","","","","","","","SWS-SENT-RESPONSE","","","{""Q0"":""me find out that you like me""}","Two plus seven is less than ten.","two,plus,seven,less,ten","ME FIND OUT THAT YOU LIKE ME","0","0","0","0","0","0","0","","","","","","","","","","","","","","","","","","","","","","","","","",""
"html-keyboard-response","216","436168","0.0-5.0-1.0-2.8","2","1","brtpoohevar46ah","","null","","","","null","","","","","","","","","","","","","","","","","","","","","","","","","","","","","","","","","","","","","","","","","",""
"audio-keyboard-response","217","438219","0.0-5.0-1.0-3.8","2","1","brtpoohevar46ah","","null","","sounds/sentences/left/14_04_cfSWS.wav","","null","","","","","","","","","","","","","","","","","","","","","","","","","","","","","","","","","","","","","","","","","",""
"html-keyboard-response","218","439226","0.0-5.0-1.0-4.8","2","1","brtpoohevar46ah","","null","","","","null","","","","","","","","","","","","","","","","","","","","","","","","","","","","","","","","","","","","","","","","","",""
"html-button-response","219","440711","0.0-5.0-1.0-5.8","2","1","brtpoohevar46ah","","983","","<p>Press the button below when you are ready to continue.</p>","0","","","","","","","","","","","","","","","","","","","","","","","","","","","","","","","","","","","","","","","","","","",""
"audio-keyboard-response","220","443458","0.0-5.0-1.0-0.9","2","1","brtpoohevar46ah","","null","","sounds/sentences/right/14_06_cfSWS.wav","","null","","","","","","","","","","","","","","","","","","","","","","","","","","","","","","","","","","","","","","","","","",""
"sentence-resp","221","448640","0.0-5.0-1.0-1.9","2","1","brtpoohevar46ah","","5181","","","","","","","SWS-SENT-RESPONSE","","","{""Q0"":""three four five six""}","Bring your problems to the wise chief.","bring,your,problems,wise,chief","THREE FOUR FIVE SIX","0","0","0","0","0","0","0","","","","","","","","","","","","","","","","","","","","","","","","","",""
"html-keyboard-response","222","449894","0.0-5.0-1.0-2.9","2","1","brtpoohevar46ah","","null","","","","null","","","","","","","","","","","","","","","","","","","","","","","","","","","","","","","","","","","","","","","","","",""
"audio-keyboard-response","223","452138","0.0-5.0-1.0-3.9","2","1","brtpoohevar46ah","","null","","sounds/sentences/right/14_06_cfSWS.wav","","null","","","","","","","","","","","","","","","","","","","","","","","","","","","","","","","","","","","","","","","","","",""
"html-keyboard-response","224","453153","0.0-5.0-1.0-4.9","2","1","brtpoohevar46ah","","null","","","","null","","","","","","","","","","","","","","","","","","","","","","","","","","","","","","","","","","","","","","","","","",""
"html-button-response","225","456366","0.0-5.0-1.0-5.9","2","1","brtpoohevar46ah","","2696.100000023842","","<p>Press the button below when you are ready to continue.</p>","0","","","","","","","","","","","","","","","","","","","","","","","","","","","","","","","","","","","","","","","","","","",""
"html-keyboard-response","226","470573","0.0-6.0-0.0","2","1","brtpoohevar46ah","","13702.900000035763","","<p>In this part of the study, you will hear sounds similar to those you just heard.</p><p>Please focus on these sounds, as you may be asked questions about them later.</p><p>Occasionally, the sounds will pause for up to two seconds. When this happens, please press SPACEBAR as quickly as you can.</br>This helps ensure that you are paying attention to the sounds.</p><p>This part of the study will take about 12 minutes to complete, and you will be given the opportunity to take a couple of short breaks every few minutes.</p><p><strong>Press SPACEBAR to begin</strong></p>","","32","","","","","","","","","","","","","","","","","","","","","","","","","","","","","","","","","","","","","","","","","",""
"html-keyboard-response","227","471583","0.0-6.0-1.0-0.0","2","1","brtpoohevar46ah","","null","","<p style=""font-size: 40px;"">+</p>","","null","","","","","","","","","","","","","","","","","","","","","","","","","","","","","","","","","","","","","","","","","",""
"html-keyboard-response","228","656591","0.0-6.0-1.0-1.0","2","1","brtpoohevar46ah","","null","","","","null","","","SL-TRAIN","","","","","","","","","","","","","","0","1957.1000000238419","756.1999999880791","sounds/B/TRAIN/SEQ__03.mp3","4","","","","","","","","","","","","","","","","","","","","",""
"html-button-response","229","661010","0.0-6.0-1.0-2.0","2","1","brtpoohevar46ah","","4416.299999952316","","<p>You may take a short break if you wish.</p>","0","","","","","","","","","","","","","","","","","","","","","","","","","","","","","","","","","","","","","","","","","","",""
"html-keyboard-response","230","662011","0.0-6.0-1.0-3.0","2","1","brtpoohevar46ah","","null","","<p style=""font-size: 40px;"">+</p>","","null","","","","","","","","","","","","","","","","","","","","","","","","","","","","","","","","","","","","","","","","","",""
"html-keyboard-response","231","847013","0.0-6.0-1.0-4.0","2","1","brtpoohevar46ah","","null","","","","null","","","SL-TRAIN","","","","","","","","","","","","","","0","1079.5","1282.699999988079","sounds/B/TRAIN/SEQ__08.mp3","12","","","","","","","","","","","","","","","","","","","","",""
"html-button-response","232","849768","0.0-6.0-1.0-5.0","2","1","brtpoohevar46ah","","2752.800000011921","","<p>You may take a short break if you wish.</p>","0","","","","","","","","","","","","","","","","","","","","","","","","","","","","","","","","","","","","","","","","","","",""
"html-keyboard-response","233","850769","0.0-6.0-1.0-6.0","2","1","brtpoohevar46ah","","null","","<p style=""font-size: 40px;"">+</p>","","null","","","","","","","","","","","","","","","","","","","","","","","","","","","","","","","","","","","","","","","","","",""
"html-keyboard-response","234","1035772","0.0-6.0-1.0-7.0","2","1","brtpoohevar46ah","","null","","","","null","","","SL-TRAIN","","","","","","","","","","","","","","0","1779.199999988079","817","sounds/B/TRAIN/SEQ__12.mp3","14","","","","","","","","","","","","","","","","","","","","",""
"html-button-response","235","1038661","0.0-6.0-1.0-8.0","2","1","brtpoohevar46ah","","2888.599999964237","","<p>You may take a short break if you wish.</p>","0","","","","","","","","","","","","","","","","","","","","","","","","","","","","","","","","","","","","","","","","","","",""
"html-keyboard-response","236","1039674","0.0-6.0-1.0-9.0","2","1","brtpoohevar46ah","","null","","<p style=""font-size: 40px;"">+</p>","","null","","","","","","","","","","","","","","","","","","","","","","","","","","","","","","","","","","","","","","","","","",""
"html-keyboard-response","237","1224676","0.0-6.0-1.0-10.0","2","1","brtpoohevar46ah","","null","","","","null","","","SL-TRAIN","","","","","","","","","","","","","","0","1004.8000000119209","1441.199999988079","sounds/B/TRAIN/SEQ__05.mp3","28","","","","","","","","","","","","","","","","","","","","",""
"html-button-response","238","1228336","0.0-6.0-1.0-11.0","2","1","brtpoohevar46ah","","3658.599999964237","","<p>You may take a short break if you wish.</p>","0","","","","","","","","","","","","","","","","","","","","","","","","","","","","","","","","","","","","","","","","","","",""
"html-button-response","239","1242975","0.0-7.0-0.0","2","1","brtpoohevar46ah","","14636.5","","<p>Welcome to the second part of the study. This is a <u>familiarity task</u>.</p><p>You will now hear short sounds and will be asked to rate how familiar they sound to you <b>based on what you heard in the previous part of the study</b>.</p><p>You will rate 12 sounds in total.</p>","0","","","","","","","","","","","","","","","","","","","","","","","","","","","","","","","","","","","","","","","","","","",""
"html-keyboard-response","240","1243976","0.0-7.0-1.0-0.0","2","1","brtpoohevar46ah","","null","","","","null","","","","","","","","","","","","","","","","","","","","","","","","","","","","","","","","","","","","","","","","","",""
"audio-keyboard-response","241","1245561","0.0-7.0-1.0-1.0","2","1","brtpoohevar46ah","","null","","sounds/B/FAM/P003.mp3","","null","","","","","","","","","","","","","","","","","","","","","","","","","","","","","","","","","","","","","","","","","",""
"html-keyboard-response","242","1249610","0.0-7.0-1.0-2.0","2","1","brtpoohevar46ah","","3534.5","","<p>How familiar did this sound to you?</p><p>1&nbsp;&nbsp;&nbsp;&nbsp;&nbsp;&nbsp;&nbsp;&nbsp;&nbsp;&nbsp;&nbsp;&nbsp;&nbsp;&nbsp;&nbsp;&nbsp;&nbsp;&nbsp;&nbsp;2&nbsp;&nbsp;&nbsp;&nbsp;&nbsp;&nbsp;&nbsp;&nbsp;&nbsp;&nbsp;&nbsp;&nbsp;&nbsp;&nbsp;&nbsp;&nbsp;&nbsp;&nbsp;&nbsp;3&nbsp;&nbsp;&nbsp;&nbsp;&nbsp;&nbsp;&nbsp;&nbsp;&nbsp;&nbsp;&nbsp;&nbsp;&nbsp;&nbsp;&nbsp;&nbsp;&nbsp;&nbsp;&nbsp;4</p><p style=""font-size:14px"">Not at all familiar&nbsp;&nbsp;&nbsp;&nbsp;A little familiar&nbsp;&nbsp;&nbsp;Moderately familiar&nbsp;&nbsp;&nbsp;Extremely familiar</p><p>(press the corresponding number on your keyboard)</p>","","51","","","FAM-RESPONSE","","","","","","","","","","","","","","","","","","","sounds/B/FAM/P003.mp3","partword","","","","","","","","","","","","","","","","","","",""
"html-keyboard-response","243","1251622","0.0-7.0-1.0-0.1","2","1","brtpoohevar46ah","","null","","","","null","","","","","","","","","","","","","","","","","","","","","","","","","","","","","","","","","","","","","","","","","",""
"audio-keyboard-response","244","1252571","0.0-7.0-1.0-1.1","2","1","brtpoohevar46ah","","null","","sounds/B/FAM/N001.mp3","","null","","","","","","","","","","","","","","","","","","","","","","","","","","","","","","","","","","","","","","","","","",""
"html-keyboard-response","245","1254789","0.0-7.0-1.0-2.1","2","1","brtpoohevar46ah","","1710.1000000238419","","<p>How familiar did this sound to you?</p><p>1&nbsp;&nbsp;&nbsp;&nbsp;&nbsp;&nbsp;&nbsp;&nbsp;&nbsp;&nbsp;&nbsp;&nbsp;&nbsp;&nbsp;&nbsp;&nbsp;&nbsp;&nbsp;&nbsp;2&nbsp;&nbsp;&nbsp;&nbsp;&nbsp;&nbsp;&nbsp;&nbsp;&nbsp;&nbsp;&nbsp;&nbsp;&nbsp;&nbsp;&nbsp;&nbsp;&nbsp;&nbsp;&nbsp;3&nbsp;&nbsp;&nbsp;&nbsp;&nbsp;&nbsp;&nbsp;&nbsp;&nbsp;&nbsp;&nbsp;&nbsp;&nbsp;&nbsp;&nbsp;&nbsp;&nbsp;&nbsp;&nbsp;4</p><p style=""font-size:14px"">Not at all familiar&nbsp;&nbsp;&nbsp;&nbsp;A little familiar&nbsp;&nbsp;&nbsp;Moderately familiar&nbsp;&nbsp;&nbsp;Extremely familiar</p><p>(press the corresponding number on your keyboard)</p>","","49","","","FAM-RESPONSE","","","","","","","","","","","","","","","","","","","sounds/B/FAM/N001.mp3","nonword","","","","","","","","","","","","","","","","","","",""
"html-keyboard-response","246","1256818","0.0-7.0-1.0-0.2","2","1","brtpoohevar46ah","","null","","","","null","","","","","","","","","","","","","","","","","","","","","","","","","","","","","","","","","","","","","","","","","",""
"audio-keyboard-response","247","1257761","0.0-7.0-1.0-1.2","2","1","brtpoohevar46ah","","null","","sounds/B/FAM/W001.mp3","","null","","","","","","","","","","","","","","","","","","","","","","","","","","","","","","","","","","","","","","","","","",""
"html-keyboard-response","248","1259434","0.0-7.0-1.0-2.2","2","1","brtpoohevar46ah","","1160.9000000357628","","<p>How familiar did this sound to you?</p><p>1&nbsp;&nbsp;&nbsp;&nbsp;&nbsp;&nbsp;&nbsp;&nbsp;&nbsp;&nbsp;&nbsp;&nbsp;&nbsp;&nbsp;&nbsp;&nbsp;&nbsp;&nbsp;&nbsp;2&nbsp;&nbsp;&nbsp;&nbsp;&nbsp;&nbsp;&nbsp;&nbsp;&nbsp;&nbsp;&nbsp;&nbsp;&nbsp;&nbsp;&nbsp;&nbsp;&nbsp;&nbsp;&nbsp;3&nbsp;&nbsp;&nbsp;&nbsp;&nbsp;&nbsp;&nbsp;&nbsp;&nbsp;&nbsp;&nbsp;&nbsp;&nbsp;&nbsp;&nbsp;&nbsp;&nbsp;&nbsp;&nbsp;4</p><p style=""font-size:14px"">Not at all familiar&nbsp;&nbsp;&nbsp;&nbsp;A little familiar&nbsp;&nbsp;&nbsp;Moderately familiar&nbsp;&nbsp;&nbsp;Extremely familiar</p><p>(press the corresponding number on your keyboard)</p>","","51","","","FAM-RESPONSE","","","","","","","","","","","","","","","","","","","sounds/B/FAM/W001.mp3","word","","","","","","","","","","","","","","","","","","",""
"html-keyboard-response","249","1261456","0.0-7.0-1.0-0.3","2","1","brtpoohevar46ah","","null","","","","null","","","","","","","","","","","","","","","","","","","","","","","","","","","","","","","","","","","","","","","","","",""
"audio-keyboard-response","250","1262402","0.0-7.0-1.0-1.3","2","1","brtpoohevar46ah","","null","","sounds/B/FAM/N004.mp3","","null","","","","","","","","","","","","","","","","","","","","","","","","","","","","","","","","","","","","","","","","","",""
"html-keyboard-response","251","1263854","0.0-7.0-1.0-2.3","2","1","brtpoohevar46ah","","948.5999999642372","","<p>How familiar did this sound to you?</p><p>1&nbsp;&nbsp;&nbsp;&nbsp;&nbsp;&nbsp;&nbsp;&nbsp;&nbsp;&nbsp;&nbsp;&nbsp;&nbsp;&nbsp;&nbsp;&nbsp;&nbsp;&nbsp;&nbsp;2&nbsp;&nbsp;&nbsp;&nbsp;&nbsp;&nbsp;&nbsp;&nbsp;&nbsp;&nbsp;&nbsp;&nbsp;&nbsp;&nbsp;&nbsp;&nbsp;&nbsp;&nbsp;&nbsp;3&nbsp;&nbsp;&nbsp;&nbsp;&nbsp;&nbsp;&nbsp;&nbsp;&nbsp;&nbsp;&nbsp;&nbsp;&nbsp;&nbsp;&nbsp;&nbsp;&nbsp;&nbsp;&nbsp;4</p><p style=""font-size:14px"">Not at all familiar&nbsp;&nbsp;&nbsp;&nbsp;A little familiar&nbsp;&nbsp;&nbsp;Moderately familiar&nbsp;&nbsp;&nbsp;Extremely familiar</p><p>(press the corresponding number on your keyboard)</p>","","50","","","FAM-RESPONSE","","","","","","","","","","","","","","","","","","","sounds/B/FAM/N004.mp3","nonword","","","","","","","","","","","","","","","","","","",""
"html-keyboard-response","252","1265870","0.0-7.0-1.0-0.4","2","1","brtpoohevar46ah","","null","","","","null","","","","","","","","","","","","","","","","","","","","","","","","","","","","","","","","","","","","","","","","","",""
"audio-keyboard-response","253","1266811","0.0-7.0-1.0-1.4","2","1","brtpoohevar46ah","","null","","sounds/B/FAM/P001.mp3","","null","","","","","","","","","","","","","","","","","","","","","","","","","","","","","","","","","","","","","","","","","",""
"html-keyboard-response","254","1267990","0.0-7.0-1.0-2.4","2","1","brtpoohevar46ah","","664.3000000119209","","<p>How familiar did this sound to you?</p><p>1&nbsp;&nbsp;&nbsp;&nbsp;&nbsp;&nbsp;&nbsp;&nbsp;&nbsp;&nbsp;&nbsp;&nbsp;&nbsp;&nbsp;&nbsp;&nbsp;&nbsp;&nbsp;&nbsp;2&nbsp;&nbsp;&nbsp;&nbsp;&nbsp;&nbsp;&nbsp;&nbsp;&nbsp;&nbsp;&nbsp;&nbsp;&nbsp;&nbsp;&nbsp;&nbsp;&nbsp;&nbsp;&nbsp;3&nbsp;&nbsp;&nbsp;&nbsp;&nbsp;&nbsp;&nbsp;&nbsp;&nbsp;&nbsp;&nbsp;&nbsp;&nbsp;&nbsp;&nbsp;&nbsp;&nbsp;&nbsp;&nbsp;4</p><p style=""font-size:14px"">Not at all familiar&nbsp;&nbsp;&nbsp;&nbsp;A little familiar&nbsp;&nbsp;&nbsp;Moderately familiar&nbsp;&nbsp;&nbsp;Extremely familiar</p><p>(press the corresponding number on your keyboard)</p>","","52","","","FAM-RESPONSE","","","","","","","","","","","","","","","","","","","sounds/B/FAM/P001.mp3","partword","","","","","","","","","","","","","","","","","","",""
"html-keyboard-response","255","1269999","0.0-7.0-1.0-0.5","2","1","brtpoohevar46ah","","null","","","","null","","","","","","","","","","","","","","","","","","","","","","","","","","","","","","","","","","","","","","","","","",""
"audio-keyboard-response","256","1270931","0.0-7.0-1.0-1.5","2","1","brtpoohevar46ah","","null","","sounds/B/FAM/N002.mp3","","null","","","","","","","","","","","","","","","","","","","","","","","","","","","","","","","","","","","","","","","","","",""
"html-keyboard-response","257","1272132","0.0-7.0-1.0-2.5","2","1","brtpoohevar46ah","","690.1999999880791","","<p>How familiar did this sound to you?</p><p>1&nbsp;&nbsp;&nbsp;&nbsp;&nbsp;&nbsp;&nbsp;&nbsp;&nbsp;&nbsp;&nbsp;&nbsp;&nbsp;&nbsp;&nbsp;&nbsp;&nbsp;&nbsp;&nbsp;2&nbsp;&nbsp;&nbsp;&nbsp;&nbsp;&nbsp;&nbsp;&nbsp;&nbsp;&nbsp;&nbsp;&nbsp;&nbsp;&nbsp;&nbsp;&nbsp;&nbsp;&nbsp;&nbsp;3&nbsp;&nbsp;&nbsp;&nbsp;&nbsp;&nbsp;&nbsp;&nbsp;&nbsp;&nbsp;&nbsp;&nbsp;&nbsp;&nbsp;&nbsp;&nbsp;&nbsp;&nbsp;&nbsp;4</p><p style=""font-size:14px"">Not at all familiar&nbsp;&nbsp;&nbsp;&nbsp;A little familiar&nbsp;&nbsp;&nbsp;Moderately familiar&nbsp;&nbsp;&nbsp;Extremely familiar</p><p>(press the corresponding number on your keyboard)</p>","","51","","","FAM-RESPONSE","","","","","","","","","","","","","","","","","","","sounds/B/FAM/N002.mp3","nonword","","","","","","","","","","","","","","","","","","",""
"html-keyboard-response","258","1274162","0.0-7.0-1.0-0.6","2","1","brtpoohevar46ah","","null","","","","null","","","","","","","","","","","","","","","","","","","","","","","","","","","","","","","","","","","","","","","","","",""
"audio-keyboard-response","259","1275103","0.0-7.0-1.0-1.6","2","1","brtpoohevar46ah","","null","","sounds/B/FAM/P002.mp3","","null","","","","","","","","","","","","","","","","","","","","","","","","","","","","","","","","","","","","","","","","","",""
"html-keyboard-response","260","1276093","0.0-7.0-1.0-2.6","2","1","brtpoohevar46ah","","486.80000001192093","","<p>How familiar did this sound to you?</p><p>1&nbsp;&nbsp;&nbsp;&nbsp;&nbsp;&nbsp;&nbsp;&nbsp;&nbsp;&nbsp;&nbsp;&nbsp;&nbsp;&nbsp;&nbsp;&nbsp;&nbsp;&nbsp;&nbsp;2&nbsp;&nbsp;&nbsp;&nbsp;&nbsp;&nbsp;&nbsp;&nbsp;&nbsp;&nbsp;&nbsp;&nbsp;&nbsp;&nbsp;&nbsp;&nbsp;&nbsp;&nbsp;&nbsp;3&nbsp;&nbsp;&nbsp;&nbsp;&nbsp;&nbsp;&nbsp;&nbsp;&nbsp;&nbsp;&nbsp;&nbsp;&nbsp;&nbsp;&nbsp;&nbsp;&nbsp;&nbsp;&nbsp;4</p><p style=""font-size:14px"">Not at all familiar&nbsp;&nbsp;&nbsp;&nbsp;A little familiar&nbsp;&nbsp;&nbsp;Moderately familiar&nbsp;&nbsp;&nbsp;Extremely familiar</p><p>(press the corresponding number on your keyboard)</p>","","49","","","FAM-RESPONSE","","","","","","","","","","","","","","","","","","","sounds/B/FAM/P002.mp3","partword","","","","","","","","","","","","","","","","","","",""
"html-keyboard-response","261","1278118","0.0-7.0-1.0-0.7","2","1","brtpoohevar46ah","","null","","","","null","","","","","","","","","","","","","","","","","","","","","","","","","","","","","","","","","","","","","","","","","",""
"audio-keyboard-response","262","1279052","0.0-7.0-1.0-1.7","2","1","brtpoohevar46ah","","null","","sounds/B/FAM/P004.mp3","","null","","","","","","","","","","","","","","","","","","","","","","","","","","","","","","","","","","","","","","","","","",""
"html-keyboard-response","263","1280506","0.0-7.0-1.0-2.7","2","1","brtpoohevar46ah","","952.3999999761581","","<p>How familiar did this sound to you?</p><p>1&nbsp;&nbsp;&nbsp;&nbsp;&nbsp;&nbsp;&nbsp;&nbsp;&nbsp;&nbsp;&nbsp;&nbsp;&nbsp;&nbsp;&nbsp;&nbsp;&nbsp;&nbsp;&nbsp;2&nbsp;&nbsp;&nbsp;&nbsp;&nbsp;&nbsp;&nbsp;&nbsp;&nbsp;&nbsp;&nbsp;&nbsp;&nbsp;&nbsp;&nbsp;&nbsp;&nbsp;&nbsp;&nbsp;3&nbsp;&nbsp;&nbsp;&nbsp;&nbsp;&nbsp;&nbsp;&nbsp;&nbsp;&nbsp;&nbsp;&nbsp;&nbsp;&nbsp;&nbsp;&nbsp;&nbsp;&nbsp;&nbsp;4</p><p style=""font-size:14px"">Not at all familiar&nbsp;&nbsp;&nbsp;&nbsp;A little familiar&nbsp;&nbsp;&nbsp;Moderately familiar&nbsp;&nbsp;&nbsp;Extremely familiar</p><p>(press the corresponding number on your keyboard)</p>","","50","","","FAM-RESPONSE","","","","","","","","","","","","","","","","","","","sounds/B/FAM/P004.mp3","partword","","","","","","","","","","","","","","","","","","",""
"html-keyboard-response","264","1282536","0.0-7.0-1.0-0.8","2","1","brtpoohevar46ah","","null","","","","null","","","","","","","","","","","","","","","","","","","","","","","","","","","","","","","","","","","","","","","","","",""
"audio-keyboard-response","265","1283483","0.0-7.0-1.0-1.8","2","1","brtpoohevar46ah","","null","","sounds/B/FAM/N003.mp3","","null","","","","","","","","","","","","","","","","","","","","","","","","","","","","","","","","","","","","","","","","","",""
"html-keyboard-response","266","1284342","0.0-7.0-1.0-2.8","2","1","brtpoohevar46ah","","351.2999999523163","","<p>How familiar did this sound to you?</p><p>1&nbsp;&nbsp;&nbsp;&nbsp;&nbsp;&nbsp;&nbsp;&nbsp;&nbsp;&nbsp;&nbsp;&nbsp;&nbsp;&nbsp;&nbsp;&nbsp;&nbsp;&nbsp;&nbsp;2&nbsp;&nbsp;&nbsp;&nbsp;&nbsp;&nbsp;&nbsp;&nbsp;&nbsp;&nbsp;&nbsp;&nbsp;&nbsp;&nbsp;&nbsp;&nbsp;&nbsp;&nbsp;&nbsp;3&nbsp;&nbsp;&nbsp;&nbsp;&nbsp;&nbsp;&nbsp;&nbsp;&nbsp;&nbsp;&nbsp;&nbsp;&nbsp;&nbsp;&nbsp;&nbsp;&nbsp;&nbsp;&nbsp;4</p><p style=""font-size:14px"">Not at all familiar&nbsp;&nbsp;&nbsp;&nbsp;A little familiar&nbsp;&nbsp;&nbsp;Moderately familiar&nbsp;&nbsp;&nbsp;Extremely familiar</p><p>(press the corresponding number on your keyboard)</p>","","51","","","FAM-RESPONSE","","","","","","","","","","","","","","","","","","","sounds/B/FAM/N003.mp3","nonword","","","","","","","","","","","","","","","","","","",""
"html-keyboard-response","267","1286359","0.0-7.0-1.0-0.9","2","1","brtpoohevar46ah","","null","","","","null","","","","","","","","","","","","","","","","","","","","","","","","","","","","","","","","","","","","","","","","","",""
"audio-keyboard-response","268","1287291","0.0-7.0-1.0-1.9","2","1","brtpoohevar46ah","","null","","sounds/B/FAM/W003.mp3","","null","","","","","","","","","","","","","","","","","","","","","","","","","","","","","","","","","","","","","","","","","",""
"html-keyboard-response","269","1288033","0.0-7.0-1.0-2.9","2","1","brtpoohevar46ah","","232.4000000357628","","<p>How familiar did this sound to you?</p><p>1&nbsp;&nbsp;&nbsp;&nbsp;&nbsp;&nbsp;&nbsp;&nbsp;&nbsp;&nbsp;&nbsp;&nbsp;&nbsp;&nbsp;&nbsp;&nbsp;&nbsp;&nbsp;&nbsp;2&nbsp;&nbsp;&nbsp;&nbsp;&nbsp;&nbsp;&nbsp;&nbsp;&nbsp;&nbsp;&nbsp;&nbsp;&nbsp;&nbsp;&nbsp;&nbsp;&nbsp;&nbsp;&nbsp;3&nbsp;&nbsp;&nbsp;&nbsp;&nbsp;&nbsp;&nbsp;&nbsp;&nbsp;&nbsp;&nbsp;&nbsp;&nbsp;&nbsp;&nbsp;&nbsp;&nbsp;&nbsp;&nbsp;4</p><p style=""font-size:14px"">Not at all familiar&nbsp;&nbsp;&nbsp;&nbsp;A little familiar&nbsp;&nbsp;&nbsp;Moderately familiar&nbsp;&nbsp;&nbsp;Extremely familiar</p><p>(press the corresponding number on your keyboard)</p>","","52","","","FAM-RESPONSE","","","","","","","","","","","","","","","","","","","sounds/B/FAM/W003.mp3","word","","","","","","","","","","","","","","","","","","",""
"html-keyboard-response","270","1290048","0.0-7.0-1.0-0.10","2","1","brtpoohevar46ah","","null","","","","null","","","","","","","","","","","","","","","","","","","","","","","","","","","","","","","","","","","","","","","","","",""
"audio-keyboard-response","271","1290983","0.0-7.0-1.0-1.10","2","1","brtpoohevar46ah","","null","","sounds/B/FAM/W002.mp3","","null","","","","","","","","","","","","","","","","","","","","","","","","","","","","","","","","","","","","","","","","","",""
"html-keyboard-response","272","1292371","0.0-7.0-1.0-2.10","2","1","brtpoohevar46ah","","881.1999999880791","","<p>How familiar did this sound to you?</p><p>1&nbsp;&nbsp;&nbsp;&nbsp;&nbsp;&nbsp;&nbsp;&nbsp;&nbsp;&nbsp;&nbsp;&nbsp;&nbsp;&nbsp;&nbsp;&nbsp;&nbsp;&nbsp;&nbsp;2&nbsp;&nbsp;&nbsp;&nbsp;&nbsp;&nbsp;&nbsp;&nbsp;&nbsp;&nbsp;&nbsp;&nbsp;&nbsp;&nbsp;&nbsp;&nbsp;&nbsp;&nbsp;&nbsp;3&nbsp;&nbsp;&nbsp;&nbsp;&nbsp;&nbsp;&nbsp;&nbsp;&nbsp;&nbsp;&nbsp;&nbsp;&nbsp;&nbsp;&nbsp;&nbsp;&nbsp;&nbsp;&nbsp;4</p><p style=""font-size:14px"">Not at all familiar&nbsp;&nbsp;&nbsp;&nbsp;A little familiar&nbsp;&nbsp;&nbsp;Moderately familiar&nbsp;&nbsp;&nbsp;Extremely familiar</p><p>(press the corresponding number on your keyboard)</p>","","49","","","FAM-RESPONSE","","","","","","","","","","","","","","","","","","","sounds/B/FAM/W002.mp3","word","","","","","","","","","","","","","","","","","","",""
"html-keyboard-response","273","1294378","0.0-7.0-1.0-0.11","2","1","brtpoohevar46ah","","null","","","","null","","","","","","","","","","","","","","","","","","","","","","","","","","","","","","","","","","","","","","","","","",""
"audio-keyboard-response","274","1295322","0.0-7.0-1.0-1.11","2","1","brtpoohevar46ah","","null","","sounds/B/FAM/W004.mp3","","null","","","","","","","","","","","","","","","","","","","","","","","","","","","","","","","","","","","","","","","","","",""
"html-keyboard-response","275","1296418","0.0-7.0-1.0-2.11","2","1","brtpoohevar46ah","","585.5","","<p>How familiar did this sound to you?</p><p>1&nbsp;&nbsp;&nbsp;&nbsp;&nbsp;&nbsp;&nbsp;&nbsp;&nbsp;&nbsp;&nbsp;&nbsp;&nbsp;&nbsp;&nbsp;&nbsp;&nbsp;&nbsp;&nbsp;2&nbsp;&nbsp;&nbsp;&nbsp;&nbsp;&nbsp;&nbsp;&nbsp;&nbsp;&nbsp;&nbsp;&nbsp;&nbsp;&nbsp;&nbsp;&nbsp;&nbsp;&nbsp;&nbsp;3&nbsp;&nbsp;&nbsp;&nbsp;&nbsp;&nbsp;&nbsp;&nbsp;&nbsp;&nbsp;&nbsp;&nbsp;&nbsp;&nbsp;&nbsp;&nbsp;&nbsp;&nbsp;&nbsp;4</p><p style=""font-size:14px"">Not at all familiar&nbsp;&nbsp;&nbsp;&nbsp;A little familiar&nbsp;&nbsp;&nbsp;Moderately familiar&nbsp;&nbsp;&nbsp;Extremely familiar</p><p>(press the corresponding number on your keyboard)</p>","","51","","","FAM-RESPONSE","","","","","","","","","","","","","","","","","","","sounds/B/FAM/W004.mp3","word","","","","","","","","","","","","","","","","","","",""
"html-button-response","276","1335384","0.0-8.0-0.0","2","1","brtpoohevar46ah","","37962","","<p>You will now listen to longer sound sequences.</p><p>Each sound sequence will last about 16 seconds.</p><p>On each trial, you will be given a <u>TARGET SOUND</u>. Your task is to listen very carefully for this sound.</p><p>Every time you hear the <u>TARGET SOUND</u>, you will press the <b>SPACEBAR</b> as quickly and accurately as you can.</p>","0","","","","","","","","","","","","","","","","","","","","","","","","","","","","","","","","","","","","","","","","","","",""
"html-button-response","277","1344297","0.0-8.0-1.0","2","1","brtpoohevar46ah","","8661","","<p>It is very important that you make your responses as quickly and accurately as possible.</p><p>To help you make your responses, you will be able to listen to the <u>TARGET SOUND</u> at the beginning of each trial.</p><p>There will be 36 total trials.</p><p><b>Note: This is meant to be a difficult task. We simply want you to try your best.</p>","0","","","","","","","","","","","","","","","","","","","","","","","","","","","","","","","","","","","","","","","","","","",""
"html-button-response","278","1345672","0.0-8.0-2.0-0.0","2","1","brtpoohevar46ah","","1121.300000011921","","<p>Trial 1 of 36</p>","0","","","","","","","","","","","","","","","","","","","","","","","","","PU","sounds/syllables/pu_SWS.wav","2700,5400,9000,11700","1","","","","","","","","","","","","","","",""
"html-keyboard-response","279","1347841","0.0-8.0-2.0-1.0","2","1","brtpoohevar46ah","","2168.399999976158","","","","80","","","","","","","","","","","","","","","","","","","","","","","","PU","","2700,5400,9000,11700","1","","","","","","","","","","","","","","",""
"audio-keyboard-response","280","1348800","0.0-8.0-2.0-2.0-0.0","2","1","brtpoohevar46ah","","null","","sounds/syllables/pu_SWS.wav","","null","","","","","","","","","","","","","","","","","","","","","","","","","","","","","","","","","","","","","","","","","",""
"html-keyboard-response","281","1350741","0.0-8.0-2.0-2.0-1.0","2","1","brtpoohevar46ah","","1937.5","","<p>To replay the <u>TARGET SOUND</u>, press P.</p> When you are ready to begin, press SPACEBAR.","","80","","","","","","","","","","","","","","","","","","","","","","","","","","","","","","","","","","","","","","","","","",""
"audio-keyboard-response","282","1351550","0.0-8.0-2.0-2.1-0.1","2","1","brtpoohevar46ah","","null","","sounds/syllables/pu_SWS.wav","","null","","","","","","","","","","","","","","","","","","","","","","","","","","","","","","","","","","","","","","","","","",""
"html-keyboard-response","283","1352117","0.0-8.0-2.0-2.1-1.1","2","1","brtpoohevar46ah","","565.8000000119209","","<p>To replay the <u>TARGET SOUND</u>, press P.</p> When you are ready to begin, press SPACEBAR.","","80","","","","","","","","","","","","","","","","","","","","","","","","","","","","","","","","","","","","","","","","","",""
"audio-keyboard-response","284","1352920","0.0-8.0-2.0-2.2-0.2","2","1","brtpoohevar46ah","","null","","sounds/syllables/pu_SWS.wav","","null","","","","","","","","","","","","","","","","","","","","","","","","","","","","","","","","","","","","","","","","","",""
"html-keyboard-response","285","1353385","0.0-8.0-2.0-2.2-1.2","2","1","brtpoohevar46ah","","464.69999998807907","","<p>To replay the <u>TARGET SOUND</u>, press P.</p> When you are ready to begin, press SPACEBAR.","","32","","","","","","","","","","","","","","","","","","","","","","","","","","","","","","","","","","","","","","","","","",""
"audio-keyboard-response","286","1368330","0.0-8.0-2.0-3.0","2","1","brtpoohevar46ah","","1469","","sounds/B/TD/PU_10_TD.mp3","","32","","","TD_SUMMARY","","","","","","","","","","","","","","","","","","","","","PU","","2700,5400,9000,11700","1","2700","5400","9000","11700","413.19999998807907","472.69999998807907","1120.300000011921","476.30000001192093","1469.3999999761581_3113.199999988079_4069.199999988079_4949.899999976158_5872.699999988079_7603.5_8780.600000023842_9742.300000011921_10120.300000011921_12176.300000011921_12962.199999988079","3","","","","",""
"html-button-response","287","1369702","0.0-8.0-2.0-0.1","2","1","brtpoohevar46ah","","1368.6000000238419","","<p>Trial 2 of 36</p>","0","","","","","","","","","","","","","","","","","","","","","","","","","GE","sounds/syllables/ge_SWS.wav","900,4500,6300,8100","1","","","","","","","","","","","","","","",""
"html-keyboard-response","288","1371369","0.0-8.0-2.0-1.1","2","1","brtpoohevar46ah","","1666.300000011921","","","","80","","","","","","","","","","","","","","","","","","","","","","","","GE","","900,4500,6300,8100","1","","","","","","","","","","","","","","",""
"audio-keyboard-response","289","1371669","0.0-8.0-2.0-2.3-0.3","2","1","brtpoohevar46ah","","null","","sounds/syllables/ge_SWS.wav","","null","","","","","","","","","","","","","","","","","","","","","","","","","","","","","","","","","","","","","","","","","",""
"html-keyboard-response","290","1372579","0.0-8.0-2.0-2.3-1.3","2","1","brtpoohevar46ah","","909.4000000357628","","<p>To replay the <u>TARGET SOUND</u>, press P.</p> When you are ready to begin, press SPACEBAR.","","80","","","","","","","","","","","","","","","","","","","","","","","","","","","","","","","","","","","","","","","","","",""
"audio-keyboard-response","291","1373390","0.0-8.0-2.0-2.4-0.4","2","1","brtpoohevar46ah","","null","","sounds/syllables/ge_SWS.wav","","null","","","","","","","","","","","","","","","","","","","","","","","","","","","","","","","","","","","","","","","","","",""
"html-keyboard-response","292","1374188","0.0-8.0-2.0-2.4-1.4","2","1","brtpoohevar46ah","","797","","<p>To replay the <u>TARGET SOUND</u>, press P.</p> When you are ready to begin, press SPACEBAR.","","80","","","","","","","","","","","","","","","","","","","","","","","","","","","","","","","","","","","","","","","","","",""
"audio-keyboard-response","293","1374990","0.0-8.0-2.0-2.5-0.5","2","1","brtpoohevar46ah","","null","","sounds/syllables/ge_SWS.wav","","null","","","","","","","","","","","","","","","","","","","","","","","","","","","","","","","","","","","","","","","","","",""
"html-keyboard-response","294","1375364","0.0-8.0-2.0-2.5-1.5","2","1","brtpoohevar46ah","","373.69999998807907","","<p>To replay the <u>TARGET SOUND</u>, press P.</p> When you are ready to begin, press SPACEBAR.","","32","","","","","","","","","","","","","","","","","","","","","","","","","","","","","","","","","","","","","","","","","",""
"audio-keyboard-response","295","1390310","0.0-8.0-2.0-3.1","2","1","brtpoohevar46ah","","1331","","sounds/B/TD/GE_01_TD.mp3","","80","","","TD_SUMMARY","","","","","","","","","","","","","","","","","","","","","GE","","900,4500,6300,8100","1","900","4500","6300","8100","null","1086","946.8000000119209","1191.9000000357628","___________2329.5_2829.800000011921_4288.300000011921_5586_5881.400000035763_6826.699999988079_7246.800000011921_9089.400000035763_9291.900000035763_9478.400000035763_9766.699999988079_11486_11918","3","","","","",""
"html-button-response","296","1391447","0.0-8.0-2.0-0.2","2","1","brtpoohevar46ah","","1134","","<p>Trial 3 of 36</p>","0","","","","","","","","","","","","","","","","","","","","","","","","","PU","sounds/syllables/pu_SWS.wav","4500,6300,8100,12600","1","","","","","","","","","","","","","","",""
"html-keyboard-response","297","1392628","0.0-8.0-2.0-1.2","2","1","brtpoohevar46ah","","1180.199999988079","","","","80","","","","","","","","","","","","","","","","","","","","","","","","PU","","4500,6300,8100,12600","1","","","","","","","","","","","","","","",""
"audio-keyboard-response","298","1392919","0.0-8.0-2.0-2.6-0.6","2","1","brtpoohevar46ah","","null","","sounds/syllables/pu_SWS.wav","","null","","","","","","","","","","","","","","","","","","","","","","","","","","","","","","","","","","","","","","","","","",""
"html-keyboard-response","299","1393828","0.0-8.0-2.0-2.6-1.6","2","1","brtpoohevar46ah","","907.8999999761581","","<p>To replay the <u>TARGET SOUND</u>, press P.</p> When you are ready to begin, press SPACEBAR.","","80","","","","","","","","","","","","","","","","","","","","","","","","","","","","","","","","","","","","","","","","","",""
"audio-keyboard-response","300","1394629","0.0-8.0-2.0-2.7-0.7","2","1","brtpoohevar46ah","","null","","sounds/syllables/pu_SWS.wav","","null","","","","","","","","","","","","","","","","","","","","","","","","","","","","","","","","","","","","","","","","","",""
"html-keyboard-response","301","1395208","0.0-8.0-2.0-2.7-1.7","2","1","brtpoohevar46ah","","578.3999999761581","","<p>To replay the <u>TARGET SOUND</u>, press P.</p> When you are ready to begin, press SPACEBAR.","","32","","","","","","","","","","","","","","","","","","","","","","","","","","","","","","","","","","","","","","","","","",""
"audio-keyboard-response","302","1410170","0.0-8.0-2.0-3.2","2","1","brtpoohevar46ah","","608","","sounds/B/TD/PU_08_TD.mp3","","32","","","TD_SUMMARY","","","","","","","","","","","","","","","","","","","","","PU","","4500,6300,8100,12600","1","4500","6300","8100","12600","970.1000000238419","1010.5","706.1000000238419","1152.800000011921","________________________606.3999999761581_2362.199999988079_2695.800000011921_3257.300000011921_4970_5470.100000023842_5919.899999976158_7088.600000023842_7310.5_7846.300000011921_8806.100000023842_10691.5_10997.699999988079_12013.600000023842_13042.199999988079_13752.800000011921","2","","","","",""
"html-button-response","303","1412301","0.0-8.0-2.0-0.3","2","1","brtpoohevar46ah","","2128.300000011921","","<p>Trial 4 of 36</p>","0","","","","","","","","","","","","","","","","","","","","","","","","","TA","sounds/syllables/ta_SWS.wav","1500,5100,7800,13200","3","","","","","","","","","","","","","","",""
"html-keyboard-response","304","1413350","0.0-8.0-2.0-1.3","2","1","brtpoohevar46ah","","1047.800000011921","","","","80","","","","","","","","","","","","","","","","","","","","","","","","TA","","1500,5100,7800,13200","3","","","","","","","","","","","","","","",""
"audio-keyboard-response","305","1413660","0.0-8.0-2.0-2.8-0.8","2","1","brtpoohevar46ah","","null","","sounds/syllables/ta_SWS.wav","","null","","","","","","","","","","","","","","","","","","","","","","","","","","","","","","","","","","","","","","","","","",""
"html-keyboard-response","306","1414368","0.0-8.0-2.0-2.8-1.8","2","1","brtpoohevar46ah","","707.8000000119209","","<p>To replay the <u>TARGET SOUND</u>, press P.</p> When you are ready to begin, press SPACEBAR.","","80","","","","","","","","","","","","","","","","","","","","","","","","","","","","","","","","","","","","","","","","","",""
"audio-keyboard-response","307","1415190","0.0-8.0-2.0-2.9-0.9","2","1","brtpoohevar46ah","","null","","sounds/syllables/ta_SWS.wav","","null","","","","","","","","","","","","","","","","","","","","","","","","","","","","","","","","","","","","","","","","","",""
"html-keyboard-response","308","1415959","0.0-8.0-2.0-2.9-1.9","2","1","brtpoohevar46ah","","767.6999999880791","","<p>To replay the <u>TARGET SOUND</u>, press P.</p> When you are ready to begin, press SPACEBAR.","","80","","","","","","","","","","","","","","","","","","","","","","","","","","","","","","","","","","","","","","","","","",""
"audio-keyboard-response","309","1416760","0.0-8.0-2.0-2.10-0.10","2","1","brtpoohevar46ah","","null","","sounds/syllables/ta_SWS.wav","","null","","","","","","","","","","","","","","","","","","","","","","","","","","","","","","","","","","","","","","","","","",""
"html-keyboard-response","310","1417318","0.0-8.0-2.0-2.10-1.10","2","1","brtpoohevar46ah","","557.2000000476837","","<p>To replay the <u>TARGET SOUND</u>, press P.</p> When you are ready to begin, press SPACEBAR.","","32","","","","","","","","","","","","","","","","","","","","","","","","","","","","","","","","","","","","","","","","","",""
"audio-keyboard-response","311","1432271","0.0-8.0-2.0-3.3","2","1","brtpoohevar46ah","","1901","","sounds/B/TD/TA_05_TD.mp3","","32","","","TD_SUMMARY","","","","","","","","","","","","","","","","","","","","","TA","","1500,5100,7800,13200","3","1500","5100","7800","13200","396.5","null","null","839.6999999880791","________________________________________1896.5_3382.5_6622.299999952316_9422.899999976158_11694.599999964237_14039.699999988079","3","","","","",""
"html-button-response","312","1434225","0.0-8.0-2.0-0.4","2","1","brtpoohevar46ah","","1951.800000011921","","<p>Trial 5 of 36</p>","0","","","","","","","","","","","","","","","","","","","","","","","","","TI","sounds/syllables/ti_SWS.wav","1800,3600,8100,10800","1","","","","","","","","","","","","","","",""
"html-keyboard-response","313","1435410","0.0-8.0-2.0-1.4","2","1","brtpoohevar46ah","","1183.199999988079","","","","80","","","","","","","","","","","","","","","","","","","","","","","","TI","","1800,3600,8100,10800","1","","","","","","","","","","","","","","",""
