"trial_type","trial_index","time_elapsed","internal_node_id","counterbalance","lang_instruct","ParticipantID","view_history","rt","url","stimulus","button_pressed","key_press","correctRESP","correct","designation","location","correctanswer","timeouts","pause_rt01","pause_rt02","train_file","numKeyPress","sound","fam_type","SYLLABLE","EXEMPLAR","TD_LOCS","TD_TYPE","TDLOC_01","TDLOC_02","TDLOC_03","TDLOC_04","TD_RT_01","TD_RT_02","TD_RT_03","TD_RT_04","TD_SUBJ_RTs","number_of_plays","responses","slider_start","response","question_order","syllable","syllable_type"
"pavlovia","0","3","0.0-0.0","2","0","4pyod8twaa85390","","","","","","","","","","","","","","","","","","","","","","","","","","","","","","","","","","","","","",""
"instructions","1","37601","0.0-1.0","2","0","4pyod8twaa85390","[{""page_index"":0,""viewing_time"":10107.39999961853},{""page_index"":1,""viewing_time"":27485.20000076294}]","37598.39999961853","","","","","","","","","","","","","","","","","","","","","","","","","","","","","","","","","","","",""
"external-html","2","41250","0.0-2.0","2","0","4pyod8twaa85390","","3504","consent/consent.html","","","","","","","","","","","","","","","","","","","","","","","","","","","","","","","","","","",""
"html-button-response","3","46328","0.0-3.0-0.0-0.0","2","0","4pyod8twaa85390","","5076.300001144409","","<p>Welcome to the study. You will first complete a short volume calibration and headphone check.</p><p>Please make sure you are in a quiet listening environment, that you are wearing headphones, and that your computer's volume is turned on.<p></p>","0","","","","","","","","","","","","","","","","","","","","","","","","","","","","","","","","",""
"html-button-response","4","50914","0.0-3.0-0.0-1.0","2","0","4pyod8twaa85390","","4332.199998855591","","<p>The volume calibration will be first.</p><p>You will hear a thirty-second noise. Please adjust your computer's volume so that this noise is being presented at a comfortable level.<p></p>","0","","","","","","","","","","","","","","","","","","","","","","","","","","","","","","","","",""
"audio-button-response","5","59768","0.0-3.0-0.0-2.0","2","0","4pyod8twaa85390","","8235","","audCalib/volumetest.mp3","0","","","","","","","","","","","","","","","","","","","","","","","","","","","","","","","","",""
"html-button-response","6","65532","0.0-3.0-1.0-0.0","2","0","4pyod8twaa85390","","5762.5","","<p>You will now complete a short headphone check.</p><p>On each trial, you will hear three tones. One of these tones will be quieter than the others. Your task is to identify whether the quiet tone occured first, second, or third.</p><p>There are six trials in total.<p></p>","0","","","","","","","","","","","","","","","","","","","","","","","","","","","","","","","","",""
"html-keyboard-response","7","66292","0.0-3.0-1.0-1.0-0.0","2","0","4pyod8twaa85390","","null","","<div style=""font-size:60px;"">+</div>","","null","","","","","","","","","","","","","","","","","","","","","","","","","","","","","","","",""
"audio-button-response","8","74465","0.0-3.0-1.0-1.0-1.0","2","0","4pyod8twaa85390","","8171","","audCalib/t3_2.mp3","2","","2","1","headphone-test","","","","","","","","","","","","","","","","","","","","","","","","","","","","",""
"html-keyboard-response","9","75222","0.0-3.0-1.0-1.0-0.1","2","0","4pyod8twaa85390","","null","","<div style=""font-size:60px;"">+</div>","","null","","","","","","","","","","","","","","","","","","","","","","","","","","","","","","","",""
"audio-button-response","10","79867","0.0-3.0-1.0-1.0-1.1","2","0","4pyod8twaa85390","","4645","","audCalib/t2_1.mp3","1","","1","1","headphone-test","","","","","","","","","","","","","","","","","","","","","","","","","","","","",""
"html-keyboard-response","11","80627","0.0-3.0-1.0-1.0-0.2","2","0","4pyod8twaa85390","","null","","<div style=""font-size:60px;"">+</div>","","null","","","","","","","","","","","","","","","","","","","","","","","","","","","","","","","",""
"audio-button-response","12","85235","0.0-3.0-1.0-1.0-1.2","2","0","4pyod8twaa85390","","4608","","audCalib/t1_1.mp3","0","","0","1","headphone-test","","","","","","","","","","","","","","","","","","","","","","","","","","","","",""
"html-keyboard-response","13","85992","0.0-3.0-1.0-1.0-0.3","2","0","4pyod8twaa85390","","null","","<div style=""font-size:60px;"">+</div>","","null","","","","","","","","","","","","","","","","","","","","","","","","","","","","","","","",""
"audio-button-response","14","90751","0.0-3.0-1.0-1.0-1.3","2","0","4pyod8twaa85390","","4757","","audCalib/t1_2.mp3","0","","0","1","headphone-test","","","","","","","","","","","","","","","","","","","","","","","","","","","","",""
"html-keyboard-response","15","91506","0.0-3.0-1.0-1.0-0.4","2","0","4pyod8twaa85390","","null","","<div style=""font-size:60px;"">+</div>","","null","","","","","","","","","","","","","","","","","","","","","","","","","","","","","","","",""
"audio-button-response","16","96141","0.0-3.0-1.0-1.0-1.4","2","0","4pyod8twaa85390","","4635","","audCalib/t2_2.mp3","1","","1","1","headphone-test","","","","","","","","","","","","","","","","","","","","","","","","","","","","",""
"html-keyboard-response","17","96901","0.0-3.0-1.0-1.0-0.5","2","0","4pyod8twaa85390","","null","","<div style=""font-size:60px;"">+</div>","","null","","","","","","","","","","","","","","","","","","","","","","","","","","","","","","","",""
"audio-button-response","18","101429","0.0-3.0-1.0-1.0-1.5","2","0","4pyod8twaa85390","","4523","","audCalib/t3_1.mp3","2","","2","1","headphone-test","","","","","","","","","","","","","","","","","","","","","","","","","","","","",""
"html-button-response","19","103042","0.0-3.0-2.0","2","0","4pyod8twaa85390","","1355","","<p>The volume calibration and headphone check are now complete.</p>","0","","","","","","","","","","","","","","","","","","","","","","","","","","","","","","","","",""
"instructions","20","114403","0.0-4.0-0.0","2","0","4pyod8twaa85390","[{""page_index"":0,""viewing_time"":1225.1000003814697},{""page_index"":1,""viewing_time"":7893.699998855591},{""page_index"":2,""viewing_time"":2241}]","11359.89999961853","","","","","","","","","","","","","","","","","","","","","","","","","","","","","","","","","","","",""
"audio-keyboard-response","21","114705","0.0-4.0-1.0-0.0","2","0","4pyod8twaa85390","","null","","sounds/induction/right_rev/ti_SWS.wav","","null","","","","","","","","","","","","","","","","","","","","","","","","","","","","","","","",""
"html-button-response","22","115844","0.0-4.0-1.0-1.0","2","0","4pyod8twaa85390","","1133","","Was the sound coming from the left or the right?","1","","","1","INDUCTION-JUDGMENT","right","1","","","","","","","","","","","","","","","","","","","","","","","","","","",""
"html-keyboard-response","23","116847","0.0-4.0-1.0-2.0","2","0","4pyod8twaa85390","","null","","<p style=""color:#054d00;""><b>Correct!</b></p>","","null","","","","","","","","","","","","","","","","","","","","","","","","","","","","","","","",""
"audio-keyboard-response","24","117649","0.0-4.0-1.0-0.1","2","0","4pyod8twaa85390","","null","","sounds/induction/left_rev/me_SWS.wav","","null","","","","","","","","","","","","","","","","","","","","","","","","","","","","","","","",""
"html-button-response","25","118350","0.0-4.0-1.0-1.1","2","0","4pyod8twaa85390","","698.7000007629395","","Was the sound coming from the left or the right?","0","","","1","INDUCTION-JUDGMENT","left","0","","","","","","","","","","","","","","","","","","","","","","","","","","",""
"html-keyboard-response","26","119351","0.0-4.0-1.0-2.1","2","0","4pyod8twaa85390","","null","","<p style=""color:#054d00;""><b>Correct!</b></p>","","null","","","","","","","","","","","","","","","","","","","","","","","","","","","","","","","",""
"audio-keyboard-response","27","120155","0.0-4.0-1.0-0.2","2","0","4pyod8twaa85390","","null","","sounds/induction/right_rev/ni_SWS.wav","","null","","","","","","","","","","","","","","","","","","","","","","","","","","","","","","","",""
"html-button-response","28","120954","0.0-4.0-1.0-1.2","2","0","4pyod8twaa85390","","795.3999996185303","","Was the sound coming from the left or the right?","1","","","1","INDUCTION-JUDGMENT","right","1","","","","","","","","","","","","","","","","","","","","","","","","","","",""
"html-keyboard-response","29","121965","0.0-4.0-1.0-2.2","2","0","4pyod8twaa85390","","null","","<p style=""color:#054d00;""><b>Correct!</b></p>","","null","","","","","","","","","","","","","","","","","","","","","","","","","","","","","","","",""
"audio-keyboard-response","30","122768","0.0-4.0-1.0-0.3","2","0","4pyod8twaa85390","","null","","sounds/induction/left_rev/ti_SWS.wav","","null","","","","","","","","","","","","","","","","","","","","","","","","","","","","","","","",""
"html-button-response","31","123883","0.0-4.0-1.0-1.3","2","0","4pyod8twaa85390","","1112","","Was the sound coming from the left or the right?","0","","","1","INDUCTION-JUDGMENT","left","0","","","","","","","","","","","","","","","","","","","","","","","","","","",""
"html-keyboard-response","32","124888","0.0-4.0-1.0-2.3","2","0","4pyod8twaa85390","","null","","<p style=""color:#054d00;""><b>Correct!</b></p>","","null","","","","","","","","","","","","","","","","","","","","","","","","","","","","","","","",""
"audio-keyboard-response","33","125691","0.0-4.0-1.0-0.4","2","0","4pyod8twaa85390","","null","","sounds/induction/left_rev/su_SWS.wav","","null","","","","","","","","","","","","","","","","","","","","","","","","","","","","","","","",""
"html-button-response","34","126742","0.0-4.0-1.0-1.4","2","0","4pyod8twaa85390","","1048.5","","Was the sound coming from the left or the right?","0","","","1","INDUCTION-JUDGMENT","left","0","","","","","","","","","","","","","","","","","","","","","","","","","","",""
"html-keyboard-response","35","127748","0.0-4.0-1.0-2.4","2","0","4pyod8twaa85390","","null","","<p style=""color:#054d00;""><b>Correct!</b></p>","","null","","","","","","","","","","","","","","","","","","","","","","","","","","","","","","","",""
"audio-keyboard-response","36","128555","0.0-4.0-1.0-0.5","2","0","4pyod8twaa85390","","null","","sounds/induction/right_rev/ti_SWS.wav","","null","","","","","","","","","","","","","","","","","","","","","","","","","","","","","","","",""
"html-button-response","37","129385","0.0-4.0-1.0-1.5","2","0","4pyod8twaa85390","","827.6000003814697","","Was the sound coming from the left or the right?","1","","","1","INDUCTION-JUDGMENT","right","1","","","","","","","","","","","","","","","","","","","","","","","","","","",""
"html-keyboard-response","38","130388","0.0-4.0-1.0-2.5","2","0","4pyod8twaa85390","","null","","<p style=""color:#054d00;""><b>Correct!</b></p>","","null","","","","","","","","","","","","","","","","","","","","","","","","","","","","","","","",""
"audio-keyboard-response","39","131195","0.0-4.0-1.0-0.6","2","0","4pyod8twaa85390","","null","","sounds/induction/left_rev/ni_SWS.wav","","null","","","","","","","","","","","","","","","","","","","","","","","","","","","","","","","",""
"html-button-response","40","132033","0.0-4.0-1.0-1.6","2","0","4pyod8twaa85390","","837.5","","Was the sound coming from the left or the right?","0","","","1","INDUCTION-JUDGMENT","left","0","","","","","","","","","","","","","","","","","","","","","","","","","","",""
"html-keyboard-response","41","133038","0.0-4.0-1.0-2.6","2","0","4pyod8twaa85390","","null","","<p style=""color:#054d00;""><b>Correct!</b></p>","","null","","","","","","","","","","","","","","","","","","","","","","","","","","","","","","","",""
"audio-keyboard-response","42","133840","0.0-4.0-1.0-0.7","2","0","4pyod8twaa85390","","null","","sounds/induction/left_rev/ti_SWS.wav","","null","","","","","","","","","","","","","","","","","","","","","","","","","","","","","","","",""
"html-button-response","43","134487","0.0-4.0-1.0-1.7","2","0","4pyod8twaa85390","","645.7999992370605","","Was the sound coming from the left or the right?","0","","","1","INDUCTION-JUDGMENT","left","0","","","","","","","","","","","","","","","","","","","","","","","","","","",""
"html-keyboard-response","44","135491","0.0-4.0-1.0-2.7","2","0","4pyod8twaa85390","","null","","<p style=""color:#054d00;""><b>Correct!</b></p>","","null","","","","","","","","","","","","","","","","","","","","","","","","","","","","","","","",""
"audio-keyboard-response","45","136293","0.0-4.0-1.0-0.8","2","0","4pyod8twaa85390","","null","","sounds/induction/right_rev/ge_SWS.wav","","null","","","","","","","","","","","","","","","","","","","","","","","","","","","","","","","",""
"html-button-response","46","136930","0.0-4.0-1.0-1.8","2","0","4pyod8twaa85390","","634.3999996185303","","Was the sound coming from the left or the right?","1","","","1","INDUCTION-JUDGMENT","right","1","","","","","","","","","","","","","","","","","","","","","","","","","","",""
"html-keyboard-response","47","137934","0.0-4.0-1.0-2.8","2","0","4pyod8twaa85390","","null","","<p style=""color:#054d00;""><b>Correct!</b></p>","","null","","","","","","","","","","","","","","","","","","","","","","","","","","","","","","","",""
"audio-keyboard-response","48","138736","0.0-4.0-1.0-0.9","2","0","4pyod8twaa85390","","null","","sounds/induction/right_rev/ru_SWS.wav","","null","","","","","","","","","","","","","","","","","","","","","","","","","","","","","","","",""
"html-button-response","49","139365","0.0-4.0-1.0-1.9","2","0","4pyod8twaa85390","","627.3000011444092","","Was the sound coming from the left or the right?","1","","","1","INDUCTION-JUDGMENT","right","1","","","","","","","","","","","","","","","","","","","","","","","","","","",""
"html-keyboard-response","50","140367","0.0-4.0-1.0-2.9","2","0","4pyod8twaa85390","","null","","<p style=""color:#054d00;""><b>Correct!</b></p>","","null","","","","","","","","","","","","","","","","","","","","","","","","","","","","","","","",""
"audio-keyboard-response","51","141173","0.0-4.0-1.0-0.10","2","0","4pyod8twaa85390","","null","","sounds/induction/right_rev/ta_SWS.wav","","null","","","","","","","","","","","","","","","","","","","","","","","","","","","","","","","",""
"html-button-response","52","141704","0.0-4.0-1.0-1.10","2","0","4pyod8twaa85390","","529.2000007629395","","Was the sound coming from the left or the right?","1","","","1","INDUCTION-JUDGMENT","right","1","","","","","","","","","","","","","","","","","","","","","","","","","","",""
"html-keyboard-response","53","142707","0.0-4.0-1.0-2.10","2","0","4pyod8twaa85390","","null","","<p style=""color:#054d00;""><b>Correct!</b></p>","","null","","","","","","","","","","","","","","","","","","","","","","","","","","","","","","","",""
"audio-keyboard-response","54","143514","0.0-4.0-1.0-0.11","2","0","4pyod8twaa85390","","null","","sounds/induction/left_rev/ru_SWS.wav","","null","","","","","","","","","","","","","","","","","","","","","","","","","","","","","","","",""
"html-button-response","55","144131","0.0-4.0-1.0-1.11","2","0","4pyod8twaa85390","","614.7999992370605","","Was the sound coming from the left or the right?","0","","","1","INDUCTION-JUDGMENT","left","0","","","","","","","","","","","","","","","","","","","","","","","","","","",""
"html-keyboard-response","56","145137","0.0-4.0-1.0-2.11","2","0","4pyod8twaa85390","","null","","<p style=""color:#054d00;""><b>Correct!</b></p>","","null","","","","","","","","","","","","","","","","","","","","","","","","","","","","","","","",""
"audio-keyboard-response","57","145941","0.0-4.0-1.0-0.12","2","0","4pyod8twaa85390","","null","","sounds/induction/right_rev/ko_SWS.wav","","null","","","","","","","","","","","","","","","","","","","","","","","","","","","","","","","",""
"html-button-response","58","146479","0.0-4.0-1.0-1.12","2","0","4pyod8twaa85390","","535.5999984741211","","Was the sound coming from the left or the right?","1","","","1","INDUCTION-JUDGMENT","right","1","","","","","","","","","","","","","","","","","","","","","","","","","","",""
"html-keyboard-response","59","147485","0.0-4.0-1.0-2.12","2","0","4pyod8twaa85390","","null","","<p style=""color:#054d00;""><b>Correct!</b></p>","","null","","","","","","","","","","","","","","","","","","","","","","","","","","","","","","","",""
"audio-keyboard-response","60","148288","0.0-4.0-1.0-0.13","2","0","4pyod8twaa85390","","null","","sounds/induction/right_rev/ko_SWS.wav","","null","","","","","","","","","","","","","","","","","","","","","","","","","","","","","","","",""
"html-button-response","61","148834","0.0-4.0-1.0-1.13","2","0","4pyod8twaa85390","","544.5","","Was the sound coming from the left or the right?","1","","","1","INDUCTION-JUDGMENT","right","1","","","","","","","","","","","","","","","","","","","","","","","","","","",""
"html-keyboard-response","62","149837","0.0-4.0-1.0-2.13","2","0","4pyod8twaa85390","","null","","<p style=""color:#054d00;""><b>Correct!</b></p>","","null","","","","","","","","","","","","","","","","","","","","","","","","","","","","","","","",""
"audio-keyboard-response","63","150640","0.0-4.0-1.0-0.14","2","0","4pyod8twaa85390","","null","","sounds/induction/left_rev/re_SWS.wav","","null","","","","","","","","","","","","","","","","","","","","","","","","","","","","","","","",""
"html-button-response","64","151110","0.0-4.0-1.0-1.14","2","0","4pyod8twaa85390","","468.3999996185303","","Was the sound coming from the left or the right?","0","","","1","INDUCTION-JUDGMENT","left","0","","","","","","","","","","","","","","","","","","","","","","","","","","",""
"html-keyboard-response","65","152115","0.0-4.0-1.0-2.14","2","0","4pyod8twaa85390","","null","","<p style=""color:#054d00;""><b>Correct!</b></p>","","null","","","","","","","","","","","","","","","","","","","","","","","","","","","","","","","",""
"audio-keyboard-response","66","152917","0.0-4.0-1.0-0.15","2","0","4pyod8twaa85390","","null","","sounds/induction/right_rev/fu_SWS.wav","","null","","","","","","","","","","","","","","","","","","","","","","","","","","","","","","","",""
"html-button-response","67","153473","0.0-4.0-1.0-1.15","2","0","4pyod8twaa85390","","554.1000003814697","","Was the sound coming from the left or the right?","1","","","1","INDUCTION-JUDGMENT","right","1","","","","","","","","","","","","","","","","","","","","","","","","","","",""
"html-keyboard-response","68","154477","0.0-4.0-1.0-2.15","2","0","4pyod8twaa85390","","null","","<p style=""color:#054d00;""><b>Correct!</b></p>","","null","","","","","","","","","","","","","","","","","","","","","","","","","","","","","","","",""
"audio-keyboard-response","69","155284","0.0-4.0-1.0-0.16","2","0","4pyod8twaa85390","","null","","sounds/induction/right_rev/me_SWS.wav","","null","","","","","","","","","","","","","","","","","","","","","","","","","","","","","","","",""
"html-button-response","70","155876","0.0-4.0-1.0-1.16","2","0","4pyod8twaa85390","","590","","Was the sound coming from the left or the right?","1","","","1","INDUCTION-JUDGMENT","right","1","","","","","","","","","","","","","","","","","","","","","","","","","","",""
"html-keyboard-response","71","156880","0.0-4.0-1.0-2.16","2","0","4pyod8twaa85390","","null","","<p style=""color:#054d00;""><b>Correct!</b></p>","","null","","","","","","","","","","","","","","","","","","","","","","","","","","","","","","","",""
"audio-keyboard-response","72","157685","0.0-4.0-1.0-0.17","2","0","4pyod8twaa85390","","null","","sounds/induction/left_rev/fe_SWS.wav","","null","","","","","","","","","","","","","","","","","","","","","","","","","","","","","","","",""
"html-button-response","73","158223","0.0-4.0-1.0-1.17","2","0","4pyod8twaa85390","","537.3999996185303","","Was the sound coming from the left or the right?","0","","","1","INDUCTION-JUDGMENT","left","0","","","","","","","","","","","","","","","","","","","","","","","","","","",""
"html-keyboard-response","74","159229","0.0-4.0-1.0-2.17","2","0","4pyod8twaa85390","","null","","<p style=""color:#054d00;""><b>Correct!</b></p>","","null","","","","","","","","","","","","","","","","","","","","","","","","","","","","","","","",""
"audio-keyboard-response","75","160037","0.0-4.0-1.0-0.18","2","0","4pyod8twaa85390","","null","","sounds/induction/left_rev/ta_SWS.wav","","null","","","","","","","","","","","","","","","","","","","","","","","","","","","","","","","",""
"html-button-response","76","160643","0.0-4.0-1.0-1.18","2","0","4pyod8twaa85390","","604.8000011444092","","Was the sound coming from the left or the right?","0","","","1","INDUCTION-JUDGMENT","left","0","","","","","","","","","","","","","","","","","","","","","","","","","","",""
"html-keyboard-response","77","161645","0.0-4.0-1.0-2.18","2","0","4pyod8twaa85390","","null","","<p style=""color:#054d00;""><b>Correct!</b></p>","","null","","","","","","","","","","","","","","","","","","","","","","","","","","","","","","","",""
"audio-keyboard-response","78","162447","0.0-4.0-1.0-0.19","2","0","4pyod8twaa85390","","null","","sounds/induction/right_rev/su_SWS.wav","","null","","","","","","","","","","","","","","","","","","","","","","","","","","","","","","","",""
"html-button-response","79","163109","0.0-4.0-1.0-1.19","2","0","4pyod8twaa85390","","659.6000003814697","","Was the sound coming from the left or the right?","1","","","1","INDUCTION-JUDGMENT","right","1","","","","","","","","","","","","","","","","","","","","","","","","","","",""
"html-keyboard-response","80","164115","0.0-4.0-1.0-2.19","2","0","4pyod8twaa85390","","null","","<p style=""color:#054d00;""><b>Correct!</b></p>","","null","","","","","","","","","","","","","","","","","","","","","","","","","","","","","","","",""
"audio-keyboard-response","81","164927","0.0-4.0-1.0-0.20","2","0","4pyod8twaa85390","","null","","sounds/induction/right_rev/re_SWS.wav","","null","","","","","","","","","","","","","","","","","","","","","","","","","","","","","","","",""
"html-button-response","82","165984","0.0-4.0-1.0-1.20","2","0","4pyod8twaa85390","","1054.599998474121","","Was the sound coming from the left or the right?","1","","","1","INDUCTION-JUDGMENT","right","1","","","","","","","","","","","","","","","","","","","","","","","","","","",""
"html-keyboard-response","83","166989","0.0-4.0-1.0-2.20","2","0","4pyod8twaa85390","","null","","<p style=""color:#054d00;""><b>Correct!</b></p>","","null","","","","","","","","","","","","","","","","","","","","","","","","","","","","","","","",""
"audio-keyboard-response","84","167791","0.0-4.0-1.0-0.21","2","0","4pyod8twaa85390","","null","","sounds/induction/right_rev/ge_SWS.wav","","null","","","","","","","","","","","","","","","","","","","","","","","","","","","","","","","",""
"html-button-response","85","168500","0.0-4.0-1.0-1.21","2","0","4pyod8twaa85390","","707.1999988555908","","Was the sound coming from the left or the right?","1","","","1","INDUCTION-JUDGMENT","right","1","","","","","","","","","","","","","","","","","","","","","","","","","","",""
"html-keyboard-response","86","169506","0.0-4.0-1.0-2.21","2","0","4pyod8twaa85390","","null","","<p style=""color:#054d00;""><b>Correct!</b></p>","","null","","","","","","","","","","","","","","","","","","","","","","","","","","","","","","","",""
"audio-keyboard-response","87","170313","0.0-4.0-1.0-0.22","2","0","4pyod8twaa85390","","null","","sounds/induction/left_rev/ta_SWS.wav","","null","","","","","","","","","","","","","","","","","","","","","","","","","","","","","","","",""
"html-button-response","88","170847","0.0-4.0-1.0-1.22","2","0","4pyod8twaa85390","","532.5","","Was the sound coming from the left or the right?","0","","","1","INDUCTION-JUDGMENT","left","0","","","","","","","","","","","","","","","","","","","","","","","","","","",""
"html-keyboard-response","89","171851","0.0-4.0-1.0-2.22","2","0","4pyod8twaa85390","","null","","<p style=""color:#054d00;""><b>Correct!</b></p>","","null","","","","","","","","","","","","","","","","","","","","","","","","","","","","","","","",""
"audio-keyboard-response","90","172655","0.0-4.0-1.0-0.23","2","0","4pyod8twaa85390","","null","","sounds/induction/right_rev/fe_SWS.wav","","null","","","","","","","","","","","","","","","","","","","","","","","","","","","","","","","",""
"html-button-response","91","173649","0.0-4.0-1.0-1.23","2","0","4pyod8twaa85390","","992.3000011444092","","Was the sound coming from the left or the right?","1","","","1","INDUCTION-JUDGMENT","right","1","","","","","","","","","","","","","","","","","","","","","","","","","","",""
"html-keyboard-response","92","174654","0.0-4.0-1.0-2.23","2","0","4pyod8twaa85390","","null","","<p style=""color:#054d00;""><b>Correct!</b></p>","","null","","","","","","","","","","","","","","","","","","","","","","","","","","","","","","","",""
"audio-keyboard-response","93","175460","0.0-4.0-1.0-0.24","2","0","4pyod8twaa85390","","null","","sounds/induction/right_rev/ta_SWS.wav","","null","","","","","","","","","","","","","","","","","","","","","","","","","","","","","","","",""
"html-button-response","94","175989","0.0-4.0-1.0-1.24","2","0","4pyod8twaa85390","","526.8999996185303","","Was the sound coming from the left or the right?","1","","","1","INDUCTION-JUDGMENT","right","1","","","","","","","","","","","","","","","","","","","","","","","","","","",""
"html-keyboard-response","95","176996","0.0-4.0-1.0-2.24","2","0","4pyod8twaa85390","","null","","<p style=""color:#054d00;""><b>Correct!</b></p>","","null","","","","","","","","","","","","","","","","","","","","","","","","","","","","","","","",""
"audio-keyboard-response","96","177801","0.0-4.0-1.0-0.25","2","0","4pyod8twaa85390","","null","","sounds/induction/left_rev/ni_SWS.wav","","null","","","","","","","","","","","","","","","","","","","","","","","","","","","","","","","",""
"html-button-response","97","178337","0.0-4.0-1.0-1.25","2","0","4pyod8twaa85390","","533.3999996185303","","Was the sound coming from the left or the right?","0","","","1","INDUCTION-JUDGMENT","left","0","","","","","","","","","","","","","","","","","","","","","","","","","","",""
"html-keyboard-response","98","179341","0.0-4.0-1.0-2.25","2","0","4pyod8twaa85390","","null","","<p style=""color:#054d00;""><b>Correct!</b></p>","","null","","","","","","","","","","","","","","","","","","","","","","","","","","","","","","","",""
"audio-keyboard-response","99","180142","0.0-4.0-1.0-0.26","2","0","4pyod8twaa85390","","null","","sounds/induction/left_rev/su_SWS.wav","","null","","","","","","","","","","","","","","","","","","","","","","","","","","","","","","","",""
"html-button-response","100","180724","0.0-4.0-1.0-1.26","2","0","4pyod8twaa85390","","580.3999996185303","","Was the sound coming from the left or the right?","0","","","1","INDUCTION-JUDGMENT","left","0","","","","","","","","","","","","","","","","","","","","","","","","","","",""
"html-keyboard-response","101","181730","0.0-4.0-1.0-2.26","2","0","4pyod8twaa85390","","null","","<p style=""color:#054d00;""><b>Correct!</b></p>","","null","","","","","","","","","","","","","","","","","","","","","","","","","","","","","","","",""
"audio-keyboard-response","102","182537","0.0-4.0-1.0-0.27","2","0","4pyod8twaa85390","","null","","sounds/induction/right_rev/su_SWS.wav","","null","","","","","","","","","","","","","","","","","","","","","","","","","","","","","","","",""
"html-button-response","103","183001","0.0-4.0-1.0-1.27","2","0","4pyod8twaa85390","","461","","Was the sound coming from the left or the right?","1","","","1","INDUCTION-JUDGMENT","right","1","","","","","","","","","","","","","","","","","","","","","","","","","","",""
"html-keyboard-response","104","184003","0.0-4.0-1.0-2.27","2","0","4pyod8twaa85390","","null","","<p style=""color:#054d00;""><b>Correct!</b></p>","","null","","","","","","","","","","","","","","","","","","","","","","","","","","","","","","","",""
"audio-keyboard-response","105","184809","0.0-4.0-1.0-0.28","2","0","4pyod8twaa85390","","null","","sounds/induction/left_rev/fu_SWS.wav","","null","","","","","","","","","","","","","","","","","","","","","","","","","","","","","","","",""
"html-button-response","106","185272","0.0-4.0-1.0-1.28","2","0","4pyod8twaa85390","","461.20000076293945","","Was the sound coming from the left or the right?","0","","","1","INDUCTION-JUDGMENT","left","0","","","","","","","","","","","","","","","","","","","","","","","","","","",""
"html-keyboard-response","107","186274","0.0-4.0-1.0-2.28","2","0","4pyod8twaa85390","","null","","<p style=""color:#054d00;""><b>Correct!</b></p>","","null","","","","","","","","","","","","","","","","","","","","","","","","","","","","","","","",""
"audio-keyboard-response","108","187076","0.0-4.0-1.0-0.29","2","0","4pyod8twaa85390","","null","","sounds/induction/right_rev/fu_SWS.wav","","null","","","","","","","","","","","","","","","","","","","","","","","","","","","","","","","",""
"html-button-response","109","187583","0.0-4.0-1.0-1.29","2","0","4pyod8twaa85390","","504.8000011444092","","Was the sound coming from the left or the right?","1","","","1","INDUCTION-JUDGMENT","right","1","","","","","","","","","","","","","","","","","","","","","","","","","","",""
"html-keyboard-response","110","188589","0.0-4.0-1.0-2.29","2","0","4pyod8twaa85390","","null","","<p style=""color:#054d00;""><b>Correct!</b></p>","","null","","","","","","","","","","","","","","","","","","","","","","","","","","","","","","","",""
"audio-keyboard-response","111","189390","0.0-4.0-1.0-0.30","2","0","4pyod8twaa85390","","null","","sounds/induction/left_rev/pu_SWS.wav","","null","","","","","","","","","","","","","","","","","","","","","","","","","","","","","","","",""
"html-button-response","112","189938","0.0-4.0-1.0-1.30","2","0","4pyod8twaa85390","","545.2999992370605","","Was the sound coming from the left or the right?","0","","","1","INDUCTION-JUDGMENT","left","0","","","","","","","","","","","","","","","","","","","","","","","","","","",""
"html-keyboard-response","113","190941","0.0-4.0-1.0-2.30","2","0","4pyod8twaa85390","","null","","<p style=""color:#054d00;""><b>Correct!</b></p>","","null","","","","","","","","","","","","","","","","","","","","","","","","","","","","","","","",""
"audio-keyboard-response","114","191748","0.0-4.0-1.0-0.31","2","0","4pyod8twaa85390","","null","","sounds/induction/left_rev/pu_SWS.wav","","null","","","","","","","","","","","","","","","","","","","","","","","","","","","","","","","",""
"html-button-response","115","192357","0.0-4.0-1.0-1.31","2","0","4pyod8twaa85390","","606.7999992370605","","Was the sound coming from the left or the right?","0","","","1","INDUCTION-JUDGMENT","left","0","","","","","","","","","","","","","","","","","","","","","","","","","","",""
"html-keyboard-response","116","193362","0.0-4.0-1.0-2.31","2","0","4pyod8twaa85390","","null","","<p style=""color:#054d00;""><b>Correct!</b></p>","","null","","","","","","","","","","","","","","","","","","","","","","","","","","","","","","","",""
"audio-keyboard-response","117","194164","0.0-4.0-1.0-0.32","2","0","4pyod8twaa85390","","null","","sounds/induction/left_rev/ge_SWS.wav","","null","","","","","","","","","","","","","","","","","","","","","","","","","","","","","","","",""
"html-button-response","118","194657","0.0-4.0-1.0-1.32","2","0","4pyod8twaa85390","","490.70000076293945","","Was the sound coming from the left or the right?","0","","","1","INDUCTION-JUDGMENT","left","0","","","","","","","","","","","","","","","","","","","","","","","","","","",""
"html-keyboard-response","119","195660","0.0-4.0-1.0-2.32","2","0","4pyod8twaa85390","","null","","<p style=""color:#054d00;""><b>Correct!</b></p>","","null","","","","","","","","","","","","","","","","","","","","","","","","","","","","","","","",""
"audio-keyboard-response","120","196462","0.0-4.0-1.0-0.33","2","0","4pyod8twaa85390","","null","","sounds/induction/left_rev/me_SWS.wav","","null","","","","","","","","","","","","","","","","","","","","","","","","","","","","","","","",""
"html-button-response","121","196940","0.0-4.0-1.0-1.33","2","0","4pyod8twaa85390","","475.6999988555908","","Was the sound coming from the left or the right?","0","","","1","INDUCTION-JUDGMENT","left","0","","","","","","","","","","","","","","","","","","","","","","","","","","",""
"html-keyboard-response","122","197946","0.0-4.0-1.0-2.33","2","0","4pyod8twaa85390","","null","","<p style=""color:#054d00;""><b>Correct!</b></p>","","null","","","","","","","","","","","","","","","","","","","","","","","","","","","","","","","",""
"audio-keyboard-response","123","198755","0.0-4.0-1.0-0.34","2","0","4pyod8twaa85390","","null","","sounds/induction/right_rev/ni_SWS.wav","","null","","","","","","","","","","","","","","","","","","","","","","","","","","","","","","","",""
"html-button-response","124","199200","0.0-4.0-1.0-1.34","2","0","4pyod8twaa85390","","441.29999923706055","","Was the sound coming from the left or the right?","1","","","1","INDUCTION-JUDGMENT","right","1","","","","","","","","","","","","","","","","","","","","","","","","","","",""
"html-keyboard-response","125","200203","0.0-4.0-1.0-2.34","2","0","4pyod8twaa85390","","null","","<p style=""color:#054d00;""><b>Correct!</b></p>","","null","","","","","","","","","","","","","","","","","","","","","","","","","","","","","","","",""
"audio-keyboard-response","126","201006","0.0-4.0-1.0-0.35","2","0","4pyod8twaa85390","","null","","sounds/induction/right_rev/fe_SWS.wav","","null","","","","","","","","","","","","","","","","","","","","","","","","","","","","","","","",""
"html-button-response","127","201691","0.0-4.0-1.0-1.35","2","0","4pyod8twaa85390","","682.7000007629395","","Was the sound coming from the left or the right?","1","","","1","INDUCTION-JUDGMENT","right","1","","","","","","","","","","","","","","","","","","","","","","","","","","",""
"html-keyboard-response","128","202695","0.0-4.0-1.0-2.35","2","0","4pyod8twaa85390","","null","","<p style=""color:#054d00;""><b>Correct!</b></p>","","null","","","","","","","","","","","","","","","","","","","","","","","","","","","","","","","",""
"audio-keyboard-response","129","203502","0.0-4.0-1.0-0.36","2","0","4pyod8twaa85390","","null","","sounds/induction/left_rev/ko_SWS.wav","","null","","","","","","","","","","","","","","","","","","","","","","","","","","","","","","","",""
"html-button-response","130","204038","0.0-4.0-1.0-1.36","2","0","4pyod8twaa85390","","534.0999984741211","","Was the sound coming from the left or the right?","0","","","1","INDUCTION-JUDGMENT","left","0","","","","","","","","","","","","","","","","","","","","","","","","","","",""
"html-keyboard-response","131","205046","0.0-4.0-1.0-2.36","2","0","4pyod8twaa85390","","null","","<p style=""color:#054d00;""><b>Correct!</b></p>","","null","","","","","","","","","","","","","","","","","","","","","","","","","","","","","","","",""
"audio-keyboard-response","132","205848","0.0-4.0-1.0-0.37","2","0","4pyod8twaa85390","","null","","sounds/induction/right_rev/pu_SWS.wav","","null","","","","","","","","","","","","","","","","","","","","","","","","","","","","","","","",""
"html-button-response","133","206434","0.0-4.0-1.0-1.37","2","0","4pyod8twaa85390","","582.8000011444092","","Was the sound coming from the left or the right?","1","","","1","INDUCTION-JUDGMENT","right","1","","","","","","","","","","","","","","","","","","","","","","","","","","",""
"html-keyboard-response","134","207437","0.0-4.0-1.0-2.37","2","0","4pyod8twaa85390","","null","","<p style=""color:#054d00;""><b>Correct!</b></p>","","null","","","","","","","","","","","","","","","","","","","","","","","","","","","","","","","",""
"audio-keyboard-response","135","208243","0.0-4.0-1.0-0.38","2","0","4pyod8twaa85390","","null","","sounds/induction/right_rev/pu_SWS.wav","","null","","","","","","","","","","","","","","","","","","","","","","","","","","","","","","","",""
"html-button-response","136","208734","0.0-4.0-1.0-1.38","2","0","4pyod8twaa85390","","488.20000076293945","","Was the sound coming from the left or the right?","1","","","1","INDUCTION-JUDGMENT","right","1","","","","","","","","","","","","","","","","","","","","","","","","","","",""
"html-keyboard-response","137","209740","0.0-4.0-1.0-2.38","2","0","4pyod8twaa85390","","null","","<p style=""color:#054d00;""><b>Correct!</b></p>","","null","","","","","","","","","","","","","","","","","","","","","","","","","","","","","","","",""
"audio-keyboard-response","138","210547","0.0-4.0-1.0-0.39","2","0","4pyod8twaa85390","","null","","sounds/induction/right_rev/ru_SWS.wav","","null","","","","","","","","","","","","","","","","","","","","","","","","","","","","","","","",""
"html-button-response","139","211056","0.0-4.0-1.0-1.39","2","0","4pyod8twaa85390","","506.5","","Was the sound coming from the left or the right?","1","","","1","INDUCTION-JUDGMENT","right","1","","","","","","","","","","","","","","","","","","","","","","","","","","",""
"html-keyboard-response","140","212063","0.0-4.0-1.0-2.39","2","0","4pyod8twaa85390","","null","","<p style=""color:#054d00;""><b>Correct!</b></p>","","null","","","","","","","","","","","","","","","","","","","","","","","","","","","","","","","",""
"audio-keyboard-response","141","212867","0.0-4.0-1.0-0.40","2","0","4pyod8twaa85390","","null","","sounds/induction/left_rev/fu_SWS.wav","","null","","","","","","","","","","","","","","","","","","","","","","","","","","","","","","","",""
"html-button-response","142","213603","0.0-4.0-1.0-1.40","2","0","4pyod8twaa85390","","733.2999992370605","","Was the sound coming from the left or the right?","0","","","1","INDUCTION-JUDGMENT","left","0","","","","","","","","","","","","","","","","","","","","","","","","","","",""
"html-keyboard-response","143","214609","0.0-4.0-1.0-2.40","2","0","4pyod8twaa85390","","null","","<p style=""color:#054d00;""><b>Correct!</b></p>","","null","","","","","","","","","","","","","","","","","","","","","","","","","","","","","","","",""
"audio-keyboard-response","144","215416","0.0-4.0-1.0-0.41","2","0","4pyod8twaa85390","","null","","sounds/induction/left_rev/ko_SWS.wav","","null","","","","","","","","","","","","","","","","","","","","","","","","","","","","","","","",""
"html-button-response","145","216015","0.0-4.0-1.0-1.41","2","0","4pyod8twaa85390","","595.6000003814697","","Was the sound coming from the left or the right?","0","","","1","INDUCTION-JUDGMENT","left","0","","","","","","","","","","","","","","","","","","","","","","","","","","",""
"html-keyboard-response","146","217021","0.0-4.0-1.0-2.41","2","0","4pyod8twaa85390","","null","","<p style=""color:#054d00;""><b>Correct!</b></p>","","null","","","","","","","","","","","","","","","","","","","","","","","","","","","","","","","",""
"audio-keyboard-response","147","217827","0.0-4.0-1.0-0.42","2","0","4pyod8twaa85390","","null","","sounds/induction/left_rev/fe_SWS.wav","","null","","","","","","","","","","","","","","","","","","","","","","","","","","","","","","","",""
"html-button-response","148","218370","0.0-4.0-1.0-1.42","2","0","4pyod8twaa85390","","539.8999996185303","","Was the sound coming from the left or the right?","0","","","1","INDUCTION-JUDGMENT","left","0","","","","","","","","","","","","","","","","","","","","","","","","","","",""
"html-keyboard-response","149","219375","0.0-4.0-1.0-2.42","2","0","4pyod8twaa85390","","null","","<p style=""color:#054d00;""><b>Correct!</b></p>","","null","","","","","","","","","","","","","","","","","","","","","","","","","","","","","","","",""
"audio-keyboard-response","150","220179","0.0-4.0-1.0-0.43","2","0","4pyod8twaa85390","","null","","sounds/induction/left_rev/ru_SWS.wav","","null","","","","","","","","","","","","","","","","","","","","","","","","","","","","","","","",""
"html-button-response","151","220741","0.0-4.0-1.0-1.43","2","0","4pyod8twaa85390","","559.3000011444092","","Was the sound coming from the left or the right?","0","","","1","INDUCTION-JUDGMENT","left","0","","","","","","","","","","","","","","","","","","","","","","","","","","",""
"html-keyboard-response","152","221747","0.0-4.0-1.0-2.43","2","0","4pyod8twaa85390","","null","","<p style=""color:#054d00;""><b>Correct!</b></p>","","null","","","","","","","","","","","","","","","","","","","","","","","","","","","","","","","",""
"audio-keyboard-response","153","222552","0.0-4.0-1.0-0.44","2","0","4pyod8twaa85390","","null","","sounds/induction/right_rev/me_SWS.wav","","null","","","","","","","","","","","","","","","","","","","","","","","","","","","","","","","",""
"html-button-response","154","223170","0.0-4.0-1.0-1.44","2","0","4pyod8twaa85390","","613.8000011444092","","Was the sound coming from the left or the right?","1","","","1","INDUCTION-JUDGMENT","right","1","","","","","","","","","","","","","","","","","","","","","","","","","","",""
"html-keyboard-response","155","224177","0.0-4.0-1.0-2.44","2","0","4pyod8twaa85390","","null","","<p style=""color:#054d00;""><b>Correct!</b></p>","","null","","","","","","","","","","","","","","","","","","","","","","","","","","","","","","","",""
"audio-keyboard-response","156","224979","0.0-4.0-1.0-0.45","2","0","4pyod8twaa85390","","null","","sounds/induction/right_rev/re_SWS.wav","","null","","","","","","","","","","","","","","","","","","","","","","","","","","","","","","","",""
"html-button-response","157","225668","0.0-4.0-1.0-1.45","2","0","4pyod8twaa85390","","685.7000007629395","","Was the sound coming from the left or the right?","1","","","1","INDUCTION-JUDGMENT","right","1","","","","","","","","","","","","","","","","","","","","","","","","","","",""
"html-keyboard-response","158","226673","0.0-4.0-1.0-2.45","2","0","4pyod8twaa85390","","null","","<p style=""color:#054d00;""><b>Correct!</b></p>","","null","","","","","","","","","","","","","","","","","","","","","","","","","","","","","","","",""
"audio-keyboard-response","159","227480","0.0-4.0-1.0-0.46","2","0","4pyod8twaa85390","","null","","sounds/induction/left_rev/ge_SWS.wav","","null","","","","","","","","","","","","","","","","","","","","","","","","","","","","","","","",""
"html-button-response","160","227927","0.0-4.0-1.0-1.46","2","0","4pyod8twaa85390","","444.3999996185303","","Was the sound coming from the left or the right?","0","","","1","INDUCTION-JUDGMENT","left","0","","","","","","","","","","","","","","","","","","","","","","","","","","",""
"html-keyboard-response","161","228935","0.0-4.0-1.0-2.46","2","0","4pyod8twaa85390","","null","","<p style=""color:#054d00;""><b>Correct!</b></p>","","null","","","","","","","","","","","","","","","","","","","","","","","","","","","","","","","",""
"audio-keyboard-response","162","229741","0.0-4.0-1.0-0.47","2","0","4pyod8twaa85390","","null","","sounds/induction/left_rev/re_SWS.wav","","null","","","","","","","","","","","","","","","","","","","","","","","","","","","","","","","",""
"html-button-response","163","230578","0.0-4.0-1.0-1.47","2","0","4pyod8twaa85390","","833.6999988555908","","Was the sound coming from the left or the right?","0","","","1","INDUCTION-JUDGMENT","left","0","","","","","","","","","","","","","","","","","","","","","","","","","","",""
"html-keyboard-response","164","231585","0.0-4.0-1.0-2.47","2","0","4pyod8twaa85390","","null","","<p style=""color:#054d00;""><b>Correct!</b></p>","","null","","","","","","","","","","","","","","","","","","","","","","","","","","","","","","","",""
"html-button-response","165","237317","0.0-5.0-0.0","2","0","4pyod8twaa85390","","5224.89999961853","","<p>Thank you for your answers.</p><p>You will now listen to similar sounds. The main difference is that the sounds will be longer.</p><p>Just as before, you will be asked to judge whether the sound was coming from the left or the right.</p><p>There are 10 of these longer sounds in total.","0","","","","","","","","","","","","","","","","","","","","","","","","","","","","","","","","",""
"audio-keyboard-response","166","239901","0.0-5.0-1.0-0.0","2","0","4pyod8twaa85390","","null","","sounds/sentences/left_rev/14_03_cfSWS.wav","","null","","","","","","","","","","","","","","","","","","","","","","","","","","","","","","","",""
"html-button-response","167","240598","0.0-5.0-1.0-1.0","2","0","4pyod8twaa85390","","695.1000003814697","","Was the sound coming from the left or the right?","0","","","1","INDUCTION-JUDGMENT","left","0","","","","","","","","","","","","","","","","","","","","","","","","","","",""
"html-keyboard-response","168","241600","0.0-5.0-1.0-2.0","2","0","4pyod8twaa85390","","null","","<p style=""color:#054d00;""><b>Correct!</b></p>","","null","","","","","","","","","","","","","","","","","","","","","","","","","","","","","","","",""
"html-button-response","169","244007","0.0-5.0-1.0-3.0","2","0","4pyod8twaa85390","","1904.8999996185303","","<p>Press the button below when you are ready to continue.</p>","0","","","","","","","","","","","","","","","","","","","","","","","","","","","","","","","","",""
"audio-keyboard-response","170","246754","0.0-5.0-1.0-0.1","2","0","4pyod8twaa85390","","null","","sounds/sentences/right_rev/14_06_cfSWS.wav","","null","","","","","","","","","","","","","","","","","","","","","","","","","","","","","","","",""
"html-button-response","171","247209","0.0-5.0-1.0-1.1","2","0","4pyod8twaa85390","","452.20000076293945","","Was the sound coming from the left or the right?","1","","","1","INDUCTION-JUDGMENT","right","1","","","","","","","","","","","","","","","","","","","","","","","","","","",""
"html-keyboard-response","172","248213","0.0-5.0-1.0-2.1","2","0","4pyod8twaa85390","","null","","<p style=""color:#054d00;""><b>Correct!</b></p>","","null","","","","","","","","","","","","","","","","","","","","","","","","","","","","","","","",""
"html-button-response","173","249434","0.0-5.0-1.0-3.1","2","0","4pyod8twaa85390","","716.1000003814697","","<p>Press the button below when you are ready to continue.</p>","0","","","","","","","","","","","","","","","","","","","","","","","","","","","","","","","","",""
"audio-keyboard-response","174","252258","0.0-5.0-1.0-0.2","2","0","4pyod8twaa85390","","null","","sounds/sentences/left_rev/14_02_cfSWS.wav","","null","","","","","","","","","","","","","","","","","","","","","","","","","","","","","","","",""
"html-button-response","175","252870","0.0-5.0-1.0-1.2","2","0","4pyod8twaa85390","","610.3999996185303","","Was the sound coming from the left or the right?","0","","","1","INDUCTION-JUDGMENT","left","0","","","","","","","","","","","","","","","","","","","","","","","","","","",""
"html-keyboard-response","176","253877","0.0-5.0-1.0-2.2","2","0","4pyod8twaa85390","","null","","<p style=""color:#054d00;""><b>Correct!</b></p>","","null","","","","","","","","","","","","","","","","","","","","","","","","","","","","","","","",""
"html-button-response","177","254729","0.0-5.0-1.0-3.2","2","0","4pyod8twaa85390","","348.1999988555908","","<p>Press the button below when you are ready to continue.</p>","0","","","","","","","","","","","","","","","","","","","","","","","","","","","","","","","","",""
"audio-keyboard-response","178","257618","0.0-5.0-1.0-0.3","2","0","4pyod8twaa85390","","null","","sounds/sentences/right_rev/14_07_cfSWS.wav","","null","","","","","","","","","","","","","","","","","","","","","","","","","","","","","","","",""
"html-button-response","179","258021","0.0-5.0-1.0-1.3","2","0","4pyod8twaa85390","","401.3000011444092","","Was the sound coming from the left or the right?","1","","","1","INDUCTION-JUDGMENT","right","1","","","","","","","","","","","","","","","","","","","","","","","","","","",""
"html-keyboard-response","180","259023","0.0-5.0-1.0-2.3","2","0","4pyod8twaa85390","","null","","<p style=""color:#054d00;""><b>Correct!</b></p>","","null","","","","","","","","","","","","","","","","","","","","","","","","","","","","","","","",""
"html-button-response","181","260378","0.0-5.0-1.0-3.3","2","0","4pyod8twaa85390","","852.0999984741211","","<p>Press the button below when you are ready to continue.</p>","0","","","","","","","","","","","","","","","","","","","","","","","","","","","","","","","","",""
"audio-keyboard-response","182","262929","0.0-5.0-1.0-0.4","2","0","4pyod8twaa85390","","null","","sounds/sentences/left_rev/14_04_cfSWS.wav","","null","","","","","","","","","","","","","","","","","","","","","","","","","","","","","","","",""
"html-button-response","183","263306","0.0-5.0-1.0-1.4","2","0","4pyod8twaa85390","","374.70000076293945","","Was the sound coming from the left or the right?","0","","","1","INDUCTION-JUDGMENT","left","0","","","","","","","","","","","","","","","","","","","","","","","","","","",""
"html-keyboard-response","184","264309","0.0-5.0-1.0-2.4","2","0","4pyod8twaa85390","","null","","<p style=""color:#054d00;""><b>Correct!</b></p>","","null","","","","","","","","","","","","","","","","","","","","","","","","","","","","","","","",""
"html-button-response","185","265613","0.0-5.0-1.0-3.4","2","0","4pyod8twaa85390","","796.9000015258789","","<p>Press the button below when you are ready to continue.</p>","0","","","","","","","","","","","","","","","","","","","","","","","","","","","","","","","","",""
"audio-keyboard-response","186","268369","0.0-5.0-1.0-0.5","2","0","4pyod8twaa85390","","null","","sounds/sentences/right_rev/14_08_cfSWS.wav","","null","","","","","","","","","","","","","","","","","","","","","","","","","","","","","","","",""
"html-button-response","187","268791","0.0-5.0-1.0-1.5","2","0","4pyod8twaa85390","","420.1000003814697","","Was the sound coming from the left or the right?","1","","","1","INDUCTION-JUDGMENT","right","1","","","","","","","","","","","","","","","","","","","","","","","","","","",""
"html-keyboard-response","188","269798","0.0-5.0-1.0-2.5","2","0","4pyod8twaa85390","","null","","<p style=""color:#054d00;""><b>Correct!</b></p>","","null","","","","","","","","","","","","","","","","","","","","","","","","","","","","","","","",""
"html-button-response","189","270843","0.0-5.0-1.0-3.5","2","0","4pyod8twaa85390","","538.2999992370605","","<p>Press the button below when you are ready to continue.</p>","0","","","","","","","","","","","","","","","","","","","","","","","","","","","","","","","","",""
"audio-keyboard-response","190","273574","0.0-5.0-1.0-0.6","2","0","4pyod8twaa85390","","null","","sounds/sentences/right_rev/14_09_cfSWS.wav","","null","","","","","","","","","","","","","","","","","","","","","","","","","","","","","","","",""
"html-button-response","191","274349","0.0-5.0-1.0-1.6","2","0","4pyod8twaa85390","","771.8999996185303","","Was the sound coming from the left or the right?","1","","","1","INDUCTION-JUDGMENT","right","1","","","","","","","","","","","","","","","","","","","","","","","","","","",""
"html-keyboard-response","192","275353","0.0-5.0-1.0-2.6","2","0","4pyod8twaa85390","","null","","<p style=""color:#054d00;""><b>Correct!</b></p>","","null","","","","","","","","","","","","","","","","","","","","","","","","","","","","","","","",""
"html-button-response","193","276550","0.0-5.0-1.0-3.6","2","0","4pyod8twaa85390","","694.7000007629395","","<p>Press the button below when you are ready to continue.</p>","0","","","","","","","","","","","","","","","","","","","","","","","","","","","","","","","","",""
"audio-keyboard-response","194","279542","0.0-5.0-1.0-0.7","2","0","4pyod8twaa85390","","null","","sounds/sentences/left_rev/14_05_cfSWS.wav","","null","","","","","","","","","","","","","","","","","","","","","","","","","","","","","","","",""
"html-button-response","195","279960","0.0-5.0-1.0-1.7","2","0","4pyod8twaa85390","","416.1000003814697","","Was the sound coming from the left or the right?","0","","","1","INDUCTION-JUDGMENT","left","0","","","","","","","","","","","","","","","","","","","","","","","","","","",""
"html-keyboard-response","196","280964","0.0-5.0-1.0-2.7","2","0","4pyod8twaa85390","","null","","<p style=""color:#054d00;""><b>Correct!</b></p>","","null","","","","","","","","","","","","","","","","","","","","","","","","","","","","","","","",""
"html-button-response","197","282132","0.0-5.0-1.0-3.7","2","0","4pyod8twaa85390","","665.6000003814697","","<p>Press the button below when you are ready to continue.</p>","0","","","","","","","","","","","","","","","","","","","","","","","","","","","","","","","","",""
"audio-keyboard-response","198","285147","0.0-5.0-1.0-0.8","2","0","4pyod8twaa85390","","null","","sounds/sentences/right_rev/14_10_cfSWS.wav","","null","","","","","","","","","","","","","","","","","","","","","","","","","","","","","","","",""
"html-button-response","199","285550","0.0-5.0-1.0-1.8","2","0","4pyod8twaa85390","","401.5","","Was the sound coming from the left or the right?","1","","","1","INDUCTION-JUDGMENT","right","1","","","","","","","","","","","","","","","","","","","","","","","","","","",""
"html-keyboard-response","200","286553","0.0-5.0-1.0-2.8","2","0","4pyod8twaa85390","","null","","<p style=""color:#054d00;""><b>Correct!</b></p>","","null","","","","","","","","","","","","","","","","","","","","","","","","","","","","","","","",""
"html-button-response","201","288038","0.0-5.0-1.0-3.8","2","0","4pyod8twaa85390","","981.3000011444092","","<p>Press the button below when you are ready to continue.</p>","0","","","","","","","","","","","","","","","","","","","","","","","","","","","","","","","","",""
"audio-keyboard-response","202","291158","0.0-5.0-1.0-0.9","2","0","4pyod8twaa85390","","null","","sounds/sentences/left_rev/14_01_cfSWS.wav","","null","","","","","","","","","","","","","","","","","","","","","","","","","","","","","","","",""
"html-button-response","203","291594","0.0-5.0-1.0-1.9","2","0","4pyod8twaa85390","","434.1000003814697","","Was the sound coming from the left or the right?","0","","","1","INDUCTION-JUDGMENT","left","0","","","","","","","","","","","","","","","","","","","","","","","","","","",""
"html-keyboard-response","204","292596","0.0-5.0-1.0-2.9","2","0","4pyod8twaa85390","","null","","<p style=""color:#054d00;""><b>Correct!</b></p>","","null","","","","","","","","","","","","","","","","","","","","","","","","","","","","","","","",""
"html-button-response","205","294394","0.0-5.0-1.0-3.9","2","0","4pyod8twaa85390","","1295.7000007629395","","<p>Press the button below when you are ready to continue.</p>","0","","","","","","","","","","","","","","","","","","","","","","","","","","","","","","","","",""
"html-keyboard-response","206","317709","0.0-6.0-0.0","2","0","4pyod8twaa85390","","22811","","<p>In this part of the study, you will hear sounds similar to those you just heard.</p><p>Please focus on these sounds, as you may be asked questions about them later.</p><p>Occasionally, the sounds will pause for up to two seconds. When this happens, please press SPACEBAR as quickly as you can.</br>This helps ensure that you are paying attention to the sounds.</p><p>This part of the study will take about 12 minutes to complete, and you will be given the opportunity to take a couple of short breaks every few minutes.</p><p><strong>Press SPACEBAR to begin</strong></p>","","32","","","","","","","","","","","","","","","","","","","","","","","","","","","","","","","",""
"html-keyboard-response","207","318714","0.0-6.0-1.0-0.0","2","0","4pyod8twaa85390","","null","","<p style=""font-size: 40px;"">+</p>","","null","","","","","","","","","","","","","","","","","","","","","","","","","","","","","","","",""
"html-keyboard-response","208","503724","0.0-6.0-1.0-1.0","2","0","4pyod8twaa85390","","null","","","","null","","","SL-TRAIN","","","0","763.2999992370605","1081.7999992370605","sounds/B/TRAIN/SEQ__07.mp3","3","","","","","","","","","","","","","","","","","","","","","",""
"html-button-response","209","506646","0.0-6.0-1.0-2.0","2","0","4pyod8twaa85390","","2919.8999996185303","","<p>You may take a short break if you wish.</p>","0","","","","","","","","","","","","","","","","","","","","","","","","","","","","","","","","",""
"html-keyboard-response","210","507650","0.0-6.0-1.0-3.0","2","0","4pyod8twaa85390","","null","","<p style=""font-size: 40px;"">+</p>","","null","","","","","","","","","","","","","","","","","","","","","","","","","","","","","","","",""
"html-keyboard-response","211","692656","0.0-6.0-1.0-4.0","2","0","4pyod8twaa85390","","null","","","","null","","","SL-TRAIN","","","0","704.2999992370605","890.3999996185303","sounds/B/TRAIN/SEQ__02.mp3","7","","","","","","","","","","","","","","","","","","","","","",""
"html-button-response","212","694500","0.0-6.0-1.0-5.0","2","0","4pyod8twaa85390","","1841.2000007629395","","<p>You may take a short break if you wish.</p>","0","","","","","","","","","","","","","","","","","","","","","","","","","","","","","","","","",""
"html-keyboard-response","213","695505","0.0-6.0-1.0-6.0","2","0","4pyod8twaa85390","","null","","<p style=""font-size: 40px;"">+</p>","","null","","","","","","","","","","","","","","","","","","","","","","","","","","","","","","","",""
"html-keyboard-response","214","880506","0.0-6.0-1.0-7.0","2","0","4pyod8twaa85390","","null","","","","null","","","SL-TRAIN","","","0","715.6999988555908","1151.1999988555908","sounds/B/TRAIN/SEQ__11.mp3","8","","","","","","","","","","","","","","","","","","","","","",""
"html-button-response","215","882976","0.0-6.0-1.0-8.0","2","0","4pyod8twaa85390","","2468.8999996185303","","<p>You may take a short break if you wish.</p>","0","","","","","","","","","","","","","","","","","","","","","","","","","","","","","","","","",""
"html-keyboard-response","216","883980","0.0-6.0-1.0-9.0","2","0","4pyod8twaa85390","","null","","<p style=""font-size: 40px;"">+</p>","","null","","","","","","","","","","","","","","","","","","","","","","","","","","","","","","","",""
"html-keyboard-response","217","1068980","0.0-6.0-1.0-10.0","2","0","4pyod8twaa85390","","null","","","","null","","","SL-TRAIN","","","0","847.2999992370605","1110.5","sounds/B/TRAIN/SEQ__09.mp3","11","","","","","","","","","","","","","","","","","","","","","",""
"html-button-response","218","1071438","0.0-6.0-1.0-11.0","2","0","4pyod8twaa85390","","2456.6000003814697","","<p>You may take a short break if you wish.</p>","0","","","","","","","","","","","","","","","","","","","","","","","","","","","","","","","","",""
"html-button-response","219","1077541","0.0-7.0-0.0","2","0","4pyod8twaa85390","","6101.89999961853","","<p>Welcome to the second part of the study. This is a <u>familiarity task</u>.</p><p>You will now hear short sounds and will be asked to rate how familiar they sound to you <b>based on what you heard in the previous part of the study</b>.</p><p>You will rate 12 sounds in total.</p>","0","","","","","","","","","","","","","","","","","","","","","","","","","","","","","","","","",""
"html-keyboard-response","220","1078544","0.0-7.0-1.0-0.0","2","0","4pyod8twaa85390","","null","","","","null","","","","","","","","","","","","","","","","","","","","","","","","","","","","","","","",""
"audio-keyboard-response","221","1079491","0.0-7.0-1.0-1.0","2","0","4pyod8twaa85390","","null","","sounds/B/FAM/P004.mp3","","null","","","","","","","","","","","","","","","","","","","","","","","","","","","","","","","",""
"html-keyboard-response","222","1084783","0.0-7.0-1.0-2.0","2","0","4pyod8twaa85390","","4787.5","","<p>How familiar did this sound to you?</p><p>1&nbsp;&nbsp;&nbsp;&nbsp;&nbsp;&nbsp;&nbsp;&nbsp;&nbsp;&nbsp;&nbsp;&nbsp;&nbsp;&nbsp;&nbsp;&nbsp;&nbsp;&nbsp;&nbsp;2&nbsp;&nbsp;&nbsp;&nbsp;&nbsp;&nbsp;&nbsp;&nbsp;&nbsp;&nbsp;&nbsp;&nbsp;&nbsp;&nbsp;&nbsp;&nbsp;&nbsp;&nbsp;&nbsp;3&nbsp;&nbsp;&nbsp;&nbsp;&nbsp;&nbsp;&nbsp;&nbsp;&nbsp;&nbsp;&nbsp;&nbsp;&nbsp;&nbsp;&nbsp;&nbsp;&nbsp;&nbsp;&nbsp;4</p><p style=""font-size:14px"">Not at all familiar&nbsp;&nbsp;&nbsp;&nbsp;A little familiar&nbsp;&nbsp;&nbsp;Moderately familiar&nbsp;&nbsp;&nbsp;Extremely familiar</p><p>(press the corresponding number on your keyboard)</p>","","51","","","FAM-RESPONSE","","","","","","","","sounds/B/FAM/P004.mp3","partword","","","","","","","","","","","","","","","","","","","",""
"html-keyboard-response","223","1086790","0.0-7.0-1.0-0.1","2","0","4pyod8twaa85390","","null","","","","null","","","","","","","","","","","","","","","","","","","","","","","","","","","","","","","",""
"audio-keyboard-response","224","1087736","0.0-7.0-1.0-1.1","2","0","4pyod8twaa85390","","null","","sounds/B/FAM/P001.mp3","","null","","","","","","","","","","","","","","","","","","","","","","","","","","","","","","","",""
"html-keyboard-response","225","1090492","0.0-7.0-1.0-2.1","2","0","4pyod8twaa85390","","2250.8999996185303","","<p>How familiar did this sound to you?</p><p>1&nbsp;&nbsp;&nbsp;&nbsp;&nbsp;&nbsp;&nbsp;&nbsp;&nbsp;&nbsp;&nbsp;&nbsp;&nbsp;&nbsp;&nbsp;&nbsp;&nbsp;&nbsp;&nbsp;2&nbsp;&nbsp;&nbsp;&nbsp;&nbsp;&nbsp;&nbsp;&nbsp;&nbsp;&nbsp;&nbsp;&nbsp;&nbsp;&nbsp;&nbsp;&nbsp;&nbsp;&nbsp;&nbsp;3&nbsp;&nbsp;&nbsp;&nbsp;&nbsp;&nbsp;&nbsp;&nbsp;&nbsp;&nbsp;&nbsp;&nbsp;&nbsp;&nbsp;&nbsp;&nbsp;&nbsp;&nbsp;&nbsp;4</p><p style=""font-size:14px"">Not at all familiar&nbsp;&nbsp;&nbsp;&nbsp;A little familiar&nbsp;&nbsp;&nbsp;Moderately familiar&nbsp;&nbsp;&nbsp;Extremely familiar</p><p>(press the corresponding number on your keyboard)</p>","","51","","","FAM-RESPONSE","","","","","","","","sounds/B/FAM/P001.mp3","partword","","","","","","","","","","","","","","","","","","","",""
"html-keyboard-response","226","1092496","0.0-7.0-1.0-0.2","2","0","4pyod8twaa85390","","null","","","","null","","","","","","","","","","","","","","","","","","","","","","","","","","","","","","","",""
"audio-keyboard-response","227","1093437","0.0-7.0-1.0-1.2","2","0","4pyod8twaa85390","","null","","sounds/B/FAM/N002.mp3","","null","","","","","","","","","","","","","","","","","","","","","","","","","","","","","","","",""
"html-keyboard-response","228","1095211","0.0-7.0-1.0-2.2","2","0","4pyod8twaa85390","","1269.5","","<p>How familiar did this sound to you?</p><p>1&nbsp;&nbsp;&nbsp;&nbsp;&nbsp;&nbsp;&nbsp;&nbsp;&nbsp;&nbsp;&nbsp;&nbsp;&nbsp;&nbsp;&nbsp;&nbsp;&nbsp;&nbsp;&nbsp;2&nbsp;&nbsp;&nbsp;&nbsp;&nbsp;&nbsp;&nbsp;&nbsp;&nbsp;&nbsp;&nbsp;&nbsp;&nbsp;&nbsp;&nbsp;&nbsp;&nbsp;&nbsp;&nbsp;3&nbsp;&nbsp;&nbsp;&nbsp;&nbsp;&nbsp;&nbsp;&nbsp;&nbsp;&nbsp;&nbsp;&nbsp;&nbsp;&nbsp;&nbsp;&nbsp;&nbsp;&nbsp;&nbsp;4</p><p style=""font-size:14px"">Not at all familiar&nbsp;&nbsp;&nbsp;&nbsp;A little familiar&nbsp;&nbsp;&nbsp;Moderately familiar&nbsp;&nbsp;&nbsp;Extremely familiar</p><p>(press the corresponding number on your keyboard)</p>","","50","","","FAM-RESPONSE","","","","","","","","sounds/B/FAM/N002.mp3","nonword","","","","","","","","","","","","","","","","","","","",""
"html-keyboard-response","229","1097220","0.0-7.0-1.0-0.3","2","0","4pyod8twaa85390","","null","","","","null","","","","","","","","","","","","","","","","","","","","","","","","","","","","","","","",""
"audio-keyboard-response","230","1098162","0.0-7.0-1.0-1.3","2","0","4pyod8twaa85390","","null","","sounds/B/FAM/W002.mp3","","null","","","","","","","","","","","","","","","","","","","","","","","","","","","","","","","",""
"html-keyboard-response","231","1101524","0.0-7.0-1.0-2.3","2","0","4pyod8twaa85390","","2857.1000003814697","","<p>How familiar did this sound to you?</p><p>1&nbsp;&nbsp;&nbsp;&nbsp;&nbsp;&nbsp;&nbsp;&nbsp;&nbsp;&nbsp;&nbsp;&nbsp;&nbsp;&nbsp;&nbsp;&nbsp;&nbsp;&nbsp;&nbsp;2&nbsp;&nbsp;&nbsp;&nbsp;&nbsp;&nbsp;&nbsp;&nbsp;&nbsp;&nbsp;&nbsp;&nbsp;&nbsp;&nbsp;&nbsp;&nbsp;&nbsp;&nbsp;&nbsp;3&nbsp;&nbsp;&nbsp;&nbsp;&nbsp;&nbsp;&nbsp;&nbsp;&nbsp;&nbsp;&nbsp;&nbsp;&nbsp;&nbsp;&nbsp;&nbsp;&nbsp;&nbsp;&nbsp;4</p><p style=""font-size:14px"">Not at all familiar&nbsp;&nbsp;&nbsp;&nbsp;A little familiar&nbsp;&nbsp;&nbsp;Moderately familiar&nbsp;&nbsp;&nbsp;Extremely familiar</p><p>(press the corresponding number on your keyboard)</p>","","50","","","FAM-RESPONSE","","","","","","","","sounds/B/FAM/W002.mp3","word","","","","","","","","","","","","","","","","","","","",""
"html-keyboard-response","232","1103530","0.0-7.0-1.0-0.4","2","0","4pyod8twaa85390","","null","","","","null","","","","","","","","","","","","","","","","","","","","","","","","","","","","","","","",""
"audio-keyboard-response","233","1104477","0.0-7.0-1.0-1.4","2","0","4pyod8twaa85390","","null","","sounds/B/FAM/P003.mp3","","null","","","","","","","","","","","","","","","","","","","","","","","","","","","","","","","",""
"html-keyboard-response","234","1105658","0.0-7.0-1.0-2.4","2","0","4pyod8twaa85390","","676.3999996185303","","<p>How familiar did this sound to you?</p><p>1&nbsp;&nbsp;&nbsp;&nbsp;&nbsp;&nbsp;&nbsp;&nbsp;&nbsp;&nbsp;&nbsp;&nbsp;&nbsp;&nbsp;&nbsp;&nbsp;&nbsp;&nbsp;&nbsp;2&nbsp;&nbsp;&nbsp;&nbsp;&nbsp;&nbsp;&nbsp;&nbsp;&nbsp;&nbsp;&nbsp;&nbsp;&nbsp;&nbsp;&nbsp;&nbsp;&nbsp;&nbsp;&nbsp;3&nbsp;&nbsp;&nbsp;&nbsp;&nbsp;&nbsp;&nbsp;&nbsp;&nbsp;&nbsp;&nbsp;&nbsp;&nbsp;&nbsp;&nbsp;&nbsp;&nbsp;&nbsp;&nbsp;4</p><p style=""font-size:14px"">Not at all familiar&nbsp;&nbsp;&nbsp;&nbsp;A little familiar&nbsp;&nbsp;&nbsp;Moderately familiar&nbsp;&nbsp;&nbsp;Extremely familiar</p><p>(press the corresponding number on your keyboard)</p>","","52","","","FAM-RESPONSE","","","","","","","","sounds/B/FAM/P003.mp3","partword","","","","","","","","","","","","","","","","","","","",""
"html-keyboard-response","235","1107663","0.0-7.0-1.0-0.5","2","0","4pyod8twaa85390","","null","","","","null","","","","","","","","","","","","","","","","","","","","","","","","","","","","","","","",""
"audio-keyboard-response","236","1108606","0.0-7.0-1.0-1.5","2","0","4pyod8twaa85390","","null","","sounds/B/FAM/N001.mp3","","null","","","","","","","","","","","","","","","","","","","","","","","","","","","","","","","",""
"html-keyboard-response","237","1110598","0.0-7.0-1.0-2.5","2","0","4pyod8twaa85390","","1487.8000011444092","","<p>How familiar did this sound to you?</p><p>1&nbsp;&nbsp;&nbsp;&nbsp;&nbsp;&nbsp;&nbsp;&nbsp;&nbsp;&nbsp;&nbsp;&nbsp;&nbsp;&nbsp;&nbsp;&nbsp;&nbsp;&nbsp;&nbsp;2&nbsp;&nbsp;&nbsp;&nbsp;&nbsp;&nbsp;&nbsp;&nbsp;&nbsp;&nbsp;&nbsp;&nbsp;&nbsp;&nbsp;&nbsp;&nbsp;&nbsp;&nbsp;&nbsp;3&nbsp;&nbsp;&nbsp;&nbsp;&nbsp;&nbsp;&nbsp;&nbsp;&nbsp;&nbsp;&nbsp;&nbsp;&nbsp;&nbsp;&nbsp;&nbsp;&nbsp;&nbsp;&nbsp;4</p><p style=""font-size:14px"">Not at all familiar&nbsp;&nbsp;&nbsp;&nbsp;A little familiar&nbsp;&nbsp;&nbsp;Moderately familiar&nbsp;&nbsp;&nbsp;Extremely familiar</p><p>(press the corresponding number on your keyboard)</p>","","50","","","FAM-RESPONSE","","","","","","","","sounds/B/FAM/N001.mp3","nonword","","","","","","","","","","","","","","","","","","","",""
"html-keyboard-response","238","1112602","0.0-7.0-1.0-0.6","2","0","4pyod8twaa85390","","null","","","","null","","","","","","","","","","","","","","","","","","","","","","","","","","","","","","","",""
"audio-keyboard-response","239","1113543","0.0-7.0-1.0-1.6","2","0","4pyod8twaa85390","","null","","sounds/B/FAM/P002.mp3","","null","","","","","","","","","","","","","","","","","","","","","","","","","","","","","","","",""
"html-keyboard-response","240","1115931","0.0-7.0-1.0-2.6","2","0","4pyod8twaa85390","","1882.3999996185303","","<p>How familiar did this sound to you?</p><p>1&nbsp;&nbsp;&nbsp;&nbsp;&nbsp;&nbsp;&nbsp;&nbsp;&nbsp;&nbsp;&nbsp;&nbsp;&nbsp;&nbsp;&nbsp;&nbsp;&nbsp;&nbsp;&nbsp;2&nbsp;&nbsp;&nbsp;&nbsp;&nbsp;&nbsp;&nbsp;&nbsp;&nbsp;&nbsp;&nbsp;&nbsp;&nbsp;&nbsp;&nbsp;&nbsp;&nbsp;&nbsp;&nbsp;3&nbsp;&nbsp;&nbsp;&nbsp;&nbsp;&nbsp;&nbsp;&nbsp;&nbsp;&nbsp;&nbsp;&nbsp;&nbsp;&nbsp;&nbsp;&nbsp;&nbsp;&nbsp;&nbsp;4</p><p style=""font-size:14px"">Not at all familiar&nbsp;&nbsp;&nbsp;&nbsp;A little familiar&nbsp;&nbsp;&nbsp;Moderately familiar&nbsp;&nbsp;&nbsp;Extremely familiar</p><p>(press the corresponding number on your keyboard)</p>","","50","","","FAM-RESPONSE","","","","","","","","sounds/B/FAM/P002.mp3","partword","","","","","","","","","","","","","","","","","","","",""
"html-keyboard-response","241","1117935","0.0-7.0-1.0-0.7","2","0","4pyod8twaa85390","","null","","","","null","","","","","","","","","","","","","","","","","","","","","","","","","","","","","","","",""
"audio-keyboard-response","242","1118876","0.0-7.0-1.0-1.7","2","0","4pyod8twaa85390","","null","","sounds/B/FAM/W004.mp3","","null","","","","","","","","","","","","","","","","","","","","","","","","","","","","","","","",""
"html-keyboard-response","243","1119931","0.0-7.0-1.0-2.7","2","0","4pyod8twaa85390","","550","","<p>How familiar did this sound to you?</p><p>1&nbsp;&nbsp;&nbsp;&nbsp;&nbsp;&nbsp;&nbsp;&nbsp;&nbsp;&nbsp;&nbsp;&nbsp;&nbsp;&nbsp;&nbsp;&nbsp;&nbsp;&nbsp;&nbsp;2&nbsp;&nbsp;&nbsp;&nbsp;&nbsp;&nbsp;&nbsp;&nbsp;&nbsp;&nbsp;&nbsp;&nbsp;&nbsp;&nbsp;&nbsp;&nbsp;&nbsp;&nbsp;&nbsp;3&nbsp;&nbsp;&nbsp;&nbsp;&nbsp;&nbsp;&nbsp;&nbsp;&nbsp;&nbsp;&nbsp;&nbsp;&nbsp;&nbsp;&nbsp;&nbsp;&nbsp;&nbsp;&nbsp;4</p><p style=""font-size:14px"">Not at all familiar&nbsp;&nbsp;&nbsp;&nbsp;A little familiar&nbsp;&nbsp;&nbsp;Moderately familiar&nbsp;&nbsp;&nbsp;Extremely familiar</p><p>(press the corresponding number on your keyboard)</p>","","51","","","FAM-RESPONSE","","","","","","","","sounds/B/FAM/W004.mp3","word","","","","","","","","","","","","","","","","","","","",""
"html-keyboard-response","244","1121940","0.0-7.0-1.0-0.8","2","0","4pyod8twaa85390","","null","","","","null","","","","","","","","","","","","","","","","","","","","","","","","","","","","","","","",""
"audio-keyboard-response","245","1122882","0.0-7.0-1.0-1.8","2","0","4pyod8twaa85390","","null","","sounds/B/FAM/N004.mp3","","null","","","","","","","","","","","","","","","","","","","","","","","","","","","","","","","",""
"html-keyboard-response","246","1124380","0.0-7.0-1.0-2.8","2","0","4pyod8twaa85390","","993.3999996185303","","<p>How familiar did this sound to you?</p><p>1&nbsp;&nbsp;&nbsp;&nbsp;&nbsp;&nbsp;&nbsp;&nbsp;&nbsp;&nbsp;&nbsp;&nbsp;&nbsp;&nbsp;&nbsp;&nbsp;&nbsp;&nbsp;&nbsp;2&nbsp;&nbsp;&nbsp;&nbsp;&nbsp;&nbsp;&nbsp;&nbsp;&nbsp;&nbsp;&nbsp;&nbsp;&nbsp;&nbsp;&nbsp;&nbsp;&nbsp;&nbsp;&nbsp;3&nbsp;&nbsp;&nbsp;&nbsp;&nbsp;&nbsp;&nbsp;&nbsp;&nbsp;&nbsp;&nbsp;&nbsp;&nbsp;&nbsp;&nbsp;&nbsp;&nbsp;&nbsp;&nbsp;4</p><p style=""font-size:14px"">Not at all familiar&nbsp;&nbsp;&nbsp;&nbsp;A little familiar&nbsp;&nbsp;&nbsp;Moderately familiar&nbsp;&nbsp;&nbsp;Extremely familiar</p><p>(press the corresponding number on your keyboard)</p>","","51","","","FAM-RESPONSE","","","","","","","","sounds/B/FAM/N004.mp3","nonword","","","","","","","","","","","","","","","","","","","",""
"html-keyboard-response","247","1126388","0.0-7.0-1.0-0.9","2","0","4pyod8twaa85390","","null","","","","null","","","","","","","","","","","","","","","","","","","","","","","","","","","","","","","",""
"audio-keyboard-response","248","1127329","0.0-7.0-1.0-1.9","2","0","4pyod8twaa85390","","null","","sounds/B/FAM/N003.mp3","","null","","","","","","","","","","","","","","","","","","","","","","","","","","","","","","","",""
"html-keyboard-response","249","1128598","0.0-7.0-1.0-2.9","2","0","4pyod8twaa85390","","764.1000003814697","","<p>How familiar did this sound to you?</p><p>1&nbsp;&nbsp;&nbsp;&nbsp;&nbsp;&nbsp;&nbsp;&nbsp;&nbsp;&nbsp;&nbsp;&nbsp;&nbsp;&nbsp;&nbsp;&nbsp;&nbsp;&nbsp;&nbsp;2&nbsp;&nbsp;&nbsp;&nbsp;&nbsp;&nbsp;&nbsp;&nbsp;&nbsp;&nbsp;&nbsp;&nbsp;&nbsp;&nbsp;&nbsp;&nbsp;&nbsp;&nbsp;&nbsp;3&nbsp;&nbsp;&nbsp;&nbsp;&nbsp;&nbsp;&nbsp;&nbsp;&nbsp;&nbsp;&nbsp;&nbsp;&nbsp;&nbsp;&nbsp;&nbsp;&nbsp;&nbsp;&nbsp;4</p><p style=""font-size:14px"">Not at all familiar&nbsp;&nbsp;&nbsp;&nbsp;A little familiar&nbsp;&nbsp;&nbsp;Moderately familiar&nbsp;&nbsp;&nbsp;Extremely familiar</p><p>(press the corresponding number on your keyboard)</p>","","49","","","FAM-RESPONSE","","","","","","","","sounds/B/FAM/N003.mp3","nonword","","","","","","","","","","","","","","","","","","","",""
"html-keyboard-response","250","1130601","0.0-7.0-1.0-0.10","2","0","4pyod8twaa85390","","null","","","","null","","","","","","","","","","","","","","","","","","","","","","","","","","","","","","","",""
"audio-keyboard-response","251","1131543","0.0-7.0-1.0-1.10","2","0","4pyod8twaa85390","","null","","sounds/B/FAM/W001.mp3","","null","","","","","","","","","","","","","","","","","","","","","","","","","","","","","","","",""
"html-keyboard-response","252","1132590","0.0-7.0-1.0-2.10","2","0","4pyod8twaa85390","","541.4000015258789","","<p>How familiar did this sound to you?</p><p>1&nbsp;&nbsp;&nbsp;&nbsp;&nbsp;&nbsp;&nbsp;&nbsp;&nbsp;&nbsp;&nbsp;&nbsp;&nbsp;&nbsp;&nbsp;&nbsp;&nbsp;&nbsp;&nbsp;2&nbsp;&nbsp;&nbsp;&nbsp;&nbsp;&nbsp;&nbsp;&nbsp;&nbsp;&nbsp;&nbsp;&nbsp;&nbsp;&nbsp;&nbsp;&nbsp;&nbsp;&nbsp;&nbsp;3&nbsp;&nbsp;&nbsp;&nbsp;&nbsp;&nbsp;&nbsp;&nbsp;&nbsp;&nbsp;&nbsp;&nbsp;&nbsp;&nbsp;&nbsp;&nbsp;&nbsp;&nbsp;&nbsp;4</p><p style=""font-size:14px"">Not at all familiar&nbsp;&nbsp;&nbsp;&nbsp;A little familiar&nbsp;&nbsp;&nbsp;Moderately familiar&nbsp;&nbsp;&nbsp;Extremely familiar</p><p>(press the corresponding number on your keyboard)</p>","","52","","","FAM-RESPONSE","","","","","","","","sounds/B/FAM/W001.mp3","word","","","","","","","","","","","","","","","","","","","",""
"html-keyboard-response","253","1134596","0.0-7.0-1.0-0.11","2","0","4pyod8twaa85390","","null","","","","null","","","","","","","","","","","","","","","","","","","","","","","","","","","","","","","",""
"audio-keyboard-response","254","1135537","0.0-7.0-1.0-1.11","2","0","4pyod8twaa85390","","null","","sounds/B/FAM/W003.mp3","","null","","","","","","","","","","","","","","","","","","","","","","","","","","","","","","","",""
"html-keyboard-response","255","1136619","0.0-7.0-1.0-2.11","2","0","4pyod8twaa85390","","576.5","","<p>How familiar did this sound to you?</p><p>1&nbsp;&nbsp;&nbsp;&nbsp;&nbsp;&nbsp;&nbsp;&nbsp;&nbsp;&nbsp;&nbsp;&nbsp;&nbsp;&nbsp;&nbsp;&nbsp;&nbsp;&nbsp;&nbsp;2&nbsp;&nbsp;&nbsp;&nbsp;&nbsp;&nbsp;&nbsp;&nbsp;&nbsp;&nbsp;&nbsp;&nbsp;&nbsp;&nbsp;&nbsp;&nbsp;&nbsp;&nbsp;&nbsp;3&nbsp;&nbsp;&nbsp;&nbsp;&nbsp;&nbsp;&nbsp;&nbsp;&nbsp;&nbsp;&nbsp;&nbsp;&nbsp;&nbsp;&nbsp;&nbsp;&nbsp;&nbsp;&nbsp;4</p><p style=""font-size:14px"">Not at all familiar&nbsp;&nbsp;&nbsp;&nbsp;A little familiar&nbsp;&nbsp;&nbsp;Moderately familiar&nbsp;&nbsp;&nbsp;Extremely familiar</p><p>(press the corresponding number on your keyboard)</p>","","51","","","FAM-RESPONSE","","","","","","","","sounds/B/FAM/W003.mp3","word","","","","","","","","","","","","","","","","","","","",""
"html-button-response","256","1151874","0.0-8.0-0.0","2","0","4pyod8twaa85390","","14253.70000076294","","<p>You will now listen to longer sound sequences.</p><p>Each sound sequence will last about 16 seconds.</p><p>On each trial, you will be given a <u>TARGET SOUND</u>. Your task is to listen very carefully for this sound.</p><p>Every time you hear the <u>TARGET SOUND</u>, you will press the <b>SPACEBAR</b> as quickly and accurately as you can.</p>","0","","","","","","","","","","","","","","","","","","","","","","","","","","","","","","","","",""
"html-button-response","257","1163549","0.0-8.0-1.0","2","0","4pyod8twaa85390","","11416.60000038147","","<p>It is very important that you make your responses as quickly and accurately as possible.</p><p>To help you make your responses, you will be able to listen to the <u>TARGET SOUND</u> at the beginning of each trial.</p><p>There will be 36 total trials.</p><p><b>Note: This is meant to be a difficult task. We simply want you to try your best.</p>","0","","","","","","","","","","","","","","","","","","","","","","","","","","","","","","","","",""
"html-button-response","258","1165152","0.0-8.0-2.0-0.0","2","0","4pyod8twaa85390","","1348.6000003814697","","<p>Trial 1 of 36</p>","0","","","","","","","","","","","","","","TA","sounds/syllables/ta_SWS.wav","4200,6000,7800,13200","3","","","","","","","","","","","","","","","",""
"html-keyboard-response","259","1167375","0.0-8.0-2.0-1.0","2","0","4pyod8twaa85390","","2222.1000003814697","","","","80","","","","","","","","","","","","","TA","","4200,6000,7800,13200","3","","","","","","","","","","","","","","","",""
"audio-keyboard-response","260","1167930","0.0-8.0-2.0-2.0-0.0","2","0","4pyod8twaa85390","","null","","sounds/syllables/ta_SWS.wav","","null","","","","","","","","","","","","","","","","","","","","","","","","","","","","","","","",""
"html-keyboard-response","261","1168962","0.0-8.0-2.0-2.0-1.0","2","0","4pyod8twaa85390","","1031.1000003814697","","<p>To replay the <u>TARGET SOUND</u>, press P.</p> When you are ready to begin, press SPACEBAR.","","80","","","","","","","","","","","","","","","","","","","","","","","","","","","","","","","",""
"audio-keyboard-response","262","1169771","0.0-8.0-2.0-2.1-0.1","2","0","4pyod8twaa85390","","null","","sounds/syllables/ta_SWS.wav","","null","","","","","","","","","","","","","","","","","","","","","","","","","","","","","","","",""
"html-keyboard-response","263","1171733","0.0-8.0-2.0-2.1-1.1","2","0","4pyod8twaa85390","","1960.3999996185303","","<p>To replay the <u>TARGET SOUND</u>, press P.</p> When you are ready to begin, press SPACEBAR.","","32","","","","","","","","","","","","","","","","","","","","","","","","","","","","","","","",""
"audio-keyboard-response","264","1186683","0.0-8.0-2.0-3.0","2","0","4pyod8twaa85390","","2571","","sounds/B/TD/TA_10_TD.mp3","","32","","","TD_SUMMARY","","","","","","","","","","TA","","4200,6000,7800,13200","3","4200","6000","7800","13200","600.8999996185303","281.6000003814697","531.6000003814697","591.3999996185303","2573.5_3570.800001144409_4800.89999961853_6281.60000038147_8331.60000038147_9815.80000114441_10307.60000038147_11619.20000076294_12346.10000038147_13791.39999961853","2","","","","","",""
"html-button-response","265","1188228","0.0-8.0-2.0-0.1","2","0","4pyod8twaa85390","","1541","","<p>Trial 2 of 36</p>","0","","","","","","","","","","","","","","NI","sounds/syllables/ni_SWS.wav","3000,8400,10200,12900","2","","","","","","","","","","","","","","","",""
"html-keyboard-response","266","1189752","0.0-8.0-2.0-1.1","2","0","4pyod8twaa85390","","1523","","","","80","","","","","","","","","","","","","NI","","3000,8400,10200,12900","2","","","","","","","","","","","","","","","",""
"audio-keyboard-response","267","1190052","0.0-8.0-2.0-2.2-0.2","2","0","4pyod8twaa85390","","null","","sounds/syllables/ni_SWS.wav","","null","","","","","","","","","","","","","","","","","","","","","","","","","","","","","","","",""
"html-keyboard-response","268","1190909","0.0-8.0-2.0-2.2-1.2","2","0","4pyod8twaa85390","","856","","<p>To replay the <u>TARGET SOUND</u>, press P.</p> When you are ready to begin, press SPACEBAR.","","80","","","","","","","","","","","","","","","","","","","","","","","","","","","","","","","",""
"audio-keyboard-response","269","1191711","0.0-8.0-2.0-2.3-0.3","2","0","4pyod8twaa85390","","null","","sounds/syllables/ni_SWS.wav","","null","","","","","","","","","","","","","","","","","","","","","","","","","","","","","","","",""
"html-keyboard-response","270","1192478","0.0-8.0-2.0-2.3-1.3","2","0","4pyod8twaa85390","","765","","<p>To replay the <u>TARGET SOUND</u>, press P.</p> When you are ready to begin, press SPACEBAR.","","32","","","","","","","","","","","","","","","","","","","","","","","","","","","","","","","",""
"audio-keyboard-response","271","1207423","0.0-8.0-2.0-3.1","2","0","4pyod8twaa85390","","1851","","sounds/B/TD/NI_04_TD.mp3","","32","","","TD_SUMMARY","","","","","","","","","","NI","","3000,8400,10200,12900","2","3000","8400","10200","12900","624.8999996185303","693.5","551.6000003814697","555.7000007629395","__________1846.5_3624.8999996185303_5332.700000762939_8326.39999961853_9093.5_9765.20000076294_10751.60000038147_11940_13455.70000076294","2","","","","","",""
"html-button-response","272","1208617","0.0-8.0-2.0-0.2","2","0","4pyod8twaa85390","","1190.6000003814697","","<p>Trial 3 of 36</p>","0","","","","","","","","","","","","","","GE","sounds/syllables/ge_SWS.wav","3600,6300,9000,11700","1","","","","","","","","","","","","","","","",""
"html-keyboard-response","273","1209781","0.0-8.0-2.0-1.2","2","0","4pyod8twaa85390","","1162.5","","","","80","","","","","","","","","","","","","GE","","3600,6300,9000,11700","1","","","","","","","","","","","","","","","",""
"audio-keyboard-response","274","1210084","0.0-8.0-2.0-2.4-0.4","2","0","4pyod8twaa85390","","null","","sounds/syllables/ge_SWS.wav","","null","","","","","","","","","","","","","","","","","","","","","","","","","","","","","","","",""
"html-keyboard-response","275","1211377","0.0-8.0-2.0-2.4-1.4","2","0","4pyod8twaa85390","","1293","","<p>To replay the <u>TARGET SOUND</u>, press P.</p> When you are ready to begin, press SPACEBAR.","","32","","","","","","","","","","","","","","","","","","","","","","","","","","","","","","","",""
"audio-keyboard-response","276","1226324","0.0-8.0-2.0-3.2","2","0","4pyod8twaa85390","","3008","","sounds/B/TD/GE_08_TD.mp3","","32","","","TD_SUMMARY","","","","","","","","","","GE","","3600,6300,9000,11700","1","3600","6300","9000","11700","578.5","656.5","808.5","354.8999996185303","___________________3008.199998855591_4178.5_6956.5_9808.5_12054.89999961853","1","","","","","",""
"html-button-response","277","1227842","0.0-8.0-2.0-0.3","2","0","4pyod8twaa85390","","1515.1999988555908","","<p>Trial 4 of 36</p>","0","","","","","","","","","","","","","","GE","sounds/syllables/ge_SWS.wav","1800,4500,9000,11700","1","","","","","","","","","","","","","","","",""
"html-keyboard-response","278","1228823","0.0-8.0-2.0-1.3","2","0","4pyod8twaa85390","","979.4000015258789","","","","80","","","","","","","","","","","","","GE","","1800,4500,9000,11700","1","","","","","","","","","","","","","","","",""
"audio-keyboard-response","279","1229123","0.0-8.0-2.0-2.5-0.5","2","0","4pyod8twaa85390","","null","","sounds/syllables/ge_SWS.wav","","null","","","","","","","","","","","","","","","","","","","","","","","","","","","","","","","",""
"html-keyboard-response","280","1230369","0.0-8.0-2.0-2.5-1.5","2","0","4pyod8twaa85390","","1244.1000003814697","","<p>To replay the <u>TARGET SOUND</u>, press P.</p> When you are ready to begin, press SPACEBAR.","","80","","","","","","","","","","","","","","","","","","","","","","","","","","","","","","","",""
"audio-keyboard-response","281","1231177","0.0-8.0-2.0-2.6-0.6","2","0","4pyod8twaa85390","","null","","sounds/syllables/ge_SWS.wav","","null","","","","","","","","","","","","","","","","","","","","","","","","","","","","","","","",""
"html-keyboard-response","282","1231827","0.0-8.0-2.0-2.6-1.6","2","0","4pyod8twaa85390","","648.4000015258789","","<p>To replay the <u>TARGET SOUND</u>, press P.</p> When you are ready to begin, press SPACEBAR.","","32","","","","","","","","","","","","","","","","","","","","","","","","","","","","","","","",""
"audio-keyboard-response","283","1246776","0.0-8.0-2.0-3.3","2","0","4pyod8twaa85390","","1200","","sounds/B/TD/GE_04_TD.mp3","","32","","","TD_SUMMARY","","","","","","","","","","GE","","1800,4500,9000,11700","1","1800","4500","9000","11700","890.2999992370605","715.7000007629395","369.5","561.3999996185303","________________________1199.5_2690.2999992370605_5215.700000762939_7306.299999237061_9369.5_12261.39999961853","2","","","","","",""
"html-button-response","284","1248541","0.0-8.0-2.0-0.4","2","0","4pyod8twaa85390","","1762.1999988555908","","<p>Trial 5 of 36</p>","0","","","","","","","","","","","","","","TA","sounds/syllables/ta_SWS.wav","1500,3300,9600,11400","3","","","","","","","","","","","","","","","",""
"html-keyboard-response","285","1249227","0.0-8.0-2.0-1.4","2","0","4pyod8twaa85390","","685.4000015258789","","","","80","","","","","","","","","","","","","TA","","1500,3300,9600,11400","3","","","","","","","","","","","","","","","",""
"audio-keyboard-response","286","1249528","0.0-8.0-2.0-2.7-0.7","2","0","4pyod8twaa85390","","null","","sounds/syllables/ta_SWS.wav","","null","","","","","","","","","","","","","","","","","","","","","","","","","","","","","","","",""
"html-keyboard-response","287","1250105","0.0-8.0-2.0-2.7-1.7","2","0","4pyod8twaa85390","","575.7000007629395","","<p>To replay the <u>TARGET SOUND</u>, press P.</p> When you are ready to begin, press SPACEBAR.","","80","","","","","","","","","","","","","","","","","","","","","","","","","","","","","","","",""
"audio-keyboard-response","288","1250909","0.0-8.0-2.0-2.8-0.8","2","0","4pyod8twaa85390","","null","","sounds/syllables/ta_SWS.wav","","null","","","","","","","","","","","","","","","","","","","","","","","","","","","","","","","",""
"html-keyboard-response","289","1251398","0.0-8.0-2.0-2.8-1.8","2","0","4pyod8twaa85390","","487.70000076293945","","<p>To replay the <u>TARGET SOUND</u>, press P.</p> When you are ready to begin, press SPACEBAR.","","32","","","","","","","","","","","","","","","","","","","","","","","","","","","","","","","",""
"audio-keyboard-response","290","1266344","0.0-8.0-2.0-3.4","2","0","4pyod8twaa85390","","907","","sounds/B/TD/TA_02_TD.mp3","","32","","","TD_SUMMARY","","","","","","","","","","TA","","1500,3300,9600,11400","3","1500","3300","9600","11400","742.6000003814697","581.1000003814697","null","534.2999992370605","______________________________907.6999988555908_2242.6000003814697_3881.1000003814697_5432.39999961853_9326.79999923706_11934.29999923706_14123","2","","","","","",""
"html-button-response","291","1267307","0.0-8.0-2.0-0.5","2","0","4pyod8twaa85390","","959.5","","<p>Trial 6 of 36</p>","0","","","","","","","","","","","","","","GE","sounds/syllables/ge_SWS.wav","3600,6300,9900,11700","1","","","","","","","","","","","","","","","",""
"html-keyboard-response","292","1268211","0.0-8.0-2.0-1.5","2","0","4pyod8twaa85390","","903.3999996185303","","","","80","","","","","","","","","","","","","GE","","3600,6300,9900,11700","1","","","","","","","","","","","","","","","",""
"audio-keyboard-response","293","1268514","0.0-8.0-2.0-2.9-0.9","2","0","4pyod8twaa85390","","null","","sounds/syllables/ge_SWS.wav","","null","","","","","","","","","","","","","","","","","","","","","","","","","","","","","","","",""
"html-keyboard-response","294","1268921","0.0-8.0-2.0-2.9-1.9","2","0","4pyod8twaa85390","","405.9000015258789","","<p>To replay the <u>TARGET SOUND</u>, press P.</p> When you are ready to begin, press SPACEBAR.","","80","","","","","","","","","","","","","","","","","","","","","","","","","","","","","","","",""
"audio-keyboard-response","295","1269725","0.0-8.0-2.0-2.10-0.10","2","0","4pyod8twaa85390","","null","","sounds/syllables/ge_SWS.wav","","null","","","","","","","","","","","","","","","","","","","","","","","","","","","","","","","",""
"html-keyboard-response","296","1270394","0.0-8.0-2.0-2.10-1.10","2","0","4pyod8twaa85390","","667.5999984741211","","<p>To replay the <u>TARGET SOUND</u>, press P.</p> When you are ready to begin, press SPACEBAR.","","32","","","","","","","","","","","","","","","","","","","","","","","","","","","","","","","",""
"audio-keyboard-response","297","1285341","0.0-8.0-2.0-3.5","2","0","4pyod8twaa85390","","4544","","sounds/B/TD/GE_09_TD.mp3","","32","","","TD_SUMMARY","","","","","","","","","","GE","","3600,6300,9900,11700","1","3600","6300","9900","11700","940.5","811","609.0999984741211","null","_____________________________________4540.5_7111_10509.099998474121","2","","","","","",""
"html-button-response","298","1286280","0.0-8.0-2.0-0.6","2","0","4pyod8twaa85390","","934.1000003814697","","<p>Trial 7 of 36</p>","0","","","","","","","","","","","","","","FU","sounds/syllables/fu_SWS.wav","900,6300,8100,12600","1","","","","","","","","","","","","","","","",""
"html-keyboard-response","299","1286946","0.0-8.0-2.0-1.6","2","0","4pyod8twaa85390","","663.8999996185303","","","","80","","","","","","","","","","","","","FU","","900,6300,8100,12600","1","","","","","","","","","","","","","","","",""
"audio-keyboard-response","300","1287250","0.0-8.0-2.0-2.11-0.11","2","0","4pyod8twaa85390","","null","","sounds/syllables/fu_SWS.wav","","null","","","","","","","","","","","","","","","","","","","","","","","","","","","","","","","",""
"html-keyboard-response","301","1287857","0.0-8.0-2.0-2.11-1.11","2","0","4pyod8twaa85390","","606.2999992370605","","<p>To replay the <u>TARGET SOUND</u>, press P.</p> When you are ready to begin, press SPACEBAR.","","80","","","","","","","","","","","","","","","","","","","","","","","","","","","","","","","",""
"audio-keyboard-response","302","1288663","0.0-8.0-2.0-2.12-0.12","2","0","4pyod8twaa85390","","null","","sounds/syllables/fu_SWS.wav","","null","","","","","","","","","","","","","","","","","","","","","","","","","","","","","","","",""
"html-keyboard-response","303","1289100","0.0-8.0-2.0-2.12-1.12","2","0","4pyod8twaa85390","","433.29999923706055","","<p>To replay the <u>TARGET SOUND</u>, press P.</p> When you are ready to begin, press SPACEBAR.","","32","","","","","","","","","","","","","","","","","","","","","","","","","","","","","","","",""
"audio-keyboard-response","304","1304050","0.0-8.0-2.0-3.6","2","0","4pyod8twaa85390","","1264","","sounds/B/TD/FU_04_TD.mp3","","32","","","TD_SUMMARY","","","","","","","","","","FU","","900,6300,8100,12600","1","900","6300","8100","12600","364.8000011444092","317.4000015258789","null","null","________________________________________1264.8000011444092_3902.400001525879_6617.400001525879_11089.70000076294","2","","","","","",""
"html-button-response","305","1305026","0.0-8.0-2.0-0.7","2","0","4pyod8twaa85390","","973.5","","<p>Trial 8 of 36</p>","0","","","","","","","","","","","","","","RE","sounds/syllables/re_SWS.wav","3300,5100,7800,9600","3","","","","","","","","","","","","","","","",""
"html-keyboard-response","306","1305706","0.0-8.0-2.0-1.7","2","0","4pyod8twaa85390","","679.5","","","","80","","","","","","","","","","","","","RE","","3300,5100,7800,9600","3","","","","","","","","","","","","","","","",""
"audio-keyboard-response","307","1306006","0.0-8.0-2.0-2.13-0.13","2","0","4pyod8twaa85390","","null","","sounds/syllables/re_SWS.wav","","null","","","","","","","","","","","","","","","","","","","","","","","","","","","","","","","",""
"html-keyboard-response","308","1306800","0.0-8.0-2.0-2.13-1.13","2","0","4pyod8twaa85390","","791.8999996185303","","<p>To replay the <u>TARGET SOUND</u>, press P.</p> When you are ready to begin, press SPACEBAR.","","80","","","","","","","","","","","","","","","","","","","","","","","","","","","","","","","",""
"audio-keyboard-response","309","1307601","0.0-8.0-2.0-2.14-0.14","2","0","4pyod8twaa85390","","null","","sounds/syllables/re_SWS.wav","","null","","","","","","","","","","","","","","","","","","","","","","","","","","","","","","","",""
"html-keyboard-response","310","1307824","0.0-8.0-2.0-2.14-1.14","2","0","4pyod8twaa85390","","222","","<p>To replay the <u>TARGET SOUND</u>, press P.</p> When you are ready to begin, press SPACEBAR.","","32","","","","","","","","","","","","","","","","","","","","","","","","","","","","","","","",""
"audio-keyboard-response","311","1322780","0.0-8.0-2.0-3.7","2","0","4pyod8twaa85390","","1984","","sounds/B/TD/RE_05_TD.mp3","","32","","","TD_SUMMARY","","","","","","","","","","RE","","3300,5100,7800,9600","3","3300","5100","7800","9600","479.79999923706055","null","null","434","____________________________________________1981.3999996185303_3779.7999992370605_5257.599998474121_10034","2","","","","","",""
"html-button-response","312","1323777","0.0-8.0-2.0-0.8","2","0","4pyod8twaa85390","","994.2999992370605","","<p>Trial 9 of 36</p>","0","","","","","","","","","","","","","","RU","sounds/syllables/ru_SWS.wav","5100,7800,11400,13200","3","","","","","","","","","","","","","","","",""
"html-keyboard-response","313","1324473","0.0-8.0-2.0-1.8","2","0","4pyod8twaa85390","","694.5999984741211","","","","80","","","","","","","","","","","","","RU","","5100,7800,11400,13200","3","","","","","","","","","","","","","","","",""
"audio-keyboard-response","314","1324774","0.0-8.0-2.0-2.15-0.15","2","0","4pyod8twaa85390","","null","","sounds/syllables/ru_SWS.wav","","null","","","","","","","","","","","","","","","","","","","","","","","","","","","","","","","",""
"html-keyboard-response","315","1325364","0.0-8.0-2.0-2.15-1.15","2","0","4pyod8twaa85390","","588.1000003814697","","<p>To replay the <u>TARGET SOUND</u>, press P.</p> When you are ready to begin, press SPACEBAR.","","32","","","","","","","","","","","","","","","","","","","","","","","","","","","","","","","",""
"audio-keyboard-response","316","1340310","0.0-8.0-2.0-3.8","2","0","4pyod8twaa85390","","645","","sounds/B/TD/RU_09_TD.mp3","","32","","","TD_SUMMARY","","","","","","","","","","RU","","5100,7800,11400,13200","3","5100","7800","11400","13200","787.5","872.1999988555908","784.7999992370605","848.8999996185303","________________________________________________646.7999992370605_5242_5887.5_7854_8672.19999885559_11504.69999885559_12184.79999923706_13503.099998474121_14048.89999961853","1","","","","","",""
"html-button-response","317","1341259","0.0-8.0-2.0-0.9","2","0","4pyod8twaa85390","","946.3999996185303","","<p>Trial 10 of 36</p>","0","","","","","","","","","","","","","","TA","sounds/syllables/ta_SWS.wav","1500,4200,6900,9600","3","","","","","","","","","","","","","","","",""
"html-keyboard-response","318","1342018","0.0-8.0-2.0-1.9","2","0","4pyod8twaa85390","","757","","","","80","","","","","","","","","","","","","TA","","1500,4200,6900,9600","3","","","","","","","","","","","","","","","",""
"audio-keyboard-response","319","1342320","0.0-8.0-2.0-2.16-0.16","2","0","4pyod8twaa85390","","null","","sounds/syllables/ta_SWS.wav","","null","","","","","","","","","","","","","","","","","","","","","","","","","","","","","","","",""
"html-keyboard-response","320","1343168","0.0-8.0-2.0-2.16-1.16","2","0","4pyod8twaa85390","","846.6999988555908","","<p>To replay the <u>TARGET SOUND</u>, press P.</p> When you are ready to begin, press SPACEBAR.","","80","","","","","","","","","","","","","","","","","","","","","","","","","","","","","","","",""
"audio-keyboard-response","321","1343973","0.0-8.0-2.0-2.17-0.17","2","0","4pyod8twaa85390","","null","","sounds/syllables/ta_SWS.wav","","null","","","","","","","","","","","","","","","","","","","","","","","","","","","","","","","",""
"html-keyboard-response","322","1344377","0.0-8.0-2.0-2.17-1.17","2","0","4pyod8twaa85390","","402","","<p>To replay the <u>TARGET SOUND</u>, press P.</p> When you are ready to begin, press SPACEBAR.","","32","","","","","","","","","","","","","","","","","","","","","","","","","","","","","","","",""
"audio-keyboard-response","323","1359323","0.0-8.0-2.0-3.9","2","0","4pyod8twaa85390","","933","","sounds/B/TD/TA_04_TD.mp3","","32","","","TD_SUMMARY","","","","","","","","","","TA","","1500,4200,6900,9600","3","1500","4200","6900","9600","520.7000007629395","521.2000007629395","null","225.10000038146973","_________________________________________________________933_2020.7000007629395_3509.8999996185303_4721.200000762939_6215.5_6848.299999237061_9825.10000038147_10819.79999923706_11678_12602.79999923706_14114.60000038147","2","","","","","",""
"html-button-response","324","1360399","0.0-8.0-2.0-0.10","2","0","4pyod8twaa85390","","1073.7000007629395","","<p>Trial 11 of 36</p>","0","","","","","","","","","","","","","","RU","sounds/syllables/ru_SWS.wav","2400,6000,7800,13200","3","","","","","","","","","","","","","","","",""
"html-keyboard-response","325","1360934","0.0-8.0-2.0-1.10","2","0","4pyod8twaa85390","","532.4000015258789","","","","80","","","","","","","","","","","","","RU","","2400,6000,7800,13200","3","","","","","","","","","","","","","","","",""
"audio-keyboard-response","326","1361237","0.0-8.0-2.0-2.18-0.18","2","0","4pyod8twaa85390","","null","","sounds/syllables/ru_SWS.wav","","null","","","","","","","","","","","","","","","","","","","","","","","","","","","","","","","",""
"html-keyboard-response","327","1362369","0.0-8.0-2.0-2.18-1.18","2","0","4pyod8twaa85390","","1128.900001525879","","<p>To replay the <u>TARGET SOUND</u>, press P.</p> When you are ready to begin, press SPACEBAR.","","32","","","","","","","","","","","","","","","","","","","","","","","","","","","","","","","",""
"audio-keyboard-response","328","1377317","0.0-8.0-2.0-3.10","2","0","4pyod8twaa85390","","2469","","sounds/B/TD/RU_04_TD.mp3","","32","","","TD_SUMMARY","","","","","","","","","","RU","","2400,6000,7800,13200","3","2400","6000","7800","13200","680.3999996185303","666.7999992370605","866.6999988555908","null","____________________________________________________________________2467.3999996185303_3080.3999996185303_5731.39999961853_6666.799999237061_8101.10000038147_8666.69999885559","1","","","","","",""
"html-button-response","329","1378345","0.0-8.0-2.0-0.11","2","0","4pyod8twaa85390","","1025","","<p>Trial 12 of 36</p>","0","","","","","","","","","","","","","","NI","sounds/syllables/ni_SWS.wav","1200,7500,9300,12900","2","","","","","","","","","","","","","","","",""
"html-keyboard-response","330","1379248","0.0-8.0-2.0-1.11","2","0","4pyod8twaa85390","","899.3999996185303","","","","80","","","","","","","","","","","","","NI","","1200,7500,9300,12900","2","","","","","","","","","","","","","","","",""
"audio-keyboard-response","331","1379551","0.0-8.0-2.0-2.19-0.19","2","0","4pyod8twaa85390","","null","","sounds/syllables/ni_SWS.wav","","null","","","","","","","","","","","","","","","","","","","","","","","","","","","","","","","",""
"html-keyboard-response","332","1380326","0.0-8.0-2.0-2.19-1.19","2","0","4pyod8twaa85390","","774.1000003814697","","<p>To replay the <u>TARGET SOUND</u>, press P.</p> When you are ready to begin, press SPACEBAR.","","32","","","","","","","","","","","","","","","","","","","","","","","","","","","","","","","",""
"audio-keyboard-response","333","1395279","0.0-8.0-2.0-3.11","2","0","4pyod8twaa85390","","1744","","sounds/B/TD/NI_10_TD.mp3","","32","","","TD_SUMMARY","","","","","","","","","","NI","","1200,7500,9300,12900","2","1200","7500","9300","12900","1088.2999992370605","566.2999992370605","589","489.5","__________________________________________________________________________1748.2999992370605_2288.2999992370605_3898.7999992370605_5053_6568.200000762939_7033.799999237061_8066.299999237061_9889_11102.20000076294_11526.29999923706_13389.5","1","","","","","",""
"html-button-response","334","1396386","0.0-8.0-2.0-0.12","2","0","4pyod8twaa85390","","1104.1000003814697","","<p>Trial 13 of 36</p>","0","","","","","","","","","","","","","","FE","sounds/syllables/fe_SWS.wav","2400,4200,8700,10500","3","","","","","","","","","","","","","","","",""
"html-keyboard-response","335","1397202","0.0-8.0-2.0-1.12","2","0","4pyod8twaa85390","","814.6000003814697","","","","80","","","","","","","","","","","","","FE","","2400,4200,8700,10500","3","","","","","","","","","","","","","","","",""
"audio-keyboard-response","336","1397502","0.0-8.0-2.0-2.20-0.20","2","0","4pyod8twaa85390","","null","","sounds/syllables/fe_SWS.wav","","null","","","","","","","","","","","","","","","","","","","","","","","","","","","","","","","",""
