"trial_type","trial_index","time_elapsed","internal_node_id","counterbalance","lang_instruct","ParticipantID","view_history","rt","url","stimulus","button_pressed","key_press","correctRESP","correct","designation","location","correctanswer","responses","sentence","keywords","typed_resp","keyword1_acc","keyword2_acc","keyword3_acc","keyword4_acc","keyword5_acc","total_acc","prop_acc"
"pavlovia","0","2","0.0-0.0","1","1","fopdsd92gxl7gea","","","","","","","","","","","","","","","","","","","","","",""
"instructions","1","179166","0.0-1.0","1","1","fopdsd92gxl7gea","[{""page_index"":0,""viewing_time"":6474},{""page_index"":1,""viewing_time"":172689}]","179167","","","","","","","","","","","","","","","","","","","",""
"external-html","2","209474","0.0-2.0","1","1","fopdsd92gxl7gea","","30195","consent/consent.html","","","","","","","","","","","","","","","","","","",""
"html-button-response","3","242528","0.0-3.0-0.0-0.0","1","1","fopdsd92gxl7gea","","33052","","<p>Welcome to the study. You will first complete a short volume calibration and headphone check.</p><p>Please make sure you are in a quiet listening environment, that you are wearing headphones, and that your computer's volume is turned on.<p></p>","0","","","","","","","","","","","","","","","","",""
"html-button-response","4","251140","0.0-3.0-0.0-1.0","1","1","fopdsd92gxl7gea","","8360","","<p>The volume calibration will be first.</p><p>You will hear a thirty-second noise. Please adjust your computer's volume so that this noise is being presented at a comfortable level.<p></p>","0","","","","","","","","","","","","","","","","",""
"audio-button-response","5","261768","0.0-3.0-0.0-2.0","1","1","fopdsd92gxl7gea","","9931","","audCalib/volumetest.mp3","0","","","","","","","","","","","","","","","","",""
"html-button-response","6","275759","0.0-3.0-1.0-0.0","1","1","fopdsd92gxl7gea","","13990","","<p>You will now complete a short headphone check.</p><p>On each trial, you will hear three tones. One of these tones will be quieter than the others. Your task is to identify whether the quiet tone occured first, second, or third.</p><p>There are six trials in total.<p></p>","0","","","","","","","","","","","","","","","","",""
"html-keyboard-response","7","276514","0.0-3.0-1.0-1.0-0.0","1","1","fopdsd92gxl7gea","","null","","<div style=""font-size:60px;"">+</div>","","null","","","","","","","","","","","","","","","",""
"audio-button-response","8","281539","0.0-3.0-1.0-1.0-1.0","1","1","fopdsd92gxl7gea","","5024","","audCalib/t3_2.mp3","1","","2","0","headphone-test","","","","","","","","","","","","",""
"html-keyboard-response","9","282294","0.0-3.0-1.0-1.0-0.1","1","1","fopdsd92gxl7gea","","null","","<div style=""font-size:60px;"">+</div>","","null","","","","","","","","","","","","","","","",""
"audio-button-response","10","287196","0.0-3.0-1.0-1.0-1.1","1","1","fopdsd92gxl7gea","","4907","","audCalib/t1_2.mp3","2","","0","0","headphone-test","","","","","","","","","","","","",""
"html-keyboard-response","11","287950","0.0-3.0-1.0-1.0-0.2","1","1","fopdsd92gxl7gea","","null","","<div style=""font-size:60px;"">+</div>","","null","","","","","","","","","","","","","","","",""
"audio-button-response","12","293476","0.0-3.0-1.0-1.0-1.2","1","1","fopdsd92gxl7gea","","5525","","audCalib/t1_1.mp3","1","","0","0","headphone-test","","","","","","","","","","","","",""
"html-keyboard-response","13","294229","0.0-3.0-1.0-1.0-0.3","1","1","fopdsd92gxl7gea","","null","","<div style=""font-size:60px;"">+</div>","","null","","","","","","","","","","","","","","","",""
"audio-button-response","14","299605","0.0-3.0-1.0-1.0-1.3","1","1","fopdsd92gxl7gea","","5376","","audCalib/t3_1.mp3","2","","2","1","headphone-test","","","","","","","","","","","","",""
"html-keyboard-response","15","300359","0.0-3.0-1.0-1.0-0.4","1","1","fopdsd92gxl7gea","","null","","<div style=""font-size:60px;"">+</div>","","null","","","","","","","","","","","","","","","",""
"audio-button-response","16","306356","0.0-3.0-1.0-1.0-1.4","1","1","fopdsd92gxl7gea","","5995","","audCalib/t2_2.mp3","0","","1","0","headphone-test","","","","","","","","","","","","",""
"html-keyboard-response","17","307109","0.0-3.0-1.0-1.0-0.5","1","1","fopdsd92gxl7gea","","null","","<div style=""font-size:60px;"">+</div>","","null","","","","","","","","","","","","","","","",""
"audio-button-response","18","311649","0.0-3.0-1.0-1.0-1.5","1","1","fopdsd92gxl7gea","","4533","","audCalib/t2_1.mp3","1","","1","1","headphone-test","","","","","","","","","","","","",""
"html-button-response","19","315109","0.0-3.0-2.0","1","1","fopdsd92gxl7gea","","3209","","<p>The volume calibration and headphone check are now complete.</p>","0","","","","","","","","","","","","","","","","",""
"instructions","20","335444","0.0-4.0-0.0","1","1","fopdsd92gxl7gea","[{""page_index"":0,""viewing_time"":2334},{""page_index"":1,""viewing_time"":13596},{""page_index"":2,""viewing_time"":4405}]","20335","","","","","","","","","","","","","","","","","","","",""
"audio-keyboard-response","21","335750","0.0-4.0-1.0-0.0","1","1","fopdsd92gxl7gea","","null","","sounds/induction/left/pu_SWS.wav","","null","","","","","","","","","","","","","","","",""
"html-button-response","22","338459","0.0-4.0-1.0-1.0","1","1","fopdsd92gxl7gea","","2707.999999999942","","What sound did you hear?","0","","","1","INDUCTION-JUDGMENT","left","0","","","","","","","","","","",""
"html-keyboard-response","23","339461","0.0-4.0-1.0-2.0","1","1","fopdsd92gxl7gea","","null","","<p style=""color:green;""><b>Correct!</b></p>","","null","","","","","","","","","","","","","","","",""
"audio-keyboard-response","24","340272","0.0-4.0-1.0-0.1","1","1","fopdsd92gxl7gea","","null","","sounds/induction/left/fe_SWS.wav","","null","","","","","","","","","","","","","","","",""
"html-button-response","25","341644","0.0-4.0-1.0-1.1","1","1","fopdsd92gxl7gea","","1369","","What sound did you hear?","1","","","1","INDUCTION-JUDGMENT","left","1","","","","","","","","","","",""
"html-keyboard-response","26","342646","0.0-4.0-1.0-2.1","1","1","fopdsd92gxl7gea","","null","","<p style=""color:green;""><b>Correct!</b></p>","","null","","","","","","","","","","","","","","","",""
"audio-keyboard-response","27","343450","0.0-4.0-1.0-0.2","1","1","fopdsd92gxl7gea","","null","","sounds/induction/left/fu_SWS.wav","","null","","","","","","","","","","","","","","","",""
"html-button-response","28","345141","0.0-4.0-1.0-1.2","1","1","fopdsd92gxl7gea","","1689","","What sound did you hear?","1","","","1","INDUCTION-JUDGMENT","left","1","","","","","","","","","","",""
"html-keyboard-response","29","346144","0.0-4.0-1.0-2.2","1","1","fopdsd92gxl7gea","","null","","<p style=""color:green;""><b>Correct!</b></p>","","null","","","","","","","","","","","","","","","",""
"audio-keyboard-response","30","346949","0.0-4.0-1.0-0.3","1","1","fopdsd92gxl7gea","","null","","sounds/induction/right/pu_SWS.wav","","null","","","","","","","","","","","","","","","",""
"html-button-response","31","348810","0.0-4.0-1.0-1.3","1","1","fopdsd92gxl7gea","","1859","","What sound did you hear?","1","","","1","INDUCTION-JUDGMENT","right","1","","","","","","","","","","",""
"html-keyboard-response","32","349812","0.0-4.0-1.0-2.3","1","1","fopdsd92gxl7gea","","null","","<p style=""color:green;""><b>Correct!</b></p>","","null","","","","","","","","","","","","","","","",""
"audio-keyboard-response","33","350619","0.0-4.0-1.0-0.4","1","1","fopdsd92gxl7gea","","null","","sounds/induction/right/ni_SWS.wav","","null","","","","","","","","","","","","","","","",""
"html-button-response","34","352591","0.0-4.0-1.0-1.4","1","1","fopdsd92gxl7gea","","1970.0000000000582","","What sound did you hear?","0","","","1","INDUCTION-JUDGMENT","right","0","","","","","","","","","","",""
"html-keyboard-response","35","353593","0.0-4.0-1.0-2.4","1","1","fopdsd92gxl7gea","","null","","<p style=""color:green;""><b>Correct!</b></p>","","null","","","","","","","","","","","","","","","",""
"audio-keyboard-response","36","354405","0.0-4.0-1.0-0.5","1","1","fopdsd92gxl7gea","","null","","sounds/induction/left/su_SWS.wav","","null","","","","","","","","","","","","","","","",""
"html-button-response","37","356160","0.0-4.0-1.0-1.5","1","1","fopdsd92gxl7gea","","1753","","What sound did you hear?","0","","","1","INDUCTION-JUDGMENT","left","0","","","","","","","","","","",""
"html-keyboard-response","38","357162","0.0-4.0-1.0-2.5","1","1","fopdsd92gxl7gea","","null","","<p style=""color:green;""><b>Correct!</b></p>","","null","","","","","","","","","","","","","","","",""
"audio-keyboard-response","39","357967","0.0-4.0-1.0-0.6","1","1","fopdsd92gxl7gea","","null","","sounds/induction/right/ko_SWS.wav","","null","","","","","","","","","","","","","","","",""
"html-button-response","40","359330","0.0-4.0-1.0-1.6","1","1","fopdsd92gxl7gea","","1361","","What sound did you hear?","1","","","0","INDUCTION-JUDGMENT","right","0","","","","","","","","","","",""
"html-keyboard-response","41","360333","0.0-4.0-1.0-2.6","1","1","fopdsd92gxl7gea","","null","","<p style=""color:red;""><b>Incorrect!</b></p>","","null","","","","","","","","","","","","","","","",""
"audio-keyboard-response","42","361135","0.0-4.0-1.0-0.7","1","1","fopdsd92gxl7gea","","null","","sounds/induction/right/me_SWS.wav","","null","","","","","","","","","","","","","","","",""
"html-button-response","43","362785","0.0-4.0-1.0-1.7","1","1","fopdsd92gxl7gea","","1648","","What sound did you hear?","0","","","1","INDUCTION-JUDGMENT","right","0","","","","","","","","","","",""
"html-keyboard-response","44","363787","0.0-4.0-1.0-2.7","1","1","fopdsd92gxl7gea","","null","","<p style=""color:green;""><b>Correct!</b></p>","","null","","","","","","","","","","","","","","","",""
"audio-keyboard-response","45","364591","0.0-4.0-1.0-0.8","1","1","fopdsd92gxl7gea","","null","","sounds/induction/left/ni_SWS.wav","","null","","","","","","","","","","","","","","","",""
"html-button-response","46","365959","0.0-4.0-1.0-1.8","1","1","fopdsd92gxl7gea","","1366","","What sound did you hear?","1","","","1","INDUCTION-JUDGMENT","left","1","","","","","","","","","","",""
"html-keyboard-response","47","366961","0.0-4.0-1.0-2.8","1","1","fopdsd92gxl7gea","","null","","<p style=""color:green;""><b>Correct!</b></p>","","null","","","","","","","","","","","","","","","",""
"audio-keyboard-response","48","367770","0.0-4.0-1.0-0.9","1","1","fopdsd92gxl7gea","","null","","sounds/induction/left/ta_SWS.wav","","null","","","","","","","","","","","","","","","",""
"html-button-response","49","369684","0.0-4.0-1.0-1.9","1","1","fopdsd92gxl7gea","","1913","","What sound did you hear?","1","","","0","INDUCTION-JUDGMENT","left","0","","","","","","","","","","",""
"html-keyboard-response","50","370686","0.0-4.0-1.0-2.9","1","1","fopdsd92gxl7gea","","null","","<p style=""color:red;""><b>Incorrect!</b></p>","","null","","","","","","","","","","","","","","","",""
"audio-keyboard-response","51","371492","0.0-4.0-1.0-0.10","1","1","fopdsd92gxl7gea","","null","","sounds/induction/right/ko_SWS.wav","","null","","","","","","","","","","","","","","","",""
"html-button-response","52","373066","0.0-4.0-1.0-1.10","1","1","fopdsd92gxl7gea","","1572.0000000000582","","What sound did you hear?","0","","","1","INDUCTION-JUDGMENT","right","0","","","","","","","","","","",""
"html-keyboard-response","53","374068","0.0-4.0-1.0-2.10","1","1","fopdsd92gxl7gea","","null","","<p style=""color:green;""><b>Correct!</b></p>","","null","","","","","","","","","","","","","","","",""
"audio-keyboard-response","54","374874","0.0-4.0-1.0-0.11","1","1","fopdsd92gxl7gea","","null","","sounds/induction/right/fu_SWS.wav","","null","","","","","","","","","","","","","","","",""
"html-button-response","55","376302","0.0-4.0-1.0-1.11","1","1","fopdsd92gxl7gea","","1427","","What sound did you hear?","0","","","1","INDUCTION-JUDGMENT","right","0","","","","","","","","","","",""
"html-keyboard-response","56","377304","0.0-4.0-1.0-2.11","1","1","fopdsd92gxl7gea","","null","","<p style=""color:green;""><b>Correct!</b></p>","","null","","","","","","","","","","","","","","","",""
"audio-keyboard-response","57","378106","0.0-4.0-1.0-0.12","1","1","fopdsd92gxl7gea","","null","","sounds/induction/right/su_SWS.wav","","null","","","","","","","","","","","","","","","",""
"html-button-response","58","379305","0.0-4.0-1.0-1.12","1","1","fopdsd92gxl7gea","","1199","","What sound did you hear?","1","","","1","INDUCTION-JUDGMENT","right","1","","","","","","","","","","",""
"html-keyboard-response","59","380308","0.0-4.0-1.0-2.12","1","1","fopdsd92gxl7gea","","null","","<p style=""color:green;""><b>Correct!</b></p>","","null","","","","","","","","","","","","","","","",""
"audio-keyboard-response","60","381113","0.0-4.0-1.0-0.13","1","1","fopdsd92gxl7gea","","null","","sounds/induction/left/ge_SWS.wav","","null","","","","","","","","","","","","","","","",""
"html-button-response","61","383128","0.0-4.0-1.0-1.13","1","1","fopdsd92gxl7gea","","2014","","What sound did you hear?","0","","","0","INDUCTION-JUDGMENT","left","1","","","","","","","","","","",""
"html-keyboard-response","62","384131","0.0-4.0-1.0-2.13","1","1","fopdsd92gxl7gea","","null","","<p style=""color:red;""><b>Incorrect!</b></p>","","null","","","","","","","","","","","","","","","",""
"audio-keyboard-response","63","384932","0.0-4.0-1.0-0.14","1","1","fopdsd92gxl7gea","","null","","sounds/induction/right/fe_SWS.wav","","null","","","","","","","","","","","","","","","",""
"html-button-response","64","385978","0.0-4.0-1.0-1.14","1","1","fopdsd92gxl7gea","","1044","","What sound did you hear?","0","","","1","INDUCTION-JUDGMENT","right","0","","","","","","","","","","",""
"html-keyboard-response","65","386980","0.0-4.0-1.0-2.14","1","1","fopdsd92gxl7gea","","null","","<p style=""color:green;""><b>Correct!</b></p>","","null","","","","","","","","","","","","","","","",""
"audio-keyboard-response","66","387791","0.0-4.0-1.0-0.15","1","1","fopdsd92gxl7gea","","null","","sounds/induction/left/ru_SWS.wav","","null","","","","","","","","","","","","","","","",""
"html-button-response","67","388941","0.0-4.0-1.0-1.15","1","1","fopdsd92gxl7gea","","1149.0000000000582","","What sound did you hear?","0","","","1","INDUCTION-JUDGMENT","left","0","","","","","","","","","","",""
"html-keyboard-response","68","389942","0.0-4.0-1.0-2.15","1","1","fopdsd92gxl7gea","","null","","<p style=""color:green;""><b>Correct!</b></p>","","null","","","","","","","","","","","","","","","",""
"audio-keyboard-response","69","390745","0.0-4.0-1.0-0.16","1","1","fopdsd92gxl7gea","","null","","sounds/induction/left/ni_SWS.wav","","null","","","","","","","","","","","","","","","",""
"html-button-response","70","392078","0.0-4.0-1.0-1.16","1","1","fopdsd92gxl7gea","","1332","","What sound did you hear?","1","","","1","INDUCTION-JUDGMENT","left","1","","","","","","","","","","",""
"html-keyboard-response","71","393081","0.0-4.0-1.0-2.16","1","1","fopdsd92gxl7gea","","null","","<p style=""color:green;""><b>Correct!</b></p>","","null","","","","","","","","","","","","","","","",""
"audio-keyboard-response","72","393892","0.0-4.0-1.0-0.17","1","1","fopdsd92gxl7gea","","null","","sounds/induction/left/ko_SWS.wav","","null","","","","","","","","","","","","","","","",""
"html-button-response","73","394747","0.0-4.0-1.0-1.17","1","1","fopdsd92gxl7gea","","854","","What sound did you hear?","0","","","0","INDUCTION-JUDGMENT","left","1","","","","","","","","","","",""
"html-keyboard-response","74","395749","0.0-4.0-1.0-2.17","1","1","fopdsd92gxl7gea","","null","","<p style=""color:red;""><b>Incorrect!</b></p>","","null","","","","","","","","","","","","","","","",""
"audio-keyboard-response","75","396558","0.0-4.0-1.0-0.18","1","1","fopdsd92gxl7gea","","null","","sounds/induction/right/ni_SWS.wav","","null","","","","","","","","","","","","","","","",""
"html-button-response","76","398464","0.0-4.0-1.0-1.18","1","1","fopdsd92gxl7gea","","1904","","What sound did you hear?","0","","","1","INDUCTION-JUDGMENT","right","0","","","","","","","","","","",""
"html-keyboard-response","77","399466","0.0-4.0-1.0-2.18","1","1","fopdsd92gxl7gea","","null","","<p style=""color:green;""><b>Correct!</b></p>","","null","","","","","","","","","","","","","","","",""
"audio-keyboard-response","78","400271","0.0-4.0-1.0-0.19","1","1","fopdsd92gxl7gea","","null","","sounds/induction/left/ge_SWS.wav","","null","","","","","","","","","","","","","","","",""
"html-button-response","79","401699","0.0-4.0-1.0-1.19","1","1","fopdsd92gxl7gea","","1426","","What sound did you hear?","0","","","0","INDUCTION-JUDGMENT","left","1","","","","","","","","","","",""
"html-keyboard-response","80","402701","0.0-4.0-1.0-2.19","1","1","fopdsd92gxl7gea","","null","","<p style=""color:red;""><b>Incorrect!</b></p>","","null","","","","","","","","","","","","","","","",""
"audio-keyboard-response","81","403502","0.0-4.0-1.0-0.20","1","1","fopdsd92gxl7gea","","null","","sounds/induction/left/ti_SWS.wav","","null","","","","","","","","","","","","","","","",""
"html-button-response","82","404646","0.0-4.0-1.0-1.20","1","1","fopdsd92gxl7gea","","1142","","What sound did you hear?","0","","","1","INDUCTION-JUDGMENT","left","0","","","","","","","","","","",""
"html-keyboard-response","83","405648","0.0-4.0-1.0-2.20","1","1","fopdsd92gxl7gea","","null","","<p style=""color:green;""><b>Correct!</b></p>","","null","","","","","","","","","","","","","","","",""
"audio-keyboard-response","84","406457","0.0-4.0-1.0-0.21","1","1","fopdsd92gxl7gea","","null","","sounds/induction/left/re_SWS.wav","","null","","","","","","","","","","","","","","","",""
"html-button-response","85","407725","0.0-4.0-1.0-1.21","1","1","fopdsd92gxl7gea","","1265.9999999999418","","What sound did you hear?","0","","","1","INDUCTION-JUDGMENT","left","0","","","","","","","","","","",""
"html-keyboard-response","86","408727","0.0-4.0-1.0-2.21","1","1","fopdsd92gxl7gea","","null","","<p style=""color:green;""><b>Correct!</b></p>","","null","","","","","","","","","","","","","","","",""
"audio-keyboard-response","87","409529","0.0-4.0-1.0-0.22","1","1","fopdsd92gxl7gea","","null","","sounds/induction/left/re_SWS.wav","","null","","","","","","","","","","","","","","","",""
"html-button-response","88","410837","0.0-4.0-1.0-1.22","1","1","fopdsd92gxl7gea","","1307","","What sound did you hear?","1","","","0","INDUCTION-JUDGMENT","left","0","","","","","","","","","","",""
"html-keyboard-response","89","411839","0.0-4.0-1.0-2.22","1","1","fopdsd92gxl7gea","","null","","<p style=""color:red;""><b>Incorrect!</b></p>","","null","","","","","","","","","","","","","","","",""
"audio-keyboard-response","90","412643","0.0-4.0-1.0-0.23","1","1","fopdsd92gxl7gea","","null","","sounds/induction/right/ge_SWS.wav","","null","","","","","","","","","","","","","","","",""
"html-button-response","91","413719","0.0-4.0-1.0-1.23","1","1","fopdsd92gxl7gea","","1074","","What sound did you hear?","0","","","1","INDUCTION-JUDGMENT","right","0","","","","","","","","","","",""
"html-keyboard-response","92","414722","0.0-4.0-1.0-2.23","1","1","fopdsd92gxl7gea","","null","","<p style=""color:green;""><b>Correct!</b></p>","","null","","","","","","","","","","","","","","","",""
"audio-keyboard-response","93","415523","0.0-4.0-1.0-0.24","1","1","fopdsd92gxl7gea","","null","","sounds/induction/left/me_SWS.wav","","null","","","","","","","","","","","","","","","",""
"html-button-response","94","416837","0.0-4.0-1.0-1.24","1","1","fopdsd92gxl7gea","","1313.9999999999418","","What sound did you hear?","1","","","1","INDUCTION-JUDGMENT","left","1","","","","","","","","","","",""
"html-keyboard-response","95","417840","0.0-4.0-1.0-2.24","1","1","fopdsd92gxl7gea","","null","","<p style=""color:green;""><b>Correct!</b></p>","","null","","","","","","","","","","","","","","","",""
"audio-keyboard-response","96","418649","0.0-4.0-1.0-0.25","1","1","fopdsd92gxl7gea","","null","","sounds/induction/left/ru_SWS.wav","","null","","","","","","","","","","","","","","","",""
"html-button-response","97","419736","0.0-4.0-1.0-1.25","1","1","fopdsd92gxl7gea","","1087","","What sound did you hear?","1","","","0","INDUCTION-JUDGMENT","left","0","","","","","","","","","","",""
"html-keyboard-response","98","420739","0.0-4.0-1.0-2.25","1","1","fopdsd92gxl7gea","","null","","<p style=""color:red;""><b>Incorrect!</b></p>","","null","","","","","","","","","","","","","","","",""
"audio-keyboard-response","99","421550","0.0-4.0-1.0-0.26","1","1","fopdsd92gxl7gea","","null","","sounds/induction/right/ti_SWS.wav","","null","","","","","","","","","","","","","","","",""
"html-button-response","100","423233","0.0-4.0-1.0-1.26","1","1","fopdsd92gxl7gea","","1681.0000000000582","","What sound did you hear?","1","","","1","INDUCTION-JUDGMENT","right","1","","","","","","","","","","",""
"html-keyboard-response","101","424235","0.0-4.0-1.0-2.26","1","1","fopdsd92gxl7gea","","null","","<p style=""color:green;""><b>Correct!</b></p>","","null","","","","","","","","","","","","","","","",""
"audio-keyboard-response","102","425038","0.0-4.0-1.0-0.27","1","1","fopdsd92gxl7gea","","null","","sounds/induction/right/su_SWS.wav","","null","","","","","","","","","","","","","","","",""
"html-button-response","103","426153","0.0-4.0-1.0-1.27","1","1","fopdsd92gxl7gea","","1114","","What sound did you hear?","1","","","1","INDUCTION-JUDGMENT","right","1","","","","","","","","","","",""
"html-keyboard-response","104","427155","0.0-4.0-1.0-2.27","1","1","fopdsd92gxl7gea","","null","","<p style=""color:green;""><b>Correct!</b></p>","","null","","","","","","","","","","","","","","","",""
"audio-keyboard-response","105","427960","0.0-4.0-1.0-0.28","1","1","fopdsd92gxl7gea","","null","","sounds/induction/right/re_SWS.wav","","null","","","","","","","","","","","","","","","",""
"html-button-response","106","430142","0.0-4.0-1.0-1.28","1","1","fopdsd92gxl7gea","","2180","","What sound did you hear?","1","","","1","INDUCTION-JUDGMENT","right","1","","","","","","","","","","",""
"html-keyboard-response","107","431145","0.0-4.0-1.0-2.28","1","1","fopdsd92gxl7gea","","null","","<p style=""color:green;""><b>Correct!</b></p>","","null","","","","","","","","","","","","","","","",""
"audio-keyboard-response","108","431950","0.0-4.0-1.0-0.29","1","1","fopdsd92gxl7gea","","null","","sounds/induction/right/ge_SWS.wav","","null","","","","","","","","","","","","","","","",""
"html-button-response","109","433130","0.0-4.0-1.0-1.29","1","1","fopdsd92gxl7gea","","1177.9999999999418","","What sound did you hear?","0","","","1","INDUCTION-JUDGMENT","right","0","","","","","","","","","","",""
"html-keyboard-response","110","434132","0.0-4.0-1.0-2.29","1","1","fopdsd92gxl7gea","","null","","<p style=""color:green;""><b>Correct!</b></p>","","null","","","","","","","","","","","","","","","",""
"audio-keyboard-response","111","434936","0.0-4.0-1.0-0.30","1","1","fopdsd92gxl7gea","","null","","sounds/induction/left/fe_SWS.wav","","null","","","","","","","","","","","","","","","",""
"html-button-response","112","435890","0.0-4.0-1.0-1.30","1","1","fopdsd92gxl7gea","","953","","What sound did you hear?","1","","","1","INDUCTION-JUDGMENT","left","1","","","","","","","","","","",""
"html-keyboard-response","113","436893","0.0-4.0-1.0-2.30","1","1","fopdsd92gxl7gea","","null","","<p style=""color:green;""><b>Correct!</b></p>","","null","","","","","","","","","","","","","","","",""
"audio-keyboard-response","114","437699","0.0-4.0-1.0-0.31","1","1","fopdsd92gxl7gea","","null","","sounds/induction/left/ti_SWS.wav","","null","","","","","","","","","","","","","","","",""
"html-button-response","115","439067","0.0-4.0-1.0-1.31","1","1","fopdsd92gxl7gea","","1367","","What sound did you hear?","1","","","0","INDUCTION-JUDGMENT","left","0","","","","","","","","","","",""
"html-keyboard-response","116","440069","0.0-4.0-1.0-2.31","1","1","fopdsd92gxl7gea","","null","","<p style=""color:red;""><b>Incorrect!</b></p>","","null","","","","","","","","","","","","","","","",""
"audio-keyboard-response","117","440877","0.0-4.0-1.0-0.32","1","1","fopdsd92gxl7gea","","null","","sounds/induction/right/re_SWS.wav","","null","","","","","","","","","","","","","","","",""
"html-button-response","118","442712","0.0-4.0-1.0-1.32","1","1","fopdsd92gxl7gea","","1833","","What sound did you hear?","0","","","0","INDUCTION-JUDGMENT","right","1","","","","","","","","","","",""
"html-keyboard-response","119","443714","0.0-4.0-1.0-2.32","1","1","fopdsd92gxl7gea","","null","","<p style=""color:red;""><b>Incorrect!</b></p>","","null","","","","","","","","","","","","","","","",""
"audio-keyboard-response","120","444526","0.0-4.0-1.0-0.33","1","1","fopdsd92gxl7gea","","null","","sounds/induction/left/ko_SWS.wav","","null","","","","","","","","","","","","","","","",""
"html-button-response","121","445322","0.0-4.0-1.0-1.33","1","1","fopdsd92gxl7gea","","795","","What sound did you hear?","0","","","0","INDUCTION-JUDGMENT","left","1","","","","","","","","","","",""
"html-keyboard-response","122","446324","0.0-4.0-1.0-2.33","1","1","fopdsd92gxl7gea","","null","","<p style=""color:red;""><b>Incorrect!</b></p>","","null","","","","","","","","","","","","","","","",""
"audio-keyboard-response","123","447128","0.0-4.0-1.0-0.34","1","1","fopdsd92gxl7gea","","null","","sounds/induction/right/ta_SWS.wav","","null","","","","","","","","","","","","","","","",""
"html-button-response","124","449005","0.0-4.0-1.0-1.34","1","1","fopdsd92gxl7gea","","1876","","What sound did you hear?","0","","","0","INDUCTION-JUDGMENT","right","1","","","","","","","","","","",""
"html-keyboard-response","125","450007","0.0-4.0-1.0-2.34","1","1","fopdsd92gxl7gea","","null","","<p style=""color:red;""><b>Incorrect!</b></p>","","null","","","","","","","","","","","","","","","",""
"audio-keyboard-response","126","450819","0.0-4.0-1.0-0.35","1","1","fopdsd92gxl7gea","","null","","sounds/induction/left/fu_SWS.wav","","null","","","","","","","","","","","","","","","",""
"html-button-response","127","451756","0.0-4.0-1.0-1.35","1","1","fopdsd92gxl7gea","","936.0000000000582","","What sound did you hear?","1","","","1","INDUCTION-JUDGMENT","left","1","","","","","","","","","","",""
"html-keyboard-response","128","452758","0.0-4.0-1.0-2.35","1","1","fopdsd92gxl7gea","","null","","<p style=""color:green;""><b>Correct!</b></p>","","null","","","","","","","","","","","","","","","",""
"audio-keyboard-response","129","453560","0.0-4.0-1.0-0.36","1","1","fopdsd92gxl7gea","","null","","sounds/induction/left/pu_SWS.wav","","null","","","","","","","","","","","","","","","",""
"html-button-response","130","454426","0.0-4.0-1.0-1.36","1","1","fopdsd92gxl7gea","","865","","What sound did you hear?","0","","","1","INDUCTION-JUDGMENT","left","0","","","","","","","","","","",""
"html-keyboard-response","131","455428","0.0-4.0-1.0-2.36","1","1","fopdsd92gxl7gea","","null","","<p style=""color:green;""><b>Correct!</b></p>","","null","","","","","","","","","","","","","","","",""
"audio-keyboard-response","132","456237","0.0-4.0-1.0-0.37","1","1","fopdsd92gxl7gea","","null","","sounds/induction/right/fu_SWS.wav","","null","","","","","","","","","","","","","","","",""
"html-button-response","133","457258","0.0-4.0-1.0-1.37","1","1","fopdsd92gxl7gea","","1019.9999999999418","","What sound did you hear?","0","","","1","INDUCTION-JUDGMENT","right","0","","","","","","","","","","",""
"html-keyboard-response","134","458261","0.0-4.0-1.0-2.37","1","1","fopdsd92gxl7gea","","null","","<p style=""color:green;""><b>Correct!</b></p>","","null","","","","","","","","","","","","","","","",""
"audio-keyboard-response","135","459064","0.0-4.0-1.0-0.38","1","1","fopdsd92gxl7gea","","null","","sounds/induction/left/me_SWS.wav","","null","","","","","","","","","","","","","","","",""
"html-button-response","136","460042","0.0-4.0-1.0-1.38","1","1","fopdsd92gxl7gea","","977.9999999999418","","What sound did you hear?","1","","","1","INDUCTION-JUDGMENT","left","1","","","","","","","","","","",""
"html-keyboard-response","137","461045","0.0-4.0-1.0-2.38","1","1","fopdsd92gxl7gea","","null","","<p style=""color:green;""><b>Correct!</b></p>","","null","","","","","","","","","","","","","","","",""
"audio-keyboard-response","138","461847","0.0-4.0-1.0-0.39","1","1","fopdsd92gxl7gea","","null","","sounds/induction/right/ru_SWS.wav","","null","","","","","","","","","","","","","","","",""
"html-button-response","139","462914","0.0-4.0-1.0-1.39","1","1","fopdsd92gxl7gea","","1066","","What sound did you hear?","1","","","1","INDUCTION-JUDGMENT","right","1","","","","","","","","","","",""
"html-keyboard-response","140","463916","0.0-4.0-1.0-2.39","1","1","fopdsd92gxl7gea","","null","","<p style=""color:green;""><b>Correct!</b></p>","","null","","","","","","","","","","","","","","","",""
"audio-keyboard-response","141","464728","0.0-4.0-1.0-0.40","1","1","fopdsd92gxl7gea","","null","","sounds/induction/left/ta_SWS.wav","","null","","","","","","","","","","","","","","","",""
"html-button-response","142","465642","0.0-4.0-1.0-1.40","1","1","fopdsd92gxl7gea","","914","","What sound did you hear?","1","","","0","INDUCTION-JUDGMENT","left","0","","","","","","","","","","",""
"html-keyboard-response","143","466645","0.0-4.0-1.0-2.40","1","1","fopdsd92gxl7gea","","null","","<p style=""color:red;""><b>Incorrect!</b></p>","","null","","","","","","","","","","","","","","","",""
"audio-keyboard-response","144","467447","0.0-4.0-1.0-0.41","1","1","fopdsd92gxl7gea","","null","","sounds/induction/right/me_SWS.wav","","null","","","","","","","","","","","","","","","",""
"html-button-response","145","468572","0.0-4.0-1.0-1.41","1","1","fopdsd92gxl7gea","","1124","","What sound did you hear?","0","","","1","INDUCTION-JUDGMENT","right","0","","","","","","","","","","",""
"html-keyboard-response","146","469574","0.0-4.0-1.0-2.41","1","1","fopdsd92gxl7gea","","null","","<p style=""color:green;""><b>Correct!</b></p>","","null","","","","","","","","","","","","","","","",""
"audio-keyboard-response","147","470380","0.0-4.0-1.0-0.42","1","1","fopdsd92gxl7gea","","null","","sounds/induction/right/fe_SWS.wav","","null","","","","","","","","","","","","","","","",""
"html-button-response","148","471815","0.0-4.0-1.0-1.42","1","1","fopdsd92gxl7gea","","1434","","What sound did you hear?","1","","","0","INDUCTION-JUDGMENT","right","0","","","","","","","","","","",""
"html-keyboard-response","149","472817","0.0-4.0-1.0-2.42","1","1","fopdsd92gxl7gea","","null","","<p style=""color:red;""><b>Incorrect!</b></p>","","null","","","","","","","","","","","","","","","",""
"audio-keyboard-response","150","473623","0.0-4.0-1.0-0.43","1","1","fopdsd92gxl7gea","","null","","sounds/induction/right/pu_SWS.wav","","null","","","","","","","","","","","","","","","",""
"html-button-response","151","474402","0.0-4.0-1.0-1.43","1","1","fopdsd92gxl7gea","","777","","What sound did you hear?","1","","","1","INDUCTION-JUDGMENT","right","1","","","","","","","","","","",""
"html-keyboard-response","152","475404","0.0-4.0-1.0-2.43","1","1","fopdsd92gxl7gea","","null","","<p style=""color:green;""><b>Correct!</b></p>","","null","","","","","","","","","","","","","","","",""
"audio-keyboard-response","153","476215","0.0-4.0-1.0-0.44","1","1","fopdsd92gxl7gea","","null","","sounds/induction/right/ru_SWS.wav","","null","","","","","","","","","","","","","","","",""
"html-button-response","154","477324","0.0-4.0-1.0-1.44","1","1","fopdsd92gxl7gea","","1108","","What sound did you hear?","1","","","1","INDUCTION-JUDGMENT","right","1","","","","","","","","","","",""
"html-keyboard-response","155","478326","0.0-4.0-1.0-2.44","1","1","fopdsd92gxl7gea","","null","","<p style=""color:green;""><b>Correct!</b></p>","","null","","","","","","","","","","","","","","","",""
"audio-keyboard-response","156","479127","0.0-4.0-1.0-0.45","1","1","fopdsd92gxl7gea","","null","","sounds/induction/left/su_SWS.wav","","null","","","","","","","","","","","","","","","",""
"html-button-response","157","480535","0.0-4.0-1.0-1.45","1","1","fopdsd92gxl7gea","","1405.9999999998836","","What sound did you hear?","1","","","0","INDUCTION-JUDGMENT","left","0","","","","","","","","","","",""
"html-keyboard-response","158","481537","0.0-4.0-1.0-2.45","1","1","fopdsd92gxl7gea","","null","","<p style=""color:red;""><b>Incorrect!</b></p>","","null","","","","","","","","","","","","","","","",""
"audio-keyboard-response","159","482348","0.0-4.0-1.0-0.46","1","1","fopdsd92gxl7gea","","null","","sounds/induction/right/ta_SWS.wav","","null","","","","","","","","","","","","","","","",""
"html-button-response","160","483506","0.0-4.0-1.0-1.46","1","1","fopdsd92gxl7gea","","1155.9999999998836","","What sound did you hear?","0","","","0","INDUCTION-JUDGMENT","right","1","","","","","","","","","","",""
"html-keyboard-response","161","484508","0.0-4.0-1.0-2.46","1","1","fopdsd92gxl7gea","","null","","<p style=""color:red;""><b>Incorrect!</b></p>","","null","","","","","","","","","","","","","","","",""
"audio-keyboard-response","162","485314","0.0-4.0-1.0-0.47","1","1","fopdsd92gxl7gea","","null","","sounds/induction/right/ti_SWS.wav","","null","","","","","","","","","","","","","","","",""
"html-button-response","163","486952","0.0-4.0-1.0-1.47","1","1","fopdsd92gxl7gea","","1637","","What sound did you hear?","1","","","1","INDUCTION-JUDGMENT","right","1","","","","","","","","","","",""
"html-keyboard-response","164","487954","0.0-4.0-1.0-2.47","1","1","fopdsd92gxl7gea","","null","","<p style=""color:green;""><b>Correct!</b></p>","","null","","","","","","","","","","","","","","","",""
"html-button-response","165","513790","0.0-5.0-0.0","1","1","fopdsd92gxl7gea","","25333.999999999884","","<p>Thank you for your answers.</p><p>You will now listen to similar sounds. The main difference is that the sounds will be longer and will make up complete sentences.</p><p>Please listen carefully to each sentence. After each sentence, you will be asked to type back what you heard to the best of your ability. After you provide your response, you will be given feedback about the correct answer.</p><p>There are 10 sentences in total.","0","","","","","","","","","","","","","","","","",""
"audio-keyboard-response","166","516545","0.0-5.0-1.0-0.0","1","1","fopdsd92gxl7gea","","null","","sounds/sentences/right/14_08_cfSWS.wav","","null","","","","","","","","","","","","","","","",""
"sentence-resp","167","571645","0.0-5.0-1.0-1.0","1","1","fopdsd92gxl7gea","","55096","","","","","","","SWS-SENT-RESPONSE","","","{""Q0"":""me and you are going to get food""}","Clothes and lodging are free to new men.","clothes,lodging,free,new,men","ME AND YOU ARE GOING TO GET FOOD","0","0","0","0","0","0","0"
"html-keyboard-response","168","572899","0.0-5.0-1.0-2.0","1","1","fopdsd92gxl7gea","","null","","","","null","","","","","","","","","","","","","","","",""
"audio-keyboard-response","169","575154","0.0-5.0-1.0-3.0","1","1","fopdsd92gxl7gea","","null","","sounds/sentences/right/14_08_cfSWS.wav","","null","","","","","","","","","","","","","","","",""
"html-keyboard-response","170","576156","0.0-5.0-1.0-4.0","1","1","fopdsd92gxl7gea","","null","","","","null","","","","","","","","","","","","","","","",""
"html-button-response","171","684829","0.0-5.0-1.0-5.0","1","1","fopdsd92gxl7gea","","108174","","<p>Press the button below when you are ready to continue.</p>","0","","","","","","","","","","","","","","","","",""
"audio-keyboard-response","172","687647","0.0-5.0-1.0-0.1","1","1","fopdsd92gxl7gea","","null","","sounds/sentences/left/14_02_cfSWS.wav","","null","","","","","","","","","","","","","","","",""
"sentence-resp","173","737402","0.0-5.0-1.0-1.1","1","1","fopdsd92gxl7gea","","49754","","","","","","","SWS-SENT-RESPONSE","","","{""Q0"":""and if you add it three times""}","He said the same phrase thirty times.","said,same,phrase,thirty,times","AND IF YOU ADD IT THREE TIMES","0","0","0","0","1","1","0.2"
"html-keyboard-response","174","738656","0.0-5.0-1.0-2.1","1","1","fopdsd92gxl7gea","","null","","","","null","","","","","","","","","","","","","","","",""
"audio-keyboard-response","175","740975","0.0-5.0-1.0-3.1","1","1","fopdsd92gxl7gea","","null","","sounds/sentences/left/14_02_cfSWS.wav","","null","","","","","","","","","","","","","","","",""
"html-keyboard-response","176","741977","0.0-5.0-1.0-4.1","1","1","fopdsd92gxl7gea","","null","","","","null","","","","","","","","","","","","","","","",""
"html-button-response","177","754947","0.0-5.0-1.0-5.1","1","1","fopdsd92gxl7gea","","12469","","<p>Press the button below when you are ready to continue.</p>","0","","","","","","","","","","","","","","","","",""
"audio-keyboard-response","178","757532","0.0-5.0-1.0-0.2","1","1","fopdsd92gxl7gea","","null","","sounds/sentences/left/14_03_cfSWS.wav","","null","","","","","","","","","","","","","","","",""
"sentence-resp","179","767756","0.0-5.0-1.0-1.2","1","1","fopdsd92gxl7gea","","10223","","","","","","","SWS-SENT-RESPONSE","","","{""Q0"":""don't leave without me ""}","Pluck the bright rose without leaves.","pluck,bright,rose,without,leaves","DON'T LEAVE WITHOUT ME ","0","0","0","1","0","1","0.2"
"html-keyboard-response","180","769010","0.0-5.0-1.0-2.2","1","1","fopdsd92gxl7gea","","null","","","","null","","","","","","","","","","","","","","","",""
"audio-keyboard-response","181","771092","0.0-5.0-1.0-3.2","1","1","fopdsd92gxl7gea","","null","","sounds/sentences/left/14_03_cfSWS.wav","","null","","","","","","","","","","","","","","","",""
"html-keyboard-response","182","772093","0.0-5.0-1.0-4.2","1","1","fopdsd92gxl7gea","","null","","","","null","","","","","","","","","","","","","","","",""
"html-button-response","183","776532","0.0-5.0-1.0-5.2","1","1","fopdsd92gxl7gea","","3936","","<p>Press the button below when you are ready to continue.</p>","0","","","","","","","","","","","","","","","","",""
"audio-keyboard-response","184","779086","0.0-5.0-1.0-0.3","1","1","fopdsd92gxl7gea","","null","","sounds/sentences/left/14_04_cfSWS.wav","","null","","","","","","","","","","","","","","","",""
"sentence-resp","185","812512","0.0-5.0-1.0-1.3","1","1","fopdsd92gxl7gea","","33425","","","","","","","SWS-SENT-RESPONSE","","","{""Q0"":""you like to count leaves""}","Two plus seven is less than ten.","two,plus,seven,less,ten","YOU LIKE TO COUNT LEAVES","0","0","0","0","0","0","0"
"html-keyboard-response","186","813765","0.0-5.0-1.0-2.3","1","1","fopdsd92gxl7gea","","null","","","","null","","","","","","","","","","","","","","","",""
"audio-keyboard-response","187","815819","0.0-5.0-1.0-3.3","1","1","fopdsd92gxl7gea","","null","","sounds/sentences/left/14_04_cfSWS.wav","","null","","","","","","","","","","","","","","","",""
"html-keyboard-response","188","816822","0.0-5.0-1.0-4.3","1","1","fopdsd92gxl7gea","","null","","","","null","","","","","","","","","","","","","","","",""
"html-button-response","189","832256","0.0-5.0-1.0-5.3","1","1","fopdsd92gxl7gea","","14932","","<p>Press the button below when you are ready to continue.</p>","0","","","","","","","","","","","","","","","","",""
"audio-keyboard-response","190","834987","0.0-5.0-1.0-0.4","1","1","fopdsd92gxl7gea","","null","","sounds/sentences/right/14_09_cfSWS.wav","","null","","","","","","","","","","","","","","","",""
"sentence-resp","191","878169","0.0-5.0-1.0-1.4","1","1","fopdsd92gxl7gea","","43181","","","","","","","SWS-SENT-RESPONSE","","","{""Q0"":""me and my friend have math dreams""}","We frown when events take a bad turn.","frown,events,take,bad,turn","ME AND MY FRIEND HAVE MATH DREAMS","0","0","0","0","0","0","0"
"html-keyboard-response","192","879423","0.0-5.0-1.0-2.4","1","1","fopdsd92gxl7gea","","null","","","","null","","","","","","","","","","","","","","","",""
"audio-keyboard-response","193","881652","0.0-5.0-1.0-3.4","1","1","fopdsd92gxl7gea","","null","","sounds/sentences/right/14_09_cfSWS.wav","","null","","","","","","","","","","","","","","","",""
"html-keyboard-response","194","882655","0.0-5.0-1.0-4.4","1","1","fopdsd92gxl7gea","","null","","","","null","","","","","","","","","","","","","","","",""
"html-button-response","195","891389","0.0-5.0-1.0-5.4","1","1","fopdsd92gxl7gea","","8231.999999999884","","<p>Press the button below when you are ready to continue.</p>","0","","","","","","","","","","","","","","","","",""
"audio-keyboard-response","196","894377","0.0-5.0-1.0-0.5","1","1","fopdsd92gxl7gea","","null","","sounds/sentences/left/14_05_cfSWS.wav","","null","","","","","","","","","","","","","","","",""
"sentence-resp","197","937593","0.0-5.0-1.0-1.5","1","1","fopdsd92gxl7gea","","43214","","","","","","","SWS-SENT-RESPONSE","","","{""Q0"":""I have had some sweet dreams""}","The glow deepened in the eyes of the sweet girl.","glow,deepened,eyes,sweet,girl","I HAVE HAD SOME SWEET DREAMS","0","0","0","1","0","1","0.2"
"html-keyboard-response","198","938846","0.0-5.0-1.0-2.5","1","1","fopdsd92gxl7gea","","null","","","","null","","","","","","","","","","","","","","","",""
"audio-keyboard-response","199","941342","0.0-5.0-1.0-3.5","1","1","fopdsd92gxl7gea","","null","","sounds/sentences/left/14_05_cfSWS.wav","","null","","","","","","","","","","","","","","","",""
"html-keyboard-response","200","942344","0.0-5.0-1.0-4.5","1","1","fopdsd92gxl7gea","","null","","","","null","","","","","","","","","","","","","","","",""
"html-button-response","201","953330","0.0-5.0-1.0-5.5","1","1","fopdsd92gxl7gea","","10484","","<p>Press the button below when you are ready to continue.</p>","0","","","","","","","","","","","","","","","","",""
"audio-keyboard-response","202","956082","0.0-5.0-1.0-0.6","1","1","fopdsd92gxl7gea","","null","","sounds/sentences/right/14_06_cfSWS.wav","","null","","","","","","","","","","","","","","","",""
"sentence-resp","203","970664","0.0-5.0-1.0-1.6","1","1","fopdsd92gxl7gea","","14581","","","","","","","SWS-SENT-RESPONSE","","","{""Q0"":""tell your problems to the right person""}","Bring your problems to the wise chief.","bring,your,problems,wise,chief","TELL YOUR PROBLEMS TO THE RIGHT PERSON","0","1","1","0","0","2","0.4"
"html-keyboard-response","204","971917","0.0-5.0-1.0-2.6","1","1","fopdsd92gxl7gea","","null","","","","null","","","","","","","","","","","","","","","",""
"audio-keyboard-response","205","974162","0.0-5.0-1.0-3.6","1","1","fopdsd92gxl7gea","","null","","sounds/sentences/right/14_06_cfSWS.wav","","null","","","","","","","","","","","","","","","",""
"html-keyboard-response","206","975165","0.0-5.0-1.0-4.6","1","1","fopdsd92gxl7gea","","null","","","","null","","","","","","","","","","","","","","","",""
"html-button-response","207","979615","0.0-5.0-1.0-5.6","1","1","fopdsd92gxl7gea","","3947.9999999998836","","<p>Press the button below when you are ready to continue.</p>","0","","","","","","","","","","","","","","","","",""
"audio-keyboard-response","208","982503","0.0-5.0-1.0-0.7","1","1","fopdsd92gxl7gea","","null","","sounds/sentences/right/14_07_cfSWS.wav","","null","","","","","","","","","","","","","","","",""
"sentence-resp","209","1018703","0.0-5.0-1.0-1.7","1","1","fopdsd92gxl7gea","","36198","","","","","","","SWS-SENT-RESPONSE","","","{""Q0"":""I have a good friend to cherish ""}","Write a fond note to the friend you cherish.","write,fond,note,friend,cherish","I HAVE A GOOD FRIEND TO CHERISH ","0","0","0","1","1","2","0.4"
"html-keyboard-response","210","1019956","0.0-5.0-1.0-2.7","1","1","fopdsd92gxl7gea","","null","","","","null","","","","","","","","","","","","","","","",""
"audio-keyboard-response","211","1022342","0.0-5.0-1.0-3.7","1","1","fopdsd92gxl7gea","","null","","sounds/sentences/right/14_07_cfSWS.wav","","null","","","","","","","","","","","","","","","",""
"html-keyboard-response","212","1023345","0.0-5.0-1.0-4.7","1","1","fopdsd92gxl7gea","","null","","","","null","","","","","","","","","","","","","","","",""
"html-button-response","213","1028420","0.0-5.0-1.0-5.7","1","1","fopdsd92gxl7gea","","4573","","<p>Press the button below when you are ready to continue.</p>","0","","","","","","","","","","","","","","","","",""
"audio-keyboard-response","214","1031537","0.0-5.0-1.0-0.8","1","1","fopdsd92gxl7gea","","null","","sounds/sentences/left/14_01_cfSWS.wav","","null","","","","","","","","","","","","","","","",""
"sentence-resp","215","1047667","0.0-5.0-1.0-1.8","1","1","fopdsd92gxl7gea","","16128","","","","","","","SWS-SENT-RESPONSE","","","{""Q0"":""you grab something small and try to swim""}","A cramp is no small danger on a swim.","cramp,no,small,danger,swim","YOU GRAB SOMETHING SMALL AND TRY TO SWIM","0","0","1","0","1","2","0.4"
"html-keyboard-response","216","1048920","0.0-5.0-1.0-2.8","1","1","fopdsd92gxl7gea","","null","","","","null","","","","","","","","","","","","","","","",""
"audio-keyboard-response","217","1051536","0.0-5.0-1.0-3.8","1","1","fopdsd92gxl7gea","","null","","sounds/sentences/left/14_01_cfSWS.wav","","null","","","","","","","","","","","","","","","",""
"html-keyboard-response","218","1052539","0.0-5.0-1.0-4.8","1","1","fopdsd92gxl7gea","","null","","","","null","","","","","","","","","","","","","","","",""
"html-button-response","219","1057217","0.0-5.0-1.0-5.8","1","1","fopdsd92gxl7gea","","4176","","<p>Press the button below when you are ready to continue.</p>","0","","","","","","","","","","","","","","","","",""
"audio-keyboard-response","220","1060229","0.0-5.0-1.0-0.9","1","1","fopdsd92gxl7gea","","null","","sounds/sentences/right/14_10_cfSWS.wav","","null","","","","","","","","","","","","","","","",""
"sentence-resp","221","1072172","0.0-5.0-1.0-1.9","1","1","fopdsd92gxl7gea","","11942","","","","","","","SWS-SENT-RESPONSE","","","{""Q0"":""sorry I have smelly cheese ""}","Port is a strong wine with a smoky taste.","port,strong,wine,smoky,taste","SORRY I HAVE SMELLY CHEESE ","0","0","0","0","0","0","0"
"html-keyboard-response","222","1073426","0.0-5.0-1.0-2.9","1","1","fopdsd92gxl7gea","","null","","","","null","","","","","","","","","","","","","","","",""
"audio-keyboard-response","223","1075941","0.0-5.0-1.0-3.9","1","1","fopdsd92gxl7gea","","null","","sounds/sentences/right/14_10_cfSWS.wav","","null","","","","","","","","","","","","","","","",""
"html-keyboard-response","224","1076943","0.0-5.0-1.0-4.9","1","1","fopdsd92gxl7gea","","null","","","","null","","","","","","","","","","","","","","","",""
"html-button-response","225","1099415","0.0-5.0-1.0-5.9","1","1","fopdsd92gxl7gea","","21969","","<p>Press the button below when you are ready to continue.</p>","0","","","","","","","","","","","","","","","","",""
"html-keyboard-response","226","1192484","0.0-6.0-0.0","1","1","fopdsd92gxl7gea","","92568","","<p>In this part of the study, you will hear sounds similar to those you just heard.</p><p>Please focus on these sounds, as you may be asked questions about them later.</p><p>Occasionally, the sounds will pause for up to two seconds. When this happens, please press SPACEBAR as quickly as you can.</br>This helps ensure that you are paying attention to the sounds.</p><p>This part of the study will take about 12 minutes to complete, and you will be given the opportunity to take a couple of short breaks every few minutes.</p><p><strong>Press SPACEBAR to begin</strong></p>","","32","","","","","","","","","","","","","","","",""
"html-keyboard-response","227","1193486","0.0-6.0-1.0-0.0","1","1","fopdsd92gxl7gea","","null","","<p style=""font-size: 40px;"">+</p>","","null","","","","","","","","","","","","","","","",""
