"trial_type","trial_index","time_elapsed","internal_node_id","counterbalance","lang_instruct","ParticipantID","view_history","rt","url","stimulus","button_pressed","key_press","correctRESP","correct","designation","location","correctanswer","responses","sentence","keywords","typed_resp","keyword1_acc","keyword2_acc","keyword3_acc","keyword4_acc","keyword5_acc","total_acc","prop_acc","timeouts","pause_rt01","pause_rt02","train_file","numKeyPress","sound","fam_type","SYLLABLE","EXEMPLAR","TD_LOCS","TD_TYPE","TDLOC_01","TDLOC_02","TDLOC_03","TDLOC_04","TD_RT_01","TD_RT_02","TD_RT_03","TD_RT_04","TD_SUBJ_RTs","number_of_plays","slider_start","response","question_order","syllable","syllable_type"
"pavlovia","0","3","0.0-0.0","2","1","jz6uvnjflqeuyme","","","","","","","","","","","","","","","","","","","","","","","","","","","","","","","","","","","","","","","","","","","","","","","",""
"instructions","1","11708","0.0-1.0","2","1","jz6uvnjflqeuyme","[{""page_index"":0,""viewing_time"":2056.600000023842},{""page_index"":1,""viewing_time"":9643.600000023842}]","11704.300000071526","","","","","","","","","","","","","","","","","","","","","","","","","","","","","","","","","","","","","","","","","","","","","",""
"external-html","2","15496","0.0-2.0","2","1","jz6uvnjflqeuyme","","3667.5","consent/consent.html","","","","","","","","","","","","","","","","","","","","","","","","","","","","","","","","","","","","","","","","","","","","",""
"html-button-response","3","37488","0.0-3.0-0.0-0.0","2","1","jz6uvnjflqeuyme","","21988.699999928474","","<p>Welcome to the study. You will first complete a short volume calibration and headphone check.</p><p>Please make sure you are in a quiet listening environment, that you are wearing headphones, and that your computer's volume is turned on.<p></p>","0","","","","","","","","","","","","","","","","","","","","","","","","","","","","","","","","","","","","","","","","","","",""
"html-button-response","4","42486","0.0-3.0-0.0-1.0","2","1","jz6uvnjflqeuyme","","4745.200000047684","","<p>The volume calibration will be first.</p><p>You will hear a thirty-second noise. Please adjust your computer's volume so that this noise is being presented at a comfortable level.<p></p>","0","","","","","","","","","","","","","","","","","","","","","","","","","","","","","","","","","","","","","","","","","","",""
"audio-button-response","5","48333","0.0-3.0-0.0-2.0","2","1","jz6uvnjflqeuyme","","5072","","audCalib/volumetest.mp3","0","","","","","","","","","","","","","","","","","","","","","","","","","","","","","","","","","","","","","","","","","","",""
"html-button-response","6","54189","0.0-3.0-1.0-0.0","2","1","jz6uvnjflqeuyme","","5853.700000047684","","<p>You will now complete a short headphone check.</p><p>On each trial, you will hear three tones. One of these tones will be quieter than the others. Your task is to identify whether the quiet tone occured first, second, or third.</p><p>There are six trials in total.<p></p>","0","","","","","","","","","","","","","","","","","","","","","","","","","","","","","","","","","","","","","","","","","","",""
"html-keyboard-response","7","54950","0.0-3.0-1.0-1.0-0.0","2","1","jz6uvnjflqeuyme","","null","","<div style=""font-size:60px;"">+</div>","","null","","","","","","","","","","","","","","","","","","","","","","","","","","","","","","","","","","","","","","","","","",""
"audio-button-response","8","59208","0.0-3.0-1.0-1.0-1.0","2","1","jz6uvnjflqeuyme","","4251","","audCalib/t2_2.mp3","1","","1","1","headphone-test","","","","","","","","","","","","","","","","","","","","","","","","","","","","","","","","","","","","","","",""
"html-keyboard-response","9","59968","0.0-3.0-1.0-1.0-0.1","2","1","jz6uvnjflqeuyme","","null","","<div style=""font-size:60px;"">+</div>","","null","","","","","","","","","","","","","","","","","","","","","","","","","","","","","","","","","","","","","","","","","",""
"audio-button-response","10","64143","0.0-3.0-1.0-1.0-1.1","2","1","jz6uvnjflqeuyme","","4171","","audCalib/t1_2.mp3","0","","0","1","headphone-test","","","","","","","","","","","","","","","","","","","","","","","","","","","","","","","","","","","","","","",""
"html-keyboard-response","11","64901","0.0-3.0-1.0-1.0-0.2","2","1","jz6uvnjflqeuyme","","null","","<div style=""font-size:60px;"">+</div>","","null","","","","","","","","","","","","","","","","","","","","","","","","","","","","","","","","","","","","","","","","","",""
"audio-button-response","12","69202","0.0-3.0-1.0-1.0-1.2","2","1","jz6uvnjflqeuyme","","4299","","audCalib/t2_1.mp3","1","","1","1","headphone-test","","","","","","","","","","","","","","","","","","","","","","","","","","","","","","","","","","","","","","",""
"html-keyboard-response","13","69962","0.0-3.0-1.0-1.0-0.3","2","1","jz6uvnjflqeuyme","","null","","<div style=""font-size:60px;"">+</div>","","null","","","","","","","","","","","","","","","","","","","","","","","","","","","","","","","","","","","","","","","","","",""
"audio-button-response","14","74199","0.0-3.0-1.0-1.0-1.3","2","1","jz6uvnjflqeuyme","","4235","","audCalib/t3_1.mp3","2","","2","1","headphone-test","","","","","","","","","","","","","","","","","","","","","","","","","","","","","","","","","","","","","","",""
"html-keyboard-response","15","74959","0.0-3.0-1.0-1.0-0.4","2","1","jz6uvnjflqeuyme","","null","","<div style=""font-size:60px;"">+</div>","","null","","","","","","","","","","","","","","","","","","","","","","","","","","","","","","","","","","","","","","","","","",""
"audio-button-response","16","78866","0.0-3.0-1.0-1.0-1.4","2","1","jz6uvnjflqeuyme","","3904","","audCalib/t3_2.mp3","2","","2","1","headphone-test","","","","","","","","","","","","","","","","","","","","","","","","","","","","","","","","","","","","","","",""
"html-keyboard-response","17","79626","0.0-3.0-1.0-1.0-0.5","2","1","jz6uvnjflqeuyme","","null","","<div style=""font-size:60px;"">+</div>","","null","","","","","","","","","","","","","","","","","","","","","","","","","","","","","","","","","","","","","","","","","",""
"audio-button-response","18","83860","0.0-3.0-1.0-1.0-1.5","2","1","jz6uvnjflqeuyme","","4229","","audCalib/t1_1.mp3","0","","0","1","headphone-test","","","","","","","","","","","","","","","","","","","","","","","","","","","","","","","","","","","","","","",""
"html-button-response","19","85498","0.0-3.0-2.0","2","1","jz6uvnjflqeuyme","","1384.4000000953674","","<p>The volume calibration and headphone check are now complete.</p>","0","","","","","","","","","","","","","","","","","","","","","","","","","","","","","","","","","","","","","","","","","","",""
"instructions","20","99462","0.0-4.0-0.0","2","1","jz6uvnjflqeuyme","[{""page_index"":0,""viewing_time"":936.2000000476837},{""page_index"":1,""viewing_time"":11749.399999976158},{""page_index"":2,""viewing_time"":1276.7999999523163}]","13963.700000047684","","","","","","","","","","","","","","","","","","","","","","","","","","","","","","","","","","","","","","","","","","","","","",""
"audio-keyboard-response","21","99770","0.0-4.0-1.0-0.0","2","1","jz6uvnjflqeuyme","","null","","sounds/induction/right/fe_SWS.wav","","null","","","","","","","","","","","","","","","","","","","","","","","","","","","","","","","","","","","","","","","","","",""
"html-button-response","22","102345","0.0-4.0-1.0-1.0","2","1","jz6uvnjflqeuyme","","2572.2999999523163","","What sound did you hear?","0","","","1","INDUCTION-JUDGMENT","right","0","","","","","","","","","","","","","","","","","","","","","","","","","","","","","","","","","","","","",""
"html-keyboard-response","23","103349","0.0-4.0-1.0-2.0","2","1","jz6uvnjflqeuyme","","null","","<p style=""color:green;""><b>Correct!</b></p>","","null","","","","","","","","","","","","","","","","","","","","","","","","","","","","","","","","","","","","","","","","","",""
"audio-keyboard-response","24","104153","0.0-4.0-1.0-0.1","2","1","jz6uvnjflqeuyme","","null","","sounds/induction/left/ge_SWS.wav","","null","","","","","","","","","","","","","","","","","","","","","","","","","","","","","","","","","","","","","","","","","",""
"html-button-response","25","109722","0.0-4.0-1.0-1.1","2","1","jz6uvnjflqeuyme","","5567.599999904633","","What sound did you hear?","0","","","0","INDUCTION-JUDGMENT","left","1","","","","","","","","","","","","","","","","","","","","","","","","","","","","","","","","","","","","",""
"html-keyboard-response","26","110730","0.0-4.0-1.0-2.1","2","1","jz6uvnjflqeuyme","","null","","<p style=""color:red;""><b>Incorrect!</b></p>","","null","","","","","","","","","","","","","","","","","","","","","","","","","","","","","","","","","","","","","","","","","",""
"audio-keyboard-response","27","111540","0.0-4.0-1.0-0.2","2","1","jz6uvnjflqeuyme","","null","","sounds/induction/right/fe_SWS.wav","","null","","","","","","","","","","","","","","","","","","","","","","","","","","","","","","","","","","","","","","","","","",""
"html-button-response","28","114542","0.0-4.0-1.0-1.2","2","1","jz6uvnjflqeuyme","","2999.2999999523163","","What sound did you hear?","1","","","0","INDUCTION-JUDGMENT","right","0","","","","","","","","","","","","","","","","","","","","","","","","","","","","","","","","","","","","",""
"html-keyboard-response","29","115546","0.0-4.0-1.0-2.2","2","1","jz6uvnjflqeuyme","","null","","<p style=""color:red;""><b>Incorrect!</b></p>","","null","","","","","","","","","","","","","","","","","","","","","","","","","","","","","","","","","","","","","","","","","",""
"audio-keyboard-response","30","116356","0.0-4.0-1.0-0.3","2","1","jz6uvnjflqeuyme","","null","","sounds/induction/left/ti_SWS.wav","","null","","","","","","","","","","","","","","","","","","","","","","","","","","","","","","","","","","","","","","","","","",""
"html-button-response","31","118309","0.0-4.0-1.0-1.3","2","1","jz6uvnjflqeuyme","","1951.1000000238419","","What sound did you hear?","1","","","0","INDUCTION-JUDGMENT","left","0","","","","","","","","","","","","","","","","","","","","","","","","","","","","","","","","","","","","",""
"html-keyboard-response","32","119312","0.0-4.0-1.0-2.3","2","1","jz6uvnjflqeuyme","","null","","<p style=""color:red;""><b>Incorrect!</b></p>","","null","","","","","","","","","","","","","","","","","","","","","","","","","","","","","","","","","","","","","","","","","",""
"audio-keyboard-response","33","120121","0.0-4.0-1.0-0.4","2","1","jz6uvnjflqeuyme","","null","","sounds/induction/right/ti_SWS.wav","","null","","","","","","","","","","","","","","","","","","","","","","","","","","","","","","","","","","","","","","","","","",""
"html-button-response","34","121508","0.0-4.0-1.0-1.4","2","1","jz6uvnjflqeuyme","","1385.3000000715256","","What sound did you hear?","0","","","0","INDUCTION-JUDGMENT","right","1","","","","","","","","","","","","","","","","","","","","","","","","","","","","","","","","","","","","",""
"html-keyboard-response","35","122512","0.0-4.0-1.0-2.4","2","1","jz6uvnjflqeuyme","","null","","<p style=""color:red;""><b>Incorrect!</b></p>","","null","","","","","","","","","","","","","","","","","","","","","","","","","","","","","","","","","","","","","","","","","",""
"audio-keyboard-response","36","123321","0.0-4.0-1.0-0.5","2","1","jz6uvnjflqeuyme","","null","","sounds/induction/right/ta_SWS.wav","","null","","","","","","","","","","","","","","","","","","","","","","","","","","","","","","","","","","","","","","","","","",""
"html-button-response","37","125108","0.0-4.0-1.0-1.5","2","1","jz6uvnjflqeuyme","","1785.5","","What sound did you hear?","0","","","0","INDUCTION-JUDGMENT","right","1","","","","","","","","","","","","","","","","","","","","","","","","","","","","","","","","","","","","",""
"html-keyboard-response","38","126112","0.0-4.0-1.0-2.5","2","1","jz6uvnjflqeuyme","","null","","<p style=""color:red;""><b>Incorrect!</b></p>","","null","","","","","","","","","","","","","","","","","","","","","","","","","","","","","","","","","","","","","","","","","",""
"audio-keyboard-response","39","126921","0.0-4.0-1.0-0.6","2","1","jz6uvnjflqeuyme","","null","","sounds/induction/left/ni_SWS.wav","","null","","","","","","","","","","","","","","","","","","","","","","","","","","","","","","","","","","","","","","","","","",""
"html-button-response","40","127936","0.0-4.0-1.0-1.6","2","1","jz6uvnjflqeuyme","","1014.1000000238419","","What sound did you hear?","0","","","0","INDUCTION-JUDGMENT","left","1","","","","","","","","","","","","","","","","","","","","","","","","","","","","","","","","","","","","",""
"html-keyboard-response","41","128939","0.0-4.0-1.0-2.6","2","1","jz6uvnjflqeuyme","","null","","<p style=""color:red;""><b>Incorrect!</b></p>","","null","","","","","","","","","","","","","","","","","","","","","","","","","","","","","","","","","","","","","","","","","",""
"audio-keyboard-response","42","129747","0.0-4.0-1.0-0.7","2","1","jz6uvnjflqeuyme","","null","","sounds/induction/left/me_SWS.wav","","null","","","","","","","","","","","","","","","","","","","","","","","","","","","","","","","","","","","","","","","","","",""
"html-button-response","43","130963","0.0-4.0-1.0-1.7","2","1","jz6uvnjflqeuyme","","1214","","What sound did you hear?","1","","","1","INDUCTION-JUDGMENT","left","1","","","","","","","","","","","","","","","","","","","","","","","","","","","","","","","","","","","","",""
"html-keyboard-response","44","131967","0.0-4.0-1.0-2.7","2","1","jz6uvnjflqeuyme","","null","","<p style=""color:green;""><b>Correct!</b></p>","","null","","","","","","","","","","","","","","","","","","","","","","","","","","","","","","","","","","","","","","","","","",""
"audio-keyboard-response","45","132772","0.0-4.0-1.0-0.8","2","1","jz6uvnjflqeuyme","","null","","sounds/induction/left/re_SWS.wav","","null","","","","","","","","","","","","","","","","","","","","","","","","","","","","","","","","","","","","","","","","","",""
"html-button-response","46","133847","0.0-4.0-1.0-1.8","2","1","jz6uvnjflqeuyme","","1073.7999999523163","","What sound did you hear?","0","","","1","INDUCTION-JUDGMENT","left","0","","","","","","","","","","","","","","","","","","","","","","","","","","","","","","","","","","","","",""
"html-keyboard-response","47","134853","0.0-4.0-1.0-2.8","2","1","jz6uvnjflqeuyme","","null","","<p style=""color:green;""><b>Correct!</b></p>","","null","","","","","","","","","","","","","","","","","","","","","","","","","","","","","","","","","","","","","","","","","",""
"audio-keyboard-response","48","135662","0.0-4.0-1.0-0.9","2","1","jz6uvnjflqeuyme","","null","","sounds/induction/right/ta_SWS.wav","","null","","","","","","","","","","","","","","","","","","","","","","","","","","","","","","","","","","","","","","","","","",""
"html-button-response","49","137079","0.0-4.0-1.0-1.9","2","1","jz6uvnjflqeuyme","","1414.7000000476837","","What sound did you hear?","1","","","1","INDUCTION-JUDGMENT","right","1","","","","","","","","","","","","","","","","","","","","","","","","","","","","","","","","","","","","",""
"html-keyboard-response","50","138084","0.0-4.0-1.0-2.9","2","1","jz6uvnjflqeuyme","","null","","<p style=""color:green;""><b>Correct!</b></p>","","null","","","","","","","","","","","","","","","","","","","","","","","","","","","","","","","","","","","","","","","","","",""
"audio-keyboard-response","51","138889","0.0-4.0-1.0-0.10","2","1","jz6uvnjflqeuyme","","null","","sounds/induction/left/ru_SWS.wav","","null","","","","","","","","","","","","","","","","","","","","","","","","","","","","","","","","","","","","","","","","","",""
"html-button-response","52","140015","0.0-4.0-1.0-1.10","2","1","jz6uvnjflqeuyme","","1124","","What sound did you hear?","0","","","1","INDUCTION-JUDGMENT","left","0","","","","","","","","","","","","","","","","","","","","","","","","","","","","","","","","","","","","",""
"html-keyboard-response","53","141021","0.0-4.0-1.0-2.10","2","1","jz6uvnjflqeuyme","","null","","<p style=""color:green;""><b>Correct!</b></p>","","null","","","","","","","","","","","","","","","","","","","","","","","","","","","","","","","","","","","","","","","","","",""
"audio-keyboard-response","54","141827","0.0-4.0-1.0-0.11","2","1","jz6uvnjflqeuyme","","null","","sounds/induction/left/fu_SWS.wav","","null","","","","","","","","","","","","","","","","","","","","","","","","","","","","","","","","","","","","","","","","","",""
"html-button-response","55","143097","0.0-4.0-1.0-1.11","2","1","jz6uvnjflqeuyme","","1268.2999999523163","","What sound did you hear?","1","","","1","INDUCTION-JUDGMENT","left","1","","","","","","","","","","","","","","","","","","","","","","","","","","","","","","","","","","","","",""
"html-keyboard-response","56","144100","0.0-4.0-1.0-2.11","2","1","jz6uvnjflqeuyme","","null","","<p style=""color:green;""><b>Correct!</b></p>","","null","","","","","","","","","","","","","","","","","","","","","","","","","","","","","","","","","","","","","","","","","",""
"audio-keyboard-response","57","144905","0.0-4.0-1.0-0.12","2","1","jz6uvnjflqeuyme","","null","","sounds/induction/right/ru_SWS.wav","","null","","","","","","","","","","","","","","","","","","","","","","","","","","","","","","","","","","","","","","","","","",""
"html-button-response","58","146140","0.0-4.0-1.0-1.12","2","1","jz6uvnjflqeuyme","","1233.7999999523163","","What sound did you hear?","1","","","1","INDUCTION-JUDGMENT","right","1","","","","","","","","","","","","","","","","","","","","","","","","","","","","","","","","","","","","",""
"html-keyboard-response","59","147145","0.0-4.0-1.0-2.12","2","1","jz6uvnjflqeuyme","","null","","<p style=""color:green;""><b>Correct!</b></p>","","null","","","","","","","","","","","","","","","","","","","","","","","","","","","","","","","","","","","","","","","","","",""
"audio-keyboard-response","60","147950","0.0-4.0-1.0-0.13","2","1","jz6uvnjflqeuyme","","null","","sounds/induction/right/ge_SWS.wav","","null","","","","","","","","","","","","","","","","","","","","","","","","","","","","","","","","","","","","","","","","","",""
"html-button-response","61","148977","0.0-4.0-1.0-1.13","2","1","jz6uvnjflqeuyme","","1025.8999999761581","","What sound did you hear?","0","","","1","INDUCTION-JUDGMENT","right","0","","","","","","","","","","","","","","","","","","","","","","","","","","","","","","","","","","","","",""
"html-keyboard-response","62","149982","0.0-4.0-1.0-2.13","2","1","jz6uvnjflqeuyme","","null","","<p style=""color:green;""><b>Correct!</b></p>","","null","","","","","","","","","","","","","","","","","","","","","","","","","","","","","","","","","","","","","","","","","",""
"audio-keyboard-response","63","150787","0.0-4.0-1.0-0.14","2","1","jz6uvnjflqeuyme","","null","","sounds/induction/right/ru_SWS.wav","","null","","","","","","","","","","","","","","","","","","","","","","","","","","","","","","","","","","","","","","","","","",""
"html-button-response","64","151894","0.0-4.0-1.0-1.14","2","1","jz6uvnjflqeuyme","","1105.6000000238419","","What sound did you hear?","1","","","1","INDUCTION-JUDGMENT","right","1","","","","","","","","","","","","","","","","","","","","","","","","","","","","","","","","","","","","",""
"html-keyboard-response","65","152899","0.0-4.0-1.0-2.14","2","1","jz6uvnjflqeuyme","","null","","<p style=""color:green;""><b>Correct!</b></p>","","null","","","","","","","","","","","","","","","","","","","","","","","","","","","","","","","","","","","","","","","","","",""
"audio-keyboard-response","66","153704","0.0-4.0-1.0-0.15","2","1","jz6uvnjflqeuyme","","null","","sounds/induction/right/ko_SWS.wav","","null","","","","","","","","","","","","","","","","","","","","","","","","","","","","","","","","","","","","","","","","","",""
"html-button-response","67","154639","0.0-4.0-1.0-1.15","2","1","jz6uvnjflqeuyme","","932.7000000476837","","What sound did you hear?","0","","","1","INDUCTION-JUDGMENT","right","0","","","","","","","","","","","","","","","","","","","","","","","","","","","","","","","","","","","","",""
"html-keyboard-response","68","155645","0.0-4.0-1.0-2.15","2","1","jz6uvnjflqeuyme","","null","","<p style=""color:green;""><b>Correct!</b></p>","","null","","","","","","","","","","","","","","","","","","","","","","","","","","","","","","","","","","","","","","","","","",""
"audio-keyboard-response","69","156451","0.0-4.0-1.0-0.16","2","1","jz6uvnjflqeuyme","","null","","sounds/induction/right/su_SWS.wav","","null","","","","","","","","","","","","","","","","","","","","","","","","","","","","","","","","","","","","","","","","","",""
"html-button-response","70","157986","0.0-4.0-1.0-1.16","2","1","jz6uvnjflqeuyme","","1531.1999999284744","","What sound did you hear?","0","","","0","INDUCTION-JUDGMENT","right","1","","","","","","","","","","","","","","","","","","","","","","","","","","","","","","","","","","","","",""
"html-keyboard-response","71","158990","0.0-4.0-1.0-2.16","2","1","jz6uvnjflqeuyme","","null","","<p style=""color:red;""><b>Incorrect!</b></p>","","null","","","","","","","","","","","","","","","","","","","","","","","","","","","","","","","","","","","","","","","","","",""
"audio-keyboard-response","72","159795","0.0-4.0-1.0-0.17","2","1","jz6uvnjflqeuyme","","null","","sounds/induction/left/ge_SWS.wav","","null","","","","","","","","","","","","","","","","","","","","","","","","","","","","","","","","","","","","","","","","","",""
"html-button-response","73","161114","0.0-4.0-1.0-1.17","2","1","jz6uvnjflqeuyme","","1318.1000000238419","","What sound did you hear?","1","","","1","INDUCTION-JUDGMENT","left","1","","","","","","","","","","","","","","","","","","","","","","","","","","","","","","","","","","","","",""
"html-keyboard-response","74","162121","0.0-4.0-1.0-2.17","2","1","jz6uvnjflqeuyme","","null","","<p style=""color:green;""><b>Correct!</b></p>","","null","","","","","","","","","","","","","","","","","","","","","","","","","","","","","","","","","","","","","","","","","",""
"audio-keyboard-response","75","162926","0.0-4.0-1.0-0.18","2","1","jz6uvnjflqeuyme","","null","","sounds/induction/right/fu_SWS.wav","","null","","","","","","","","","","","","","","","","","","","","","","","","","","","","","","","","","","","","","","","","","",""
"html-button-response","76","163975","0.0-4.0-1.0-1.18","2","1","jz6uvnjflqeuyme","","1047.2000000476837","","What sound did you hear?","0","","","1","INDUCTION-JUDGMENT","right","0","","","","","","","","","","","","","","","","","","","","","","","","","","","","","","","","","","","","",""
"html-keyboard-response","77","164980","0.0-4.0-1.0-2.18","2","1","jz6uvnjflqeuyme","","null","","<p style=""color:green;""><b>Correct!</b></p>","","null","","","","","","","","","","","","","","","","","","","","","","","","","","","","","","","","","","","","","","","","","",""
"audio-keyboard-response","78","165784","0.0-4.0-1.0-0.19","2","1","jz6uvnjflqeuyme","","null","","sounds/induction/left/ko_SWS.wav","","null","","","","","","","","","","","","","","","","","","","","","","","","","","","","","","","","","","","","","","","","","",""
"html-button-response","79","167066","0.0-4.0-1.0-1.19","2","1","jz6uvnjflqeuyme","","1280.1000000238419","","What sound did you hear?","0","","","0","INDUCTION-JUDGMENT","left","1","","","","","","","","","","","","","","","","","","","","","","","","","","","","","","","","","","","","",""
"html-keyboard-response","80","168073","0.0-4.0-1.0-2.19","2","1","jz6uvnjflqeuyme","","null","","<p style=""color:red;""><b>Incorrect!</b></p>","","null","","","","","","","","","","","","","","","","","","","","","","","","","","","","","","","","","","","","","","","","","",""
"audio-keyboard-response","81","168878","0.0-4.0-1.0-0.20","2","1","jz6uvnjflqeuyme","","null","","sounds/induction/left/su_SWS.wav","","null","","","","","","","","","","","","","","","","","","","","","","","","","","","","","","","","","","","","","","","","","",""
"html-button-response","82","170429","0.0-4.0-1.0-1.20","2","1","jz6uvnjflqeuyme","","1549.8000000715256","","What sound did you hear?","0","","","1","INDUCTION-JUDGMENT","left","0","","","","","","","","","","","","","","","","","","","","","","","","","","","","","","","","","","","","",""
"html-keyboard-response","83","171432","0.0-4.0-1.0-2.20","2","1","jz6uvnjflqeuyme","","null","","<p style=""color:green;""><b>Correct!</b></p>","","null","","","","","","","","","","","","","","","","","","","","","","","","","","","","","","","","","","","","","","","","","",""
"audio-keyboard-response","84","172238","0.0-4.0-1.0-0.21","2","1","jz6uvnjflqeuyme","","null","","sounds/induction/left/pu_SWS.wav","","null","","","","","","","","","","","","","","","","","","","","","","","","","","","","","","","","","","","","","","","","","",""
"html-button-response","85","173052","0.0-4.0-1.0-1.21","2","1","jz6uvnjflqeuyme","","812.4000000953674","","What sound did you hear?","0","","","1","INDUCTION-JUDGMENT","left","0","","","","","","","","","","","","","","","","","","","","","","","","","","","","","","","","","","","","",""
"html-keyboard-response","86","174057","0.0-4.0-1.0-2.21","2","1","jz6uvnjflqeuyme","","null","","<p style=""color:green;""><b>Correct!</b></p>","","null","","","","","","","","","","","","","","","","","","","","","","","","","","","","","","","","","","","","","","","","","",""
"audio-keyboard-response","87","174861","0.0-4.0-1.0-0.22","2","1","jz6uvnjflqeuyme","","null","","sounds/induction/left/ta_SWS.wav","","null","","","","","","","","","","","","","","","","","","","","","","","","","","","","","","","","","","","","","","","","","",""
"html-button-response","88","176152","0.0-4.0-1.0-1.22","2","1","jz6uvnjflqeuyme","","1288.8999999761581","","What sound did you hear?","0","","","1","INDUCTION-JUDGMENT","left","0","","","","","","","","","","","","","","","","","","","","","","","","","","","","","","","","","","","","",""
"html-keyboard-response","89","177155","0.0-4.0-1.0-2.22","2","1","jz6uvnjflqeuyme","","null","","<p style=""color:green;""><b>Correct!</b></p>","","null","","","","","","","","","","","","","","","","","","","","","","","","","","","","","","","","","","","","","","","","","",""
"audio-keyboard-response","90","177960","0.0-4.0-1.0-0.23","2","1","jz6uvnjflqeuyme","","null","","sounds/induction/left/fe_SWS.wav","","null","","","","","","","","","","","","","","","","","","","","","","","","","","","","","","","","","","","","","","","","","",""
"html-button-response","91","178804","0.0-4.0-1.0-1.23","2","1","jz6uvnjflqeuyme","","843.5","","What sound did you hear?","0","","","0","INDUCTION-JUDGMENT","left","1","","","","","","","","","","","","","","","","","","","","","","","","","","","","","","","","","","","","",""
"html-keyboard-response","92","179809","0.0-4.0-1.0-2.23","2","1","jz6uvnjflqeuyme","","null","","<p style=""color:red;""><b>Incorrect!</b></p>","","null","","","","","","","","","","","","","","","","","","","","","","","","","","","","","","","","","","","","","","","","","",""
"audio-keyboard-response","93","180616","0.0-4.0-1.0-0.24","2","1","jz6uvnjflqeuyme","","null","","sounds/induction/left/ko_SWS.wav","","null","","","","","","","","","","","","","","","","","","","","","","","","","","","","","","","","","","","","","","","","","",""
"html-button-response","94","181511","0.0-4.0-1.0-1.24","2","1","jz6uvnjflqeuyme","","893.2000000476837","","What sound did you hear?","0","","","0","INDUCTION-JUDGMENT","left","1","","","","","","","","","","","","","","","","","","","","","","","","","","","","","","","","","","","","",""
"html-keyboard-response","95","182515","0.0-4.0-1.0-2.24","2","1","jz6uvnjflqeuyme","","null","","<p style=""color:red;""><b>Incorrect!</b></p>","","null","","","","","","","","","","","","","","","","","","","","","","","","","","","","","","","","","","","","","","","","","",""
"audio-keyboard-response","96","183320","0.0-4.0-1.0-0.25","2","1","jz6uvnjflqeuyme","","null","","sounds/induction/right/me_SWS.wav","","null","","","","","","","","","","","","","","","","","","","","","","","","","","","","","","","","","","","","","","","","","",""
"html-button-response","97","184166","0.0-4.0-1.0-1.25","2","1","jz6uvnjflqeuyme","","844.3999999761581","","What sound did you hear?","0","","","1","INDUCTION-JUDGMENT","right","0","","","","","","","","","","","","","","","","","","","","","","","","","","","","","","","","","","","","",""
"html-keyboard-response","98","185171","0.0-4.0-1.0-2.25","2","1","jz6uvnjflqeuyme","","null","","<p style=""color:green;""><b>Correct!</b></p>","","null","","","","","","","","","","","","","","","","","","","","","","","","","","","","","","","","","","","","","","","","","",""
"audio-keyboard-response","99","185976","0.0-4.0-1.0-0.26","2","1","jz6uvnjflqeuyme","","null","","sounds/induction/left/ti_SWS.wav","","null","","","","","","","","","","","","","","","","","","","","","","","","","","","","","","","","","","","","","","","","","",""
"html-button-response","100","186904","0.0-4.0-1.0-1.26","2","1","jz6uvnjflqeuyme","","926.4000000953674","","What sound did you hear?","0","","","1","INDUCTION-JUDGMENT","left","0","","","","","","","","","","","","","","","","","","","","","","","","","","","","","","","","","","","","",""
"html-keyboard-response","101","187910","0.0-4.0-1.0-2.26","2","1","jz6uvnjflqeuyme","","null","","<p style=""color:green;""><b>Correct!</b></p>","","null","","","","","","","","","","","","","","","","","","","","","","","","","","","","","","","","","","","","","","","","","",""
"audio-keyboard-response","102","188717","0.0-4.0-1.0-0.27","2","1","jz6uvnjflqeuyme","","null","","sounds/induction/right/ge_SWS.wav","","null","","","","","","","","","","","","","","","","","","","","","","","","","","","","","","","","","","","","","","","","","",""
"html-button-response","103","189543","0.0-4.0-1.0-1.27","2","1","jz6uvnjflqeuyme","","823.3999999761581","","What sound did you hear?","0","","","1","INDUCTION-JUDGMENT","right","0","","","","","","","","","","","","","","","","","","","","","","","","","","","","","","","","","","","","",""
"html-keyboard-response","104","190547","0.0-4.0-1.0-2.27","2","1","jz6uvnjflqeuyme","","null","","<p style=""color:green;""><b>Correct!</b></p>","","null","","","","","","","","","","","","","","","","","","","","","","","","","","","","","","","","","","","","","","","","","",""
"audio-keyboard-response","105","191352","0.0-4.0-1.0-0.28","2","1","jz6uvnjflqeuyme","","null","","sounds/induction/left/me_SWS.wav","","null","","","","","","","","","","","","","","","","","","","","","","","","","","","","","","","","","","","","","","","","","",""
"html-button-response","106","192350","0.0-4.0-1.0-1.28","2","1","jz6uvnjflqeuyme","","995.8999999761581","","What sound did you hear?","1","","","1","INDUCTION-JUDGMENT","left","1","","","","","","","","","","","","","","","","","","","","","","","","","","","","","","","","","","","","",""
"html-keyboard-response","107","193354","0.0-4.0-1.0-2.28","2","1","jz6uvnjflqeuyme","","null","","<p style=""color:green;""><b>Correct!</b></p>","","null","","","","","","","","","","","","","","","","","","","","","","","","","","","","","","","","","","","","","","","","","",""
"audio-keyboard-response","108","194162","0.0-4.0-1.0-0.29","2","1","jz6uvnjflqeuyme","","null","","sounds/induction/right/ni_SWS.wav","","null","","","","","","","","","","","","","","","","","","","","","","","","","","","","","","","","","","","","","","","","","",""
"html-button-response","109","195022","0.0-4.0-1.0-1.29","2","1","jz6uvnjflqeuyme","","857.7999999523163","","What sound did you hear?","1","","","0","INDUCTION-JUDGMENT","right","0","","","","","","","","","","","","","","","","","","","","","","","","","","","","","","","","","","","","",""
"html-keyboard-response","110","196028","0.0-4.0-1.0-2.29","2","1","jz6uvnjflqeuyme","","null","","<p style=""color:red;""><b>Incorrect!</b></p>","","null","","","","","","","","","","","","","","","","","","","","","","","","","","","","","","","","","","","","","","","","","",""
"audio-keyboard-response","111","196835","0.0-4.0-1.0-0.30","2","1","jz6uvnjflqeuyme","","null","","sounds/induction/left/fu_SWS.wav","","null","","","","","","","","","","","","","","","","","","","","","","","","","","","","","","","","","","","","","","","","","",""
"html-button-response","112","197854","0.0-4.0-1.0-1.30","2","1","jz6uvnjflqeuyme","","1016.7999999523163","","What sound did you hear?","1","","","1","INDUCTION-JUDGMENT","left","1","","","","","","","","","","","","","","","","","","","","","","","","","","","","","","","","","","","","",""
"html-keyboard-response","113","198856","0.0-4.0-1.0-2.30","2","1","jz6uvnjflqeuyme","","null","","<p style=""color:green;""><b>Correct!</b></p>","","null","","","","","","","","","","","","","","","","","","","","","","","","","","","","","","","","","","","","","","","","","",""
"audio-keyboard-response","114","199661","0.0-4.0-1.0-0.31","2","1","jz6uvnjflqeuyme","","null","","sounds/induction/right/su_SWS.wav","","null","","","","","","","","","","","","","","","","","","","","","","","","","","","","","","","","","","","","","","","","","",""
"html-button-response","115","200994","0.0-4.0-1.0-1.31","2","1","jz6uvnjflqeuyme","","1330.8999999761581","","What sound did you hear?","1","","","1","INDUCTION-JUDGMENT","right","1","","","","","","","","","","","","","","","","","","","","","","","","","","","","","","","","","","","","",""
"html-keyboard-response","116","202000","0.0-4.0-1.0-2.31","2","1","jz6uvnjflqeuyme","","null","","<p style=""color:green;""><b>Correct!</b></p>","","null","","","","","","","","","","","","","","","","","","","","","","","","","","","","","","","","","","","","","","","","","",""
"audio-keyboard-response","117","202808","0.0-4.0-1.0-0.32","2","1","jz6uvnjflqeuyme","","null","","sounds/induction/left/ru_SWS.wav","","null","","","","","","","","","","","","","","","","","","","","","","","","","","","","","","","","","","","","","","","","","",""
"html-button-response","118","203912","0.0-4.0-1.0-1.32","2","1","jz6uvnjflqeuyme","","1102.3999999761581","","What sound did you hear?","0","","","1","INDUCTION-JUDGMENT","left","0","","","","","","","","","","","","","","","","","","","","","","","","","","","","","","","","","","","","",""
"html-keyboard-response","119","204915","0.0-4.0-1.0-2.32","2","1","jz6uvnjflqeuyme","","null","","<p style=""color:green;""><b>Correct!</b></p>","","null","","","","","","","","","","","","","","","","","","","","","","","","","","","","","","","","","","","","","","","","","",""
"audio-keyboard-response","120","205719","0.0-4.0-1.0-0.33","2","1","jz6uvnjflqeuyme","","null","","sounds/induction/left/ni_SWS.wav","","null","","","","","","","","","","","","","","","","","","","","","","","","","","","","","","","","","","","","","","","","","",""
"html-button-response","121","206572","0.0-4.0-1.0-1.33","2","1","jz6uvnjflqeuyme","","851","","What sound did you hear?","0","","","0","INDUCTION-JUDGMENT","left","1","","","","","","","","","","","","","","","","","","","","","","","","","","","","","","","","","","","","",""
"html-keyboard-response","122","207578","0.0-4.0-1.0-2.33","2","1","jz6uvnjflqeuyme","","null","","<p style=""color:red;""><b>Incorrect!</b></p>","","null","","","","","","","","","","","","","","","","","","","","","","","","","","","","","","","","","","","","","","","","","",""
"audio-keyboard-response","123","208386","0.0-4.0-1.0-0.34","2","1","jz6uvnjflqeuyme","","null","","sounds/induction/right/ni_SWS.wav","","null","","","","","","","","","","","","","","","","","","","","","","","","","","","","","","","","","","","","","","","","","",""
"html-button-response","124","209446","0.0-4.0-1.0-1.34","2","1","jz6uvnjflqeuyme","","1057.3999999761581","","What sound did you hear?","1","","","0","INDUCTION-JUDGMENT","right","0","","","","","","","","","","","","","","","","","","","","","","","","","","","","","","","","","","","","",""
"html-keyboard-response","125","210451","0.0-4.0-1.0-2.34","2","1","jz6uvnjflqeuyme","","null","","<p style=""color:red;""><b>Incorrect!</b></p>","","null","","","","","","","","","","","","","","","","","","","","","","","","","","","","","","","","","","","","","","","","","",""
"audio-keyboard-response","126","211256","0.0-4.0-1.0-0.35","2","1","jz6uvnjflqeuyme","","null","","sounds/induction/right/re_SWS.wav","","null","","","","","","","","","","","","","","","","","","","","","","","","","","","","","","","","","","","","","","","","","",""
"html-button-response","127","212602","0.0-4.0-1.0-1.35","2","1","jz6uvnjflqeuyme","","1343.8999999761581","","What sound did you hear?","1","","","1","INDUCTION-JUDGMENT","right","1","","","","","","","","","","","","","","","","","","","","","","","","","","","","","","","","","","","","",""
"html-keyboard-response","128","213608","0.0-4.0-1.0-2.35","2","1","jz6uvnjflqeuyme","","null","","<p style=""color:green;""><b>Correct!</b></p>","","null","","","","","","","","","","","","","","","","","","","","","","","","","","","","","","","","","","","","","","","","","",""
"audio-keyboard-response","129","214413","0.0-4.0-1.0-0.36","2","1","jz6uvnjflqeuyme","","null","","sounds/induction/right/fu_SWS.wav","","null","","","","","","","","","","","","","","","","","","","","","","","","","","","","","","","","","","","","","","","","","",""
"html-button-response","130","215415","0.0-4.0-1.0-1.36","2","1","jz6uvnjflqeuyme","","1000.1999999284744","","What sound did you hear?","0","","","1","INDUCTION-JUDGMENT","right","0","","","","","","","","","","","","","","","","","","","","","","","","","","","","","","","","","","","","",""
"html-keyboard-response","131","216421","0.0-4.0-1.0-2.36","2","1","jz6uvnjflqeuyme","","null","","<p style=""color:green;""><b>Correct!</b></p>","","null","","","","","","","","","","","","","","","","","","","","","","","","","","","","","","","","","","","","","","","","","",""
"audio-keyboard-response","132","217229","0.0-4.0-1.0-0.37","2","1","jz6uvnjflqeuyme","","null","","sounds/induction/right/re_SWS.wav","","null","","","","","","","","","","","","","","","","","","","","","","","","","","","","","","","","","","","","","","","","","",""
"html-button-response","133","218028","0.0-4.0-1.0-1.37","2","1","jz6uvnjflqeuyme","","798","","What sound did you hear?","0","","","0","INDUCTION-JUDGMENT","right","1","","","","","","","","","","","","","","","","","","","","","","","","","","","","","","","","","","","","",""
"html-keyboard-response","134","219035","0.0-4.0-1.0-2.37","2","1","jz6uvnjflqeuyme","","null","","<p style=""color:red;""><b>Incorrect!</b></p>","","null","","","","","","","","","","","","","","","","","","","","","","","","","","","","","","","","","","","","","","","","","",""
"audio-keyboard-response","135","219842","0.0-4.0-1.0-0.38","2","1","jz6uvnjflqeuyme","","null","","sounds/induction/left/pu_SWS.wav","","null","","","","","","","","","","","","","","","","","","","","","","","","","","","","","","","","","","","","","","","","","",""
"html-button-response","136","221029","0.0-4.0-1.0-1.38","2","1","jz6uvnjflqeuyme","","1184.5999999046326","","What sound did you hear?","0","","","1","INDUCTION-JUDGMENT","left","0","","","","","","","","","","","","","","","","","","","","","","","","","","","","","","","","","","","","",""
"html-keyboard-response","137","222036","0.0-4.0-1.0-2.38","2","1","jz6uvnjflqeuyme","","null","","<p style=""color:green;""><b>Correct!</b></p>","","null","","","","","","","","","","","","","","","","","","","","","","","","","","","","","","","","","","","","","","","","","",""
"audio-keyboard-response","138","222845","0.0-4.0-1.0-0.39","2","1","jz6uvnjflqeuyme","","null","","sounds/induction/right/ti_SWS.wav","","null","","","","","","","","","","","","","","","","","","","","","","","","","","","","","","","","","","","","","","","","","",""
"html-button-response","139","223751","0.0-4.0-1.0-1.39","2","1","jz6uvnjflqeuyme","","905.2999999523163","","What sound did you hear?","0","","","0","INDUCTION-JUDGMENT","right","1","","","","","","","","","","","","","","","","","","","","","","","","","","","","","","","","","","","","",""
"html-keyboard-response","140","224754","0.0-4.0-1.0-2.39","2","1","jz6uvnjflqeuyme","","null","","<p style=""color:red;""><b>Incorrect!</b></p>","","null","","","","","","","","","","","","","","","","","","","","","","","","","","","","","","","","","","","","","","","","","",""
"audio-keyboard-response","141","225559","0.0-4.0-1.0-0.40","2","1","jz6uvnjflqeuyme","","null","","sounds/induction/right/me_SWS.wav","","null","","","","","","","","","","","","","","","","","","","","","","","","","","","","","","","","","","","","","","","","","",""
"html-button-response","142","226365","0.0-4.0-1.0-1.40","2","1","jz6uvnjflqeuyme","","803.5","","What sound did you hear?","0","","","1","INDUCTION-JUDGMENT","right","0","","","","","","","","","","","","","","","","","","","","","","","","","","","","","","","","","","","","",""
"html-keyboard-response","143","227368","0.0-4.0-1.0-2.40","2","1","jz6uvnjflqeuyme","","null","","<p style=""color:green;""><b>Correct!</b></p>","","null","","","","","","","","","","","","","","","","","","","","","","","","","","","","","","","","","","","","","","","","","",""
"audio-keyboard-response","144","228173","0.0-4.0-1.0-0.41","2","1","jz6uvnjflqeuyme","","null","","sounds/induction/right/pu_SWS.wav","","null","","","","","","","","","","","","","","","","","","","","","","","","","","","","","","","","","","","","","","","","","",""
"html-button-response","145","229959","0.0-4.0-1.0-1.41","2","1","jz6uvnjflqeuyme","","1783.6000000238419","","What sound did you hear?","1","","","1","INDUCTION-JUDGMENT","right","1","","","","","","","","","","","","","","","","","","","","","","","","","","","","","","","","","","","","",""
"html-keyboard-response","146","230962","0.0-4.0-1.0-2.41","2","1","jz6uvnjflqeuyme","","null","","<p style=""color:green;""><b>Correct!</b></p>","","null","","","","","","","","","","","","","","","","","","","","","","","","","","","","","","","","","","","","","","","","","",""
"audio-keyboard-response","147","231767","0.0-4.0-1.0-0.42","2","1","jz6uvnjflqeuyme","","null","","sounds/induction/left/su_SWS.wav","","null","","","","","","","","","","","","","","","","","","","","","","","","","","","","","","","","","","","","","","","","","",""
"html-button-response","148","232977","0.0-4.0-1.0-1.42","2","1","jz6uvnjflqeuyme","","1208.1999999284744","","What sound did you hear?","0","","","1","INDUCTION-JUDGMENT","left","0","","","","","","","","","","","","","","","","","","","","","","","","","","","","","","","","","","","","",""
"html-keyboard-response","149","233981","0.0-4.0-1.0-2.42","2","1","jz6uvnjflqeuyme","","null","","<p style=""color:green;""><b>Correct!</b></p>","","null","","","","","","","","","","","","","","","","","","","","","","","","","","","","","","","","","","","","","","","","","",""
"audio-keyboard-response","150","234791","0.0-4.0-1.0-0.43","2","1","jz6uvnjflqeuyme","","null","","sounds/induction/right/pu_SWS.wav","","null","","","","","","","","","","","","","","","","","","","","","","","","","","","","","","","","","","","","","","","","","",""
"html-button-response","151","236809","0.0-4.0-1.0-1.43","2","1","jz6uvnjflqeuyme","","2015.3999999761581","","What sound did you hear?","1","","","1","INDUCTION-JUDGMENT","right","1","","","","","","","","","","","","","","","","","","","","","","","","","","","","","","","","","","","","",""
"html-keyboard-response","152","237812","0.0-4.0-1.0-2.43","2","1","jz6uvnjflqeuyme","","null","","<p style=""color:green;""><b>Correct!</b></p>","","null","","","","","","","","","","","","","","","","","","","","","","","","","","","","","","","","","","","","","","","","","",""
"audio-keyboard-response","153","238621","0.0-4.0-1.0-0.44","2","1","jz6uvnjflqeuyme","","null","","sounds/induction/left/re_SWS.wav","","null","","","","","","","","","","","","","","","","","","","","","","","","","","","","","","","","","","","","","","","","","",""
"html-button-response","154","239430","0.0-4.0-1.0-1.44","2","1","jz6uvnjflqeuyme","","807","","What sound did you hear?","0","","","1","INDUCTION-JUDGMENT","left","0","","","","","","","","","","","","","","","","","","","","","","","","","","","","","","","","","","","","",""
"html-keyboard-response","155","240435","0.0-4.0-1.0-2.44","2","1","jz6uvnjflqeuyme","","null","","<p style=""color:green;""><b>Correct!</b></p>","","null","","","","","","","","","","","","","","","","","","","","","","","","","","","","","","","","","","","","","","","","","",""
"audio-keyboard-response","156","241239","0.0-4.0-1.0-0.45","2","1","jz6uvnjflqeuyme","","null","","sounds/induction/left/ta_SWS.wav","","null","","","","","","","","","","","","","","","","","","","","","","","","","","","","","","","","","","","","","","","","","",""
"html-button-response","157","242325","0.0-4.0-1.0-1.45","2","1","jz6uvnjflqeuyme","","1083.4000000953674","","What sound did you hear?","0","","","1","INDUCTION-JUDGMENT","left","0","","","","","","","","","","","","","","","","","","","","","","","","","","","","","","","","","","","","",""
"html-keyboard-response","158","243331","0.0-4.0-1.0-2.45","2","1","jz6uvnjflqeuyme","","null","","<p style=""color:green;""><b>Correct!</b></p>","","null","","","","","","","","","","","","","","","","","","","","","","","","","","","","","","","","","","","","","","","","","",""
"audio-keyboard-response","159","244135","0.0-4.0-1.0-0.46","2","1","jz6uvnjflqeuyme","","null","","sounds/induction/right/ko_SWS.wav","","null","","","","","","","","","","","","","","","","","","","","","","","","","","","","","","","","","","","","","","","","","",""
"html-button-response","160","245278","0.0-4.0-1.0-1.46","2","1","jz6uvnjflqeuyme","","1140.7999999523163","","What sound did you hear?","1","","","0","INDUCTION-JUDGMENT","right","0","","","","","","","","","","","","","","","","","","","","","","","","","","","","","","","","","","","","",""
"html-keyboard-response","161","246282","0.0-4.0-1.0-2.46","2","1","jz6uvnjflqeuyme","","null","","<p style=""color:red;""><b>Incorrect!</b></p>","","null","","","","","","","","","","","","","","","","","","","","","","","","","","","","","","","","","","","","","","","","","",""
"audio-keyboard-response","162","247084","0.0-4.0-1.0-0.47","2","1","jz6uvnjflqeuyme","","null","","sounds/induction/left/fe_SWS.wav","","null","","","","","","","","","","","","","","","","","","","","","","","","","","","","","","","","","","","","","","","","","",""
"html-button-response","163","248265","0.0-4.0-1.0-1.47","2","1","jz6uvnjflqeuyme","","1178.7999999523163","","What sound did you hear?","0","","","0","INDUCTION-JUDGMENT","left","1","","","","","","","","","","","","","","","","","","","","","","","","","","","","","","","","","","","","",""
"html-keyboard-response","164","249268","0.0-4.0-1.0-2.47","2","1","jz6uvnjflqeuyme","","null","","<p style=""color:red;""><b>Incorrect!</b></p>","","null","","","","","","","","","","","","","","","","","","","","","","","","","","","","","","","","","","","","","","","","","",""
"html-button-response","165","258247","0.0-5.0-0.0","2","1","jz6uvnjflqeuyme","","8472","","<p>Thank you for your answers.</p><p>You will now listen to similar sounds. The main difference is that the sounds will be longer and will make up complete sentences.</p><p>Please listen carefully to each sentence. After each sentence, you will be asked to type back what you heard to the best of your ability. After you provide your response, you will be given feedback about the correct answer.</p><p>There are 10 sentences in total.","0","","","","","","","","","","","","","","","","","","","","","","","","","","","","","","","","","","","","","","","","","","",""
"audio-keyboard-response","166","261138","0.0-5.0-1.0-0.0","2","1","jz6uvnjflqeuyme","","null","","sounds/sentences/right/14_07_cfSWS.wav","","null","","","","","","","","","","","","","","","","","","","","","","","","","","","","","","","","","","","","","","","","","",""
"sentence-resp","167","269103","0.0-5.0-1.0-1.0","2","1","jz6uvnjflqeuyme","","7961","","","","","","","SWS-SENT-RESPONSE","","","{""Q0"":""ree moo foo mee ree""}","Write a fond note to the friend you cherish.","write,fond,note,friend,cherish","REE MOO FOO MEE REE","0","0","0","0","0","0","0","","","","","","","","","","","","","","","","","","","","","","","","","",""
"html-keyboard-response","168","270359","0.0-5.0-1.0-2.0","2","1","jz6uvnjflqeuyme","","null","","","","null","","","","","","","","","","","","","","","","","","","","","","","","","","","","","","","","","","","","","","","","","",""
"audio-keyboard-response","169","272748","0.0-5.0-1.0-3.0","2","1","jz6uvnjflqeuyme","","null","","sounds/sentences/right/14_07_cfSWS.wav","","null","","","","","","","","","","","","","","","","","","","","","","","","","","","","","","","","","","","","","","","","","",""
"html-keyboard-response","170","273754","0.0-5.0-1.0-4.0","2","1","jz6uvnjflqeuyme","","null","","","","null","","","","","","","","","","","","","","","","","","","","","","","","","","","","","","","","","","","","","","","","","",""
"html-button-response","171","275499","0.0-5.0-1.0-5.0","2","1","jz6uvnjflqeuyme","","1240.3999999761581","","<p>Press the button below when you are ready to continue.</p>","0","","","","","","","","","","","","","","","","","","","","","","","","","","","","","","","","","","","","","","","","","","",""
"audio-keyboard-response","172","278492","0.0-5.0-1.0-0.1","2","1","jz6uvnjflqeuyme","","null","","sounds/sentences/left/14_05_cfSWS.wav","","null","","","","","","","","","","","","","","","","","","","","","","","","","","","","","","","","","","","","","","","","","",""
"sentence-resp","173","288521","0.0-5.0-1.0-1.1","2","1","jz6uvnjflqeuyme","","10026","","","","","","","SWS-SENT-RESPONSE","","","{""Q0"":""billie eilish is such a sweet girl\n""}","The glow deepened in the eyes of the sweet girl.","glow,deepened,eyes,sweet,girl","BILLIE EILISH IS SUCH A SWEET GIRL ","0","0","0","1","1","2","0.4","","","","","","","","","","","","","","","","","","","","","","","","","",""
"html-keyboard-response","174","289783","0.0-5.0-1.0-2.1","2","1","jz6uvnjflqeuyme","","null","","","","null","","","","","","","","","","","","","","","","","","","","","","","","","","","","","","","","","","","","","","","","","",""
"audio-keyboard-response","175","292273","0.0-5.0-1.0-3.1","2","1","jz6uvnjflqeuyme","","null","","sounds/sentences/left/14_05_cfSWS.wav","","null","","","","","","","","","","","","","","","","","","","","","","","","","","","","","","","","","","","","","","","","","",""
"html-keyboard-response","176","293279","0.0-5.0-1.0-4.1","2","1","jz6uvnjflqeuyme","","null","","","","null","","","","","","","","","","","","","","","","","","","","","","","","","","","","","","","","","","","","","","","","","",""
"html-button-response","177","295081","0.0-5.0-1.0-5.1","2","1","jz6uvnjflqeuyme","","1297.1000000238419","","<p>Press the button below when you are ready to continue.</p>","0","","","","","","","","","","","","","","","","","","","","","","","","","","","","","","","","","","","","","","","","","","",""
"audio-keyboard-response","178","297905","0.0-5.0-1.0-0.2","2","1","jz6uvnjflqeuyme","","null","","sounds/sentences/left/14_02_cfSWS.wav","","null","","","","","","","","","","","","","","","","","","","","","","","","","","","","","","","","","","","","","","","","","",""
"sentence-resp","179","303627","0.0-5.0-1.0-1.2","2","1","jz6uvnjflqeuyme","","5719","","","","","","","SWS-SENT-RESPONSE","","","{""Q0"":""she said the same phrase 30 times\n""}","He said the same phrase thirty times.","said,same,phrase,thirty,times","SHE SAID THE SAME PHRASE 30 TIMES ","1","1","1","0","1","4","0.8","","","","","","","","","","","","","","","","","","","","","","","","","",""
"html-keyboard-response","180","304882","0.0-5.0-1.0-2.2","2","1","jz6uvnjflqeuyme","","null","","","","null","","","","","","","","","","","","","","","","","","","","","","","","","","","","","","","","","","","","","","","","","",""
"audio-keyboard-response","181","307201","0.0-5.0-1.0-3.2","2","1","jz6uvnjflqeuyme","","null","","sounds/sentences/left/14_02_cfSWS.wav","","null","","","","","","","","","","","","","","","","","","","","","","","","","","","","","","","","","","","","","","","","","",""
"html-keyboard-response","182","308205","0.0-5.0-1.0-4.2","2","1","jz6uvnjflqeuyme","","null","","","","null","","","","","","","","","","","","","","","","","","","","","","","","","","","","","","","","","","","","","","","","","",""
"html-button-response","183","314548","0.0-5.0-1.0-5.2","2","1","jz6uvnjflqeuyme","","5835.5","","<p>Press the button below when you are ready to continue.</p>","0","","","","","","","","","","","","","","","","","","","","","","","","","","","","","","","","","","","","","","","","","","",""
"audio-keyboard-response","184","317569","0.0-5.0-1.0-0.3","2","1","jz6uvnjflqeuyme","","null","","sounds/sentences/right/14_10_cfSWS.wav","","null","","","","","","","","","","","","","","","","","","","","","","","","","","","","","","","","","","","","","","","","","",""
"sentence-resp","185","324307","0.0-5.0-1.0-1.3","2","1","jz6uvnjflqeuyme","","6736","","","","","","","SWS-SENT-RESPONSE","","","{""Q0"":""forty is such a strong mind holy shit""}","Port is a strong wine with a smoky taste.","port,strong,wine,smoky,taste","FORTY IS SUCH A STRONG MIND HOLY SHIT","0","1","0","0","0","1","0.2","","","","","","","","","","","","","","","","","","","","","","","","","",""
"html-keyboard-response","186","325564","0.0-5.0-1.0-2.3","2","1","jz6uvnjflqeuyme","","null","","","","null","","","","","","","","","","","","","","","","","","","","","","","","","","","","","","","","","","","","","","","","","",""
"audio-keyboard-response","187","328081","0.0-5.0-1.0-3.3","2","1","jz6uvnjflqeuyme","","null","","sounds/sentences/right/14_10_cfSWS.wav","","null","","","","","","","","","","","","","","","","","","","","","","","","","","","","","","","","","","","","","","","","","",""
"html-keyboard-response","188","329084","0.0-5.0-1.0-4.3","2","1","jz6uvnjflqeuyme","","null","","","","null","","","","","","","","","","","","","","","","","","","","","","","","","","","","","","","","","","","","","","","","","",""
"html-button-response","189","330349","0.0-5.0-1.0-5.3","2","1","jz6uvnjflqeuyme","","761.9000000953674","","<p>Press the button below when you are ready to continue.</p>","0","","","","","","","","","","","","","","","","","","","","","","","","","","","","","","","","","","","","","","","","","","",""
"audio-keyboard-response","190","333094","0.0-5.0-1.0-0.4","2","1","jz6uvnjflqeuyme","","null","","sounds/sentences/right/14_06_cfSWS.wav","","null","","","","","","","","","","","","","","","","","","","","","","","","","","","","","","","","","","","","","","","","","",""
"sentence-resp","191","343556","0.0-5.0-1.0-1.4","2","1","jz6uvnjflqeuyme","","10457","","","","","","","SWS-SENT-RESPONSE","","","{""Q0"":""bring me your problems to the wine chief\n""}","Bring your problems to the wise chief.","bring,your,problems,wise,chief","BRING ME YOUR PROBLEMS TO THE WINE CHIEF ","1","1","1","0","1","4","0.8","","","","","","","","","","","","","","","","","","","","","","","","","",""
"html-keyboard-response","192","344812","0.0-5.0-1.0-2.4","2","1","jz6uvnjflqeuyme","","null","","","","null","","","","","","","","","","","","","","","","","","","","","","","","","","","","","","","","","","","","","","","","","",""
"audio-keyboard-response","193","347057","0.0-5.0-1.0-3.4","2","1","jz6uvnjflqeuyme","","null","","sounds/sentences/right/14_06_cfSWS.wav","","null","","","","","","","","","","","","","","","","","","","","","","","","","","","","","","","","","","","","","","","","","",""
"html-keyboard-response","194","348059","0.0-5.0-1.0-4.4","2","1","jz6uvnjflqeuyme","","null","","","","null","","","","","","","","","","","","","","","","","","","","","","","","","","","","","","","","","","","","","","","","","",""
"html-button-response","195","349165","0.0-5.0-1.0-5.4","2","1","jz6uvnjflqeuyme","","599","","<p>Press the button below when you are ready to continue.</p>","0","","","","","","","","","","","","","","","","","","","","","","","","","","","","","","","","","","","","","","","","","","",""
"audio-keyboard-response","196","351894","0.0-5.0-1.0-0.5","2","1","jz6uvnjflqeuyme","","null","","sounds/sentences/right/14_09_cfSWS.wav","","null","","","","","","","","","","","","","","","","","","","","","","","","","","","","","","","","","","","","","","","","","",""
"sentence-resp","197","357410","0.0-5.0-1.0-1.5","2","1","jz6uvnjflqeuyme","","5513","","","","","","","SWS-SENT-RESPONSE","","","{""Q0"":""we love the sweet adventures""}","We frown when events take a bad turn.","frown,events,take,bad,turn","WE LOVE THE SWEET ADVENTURES","0","0","0","0","0","0","0","","","","","","","","","","","","","","","","","","","","","","","","","",""
"html-keyboard-response","198","358668","0.0-5.0-1.0-2.5","2","1","jz6uvnjflqeuyme","","null","","","","null","","","","","","","","","","","","","","","","","","","","","","","","","","","","","","","","","","","","","","","","","",""
"audio-keyboard-response","199","360897","0.0-5.0-1.0-3.5","2","1","jz6uvnjflqeuyme","","null","","sounds/sentences/right/14_09_cfSWS.wav","","null","","","","","","","","","","","","","","","","","","","","","","","","","","","","","","","","","","","","","","","","","",""
"html-keyboard-response","200","361900","0.0-5.0-1.0-4.5","2","1","jz6uvnjflqeuyme","","null","","","","null","","","","","","","","","","","","","","","","","","","","","","","","","","","","","","","","","","","","","","","","","",""
"html-button-response","201","363103","0.0-5.0-1.0-5.5","2","1","jz6uvnjflqeuyme","","696.7999999523163","","<p>Press the button below when you are ready to continue.</p>","0","","","","","","","","","","","","","","","","","","","","","","","","","","","","","","","","","","","","","","","","","","",""
"audio-keyboard-response","202","365659","0.0-5.0-1.0-0.6","2","1","jz6uvnjflqeuyme","","null","","sounds/sentences/left/14_04_cfSWS.wav","","null","","","","","","","","","","","","","","","","","","","","","","","","","","","","","","","","","","","","","","","","","",""
"sentence-resp","203","373998","0.0-5.0-1.0-1.6","2","1","jz6uvnjflqeuyme","","8336","","","","","","","SWS-SENT-RESPONSE","","","{""Q0"":""two plus seventy is less than ten\n""}","Two plus seven is less than ten.","two,plus,seven,less,ten","TWO PLUS SEVENTY IS LESS THAN TEN ","1","1","0","1","1","4","0.8","","","","","","","","","","","","","","","","","","","","","","","","","",""
"html-keyboard-response","204","375254","0.0-5.0-1.0-2.6","2","1","jz6uvnjflqeuyme","","null","","","","null","","","","","","","","","","","","","","","","","","","","","","","","","","","","","","","","","","","","","","","","","",""
"audio-keyboard-response","205","377307","0.0-5.0-1.0-3.6","2","1","jz6uvnjflqeuyme","","null","","sounds/sentences/left/14_04_cfSWS.wav","","null","","","","","","","","","","","","","","","","","","","","","","","","","","","","","","","","","","","","","","","","","",""
"html-keyboard-response","206","378310","0.0-5.0-1.0-4.6","2","1","jz6uvnjflqeuyme","","null","","","","null","","","","","","","","","","","","","","","","","","","","","","","","","","","","","","","","","","","","","","","","","",""
"html-button-response","207","391844","0.0-5.0-1.0-5.6","2","1","jz6uvnjflqeuyme","","13027.5","","<p>Press the button below when you are ready to continue.</p>","0","","","","","","","","","","","","","","","","","","","","","","","","","","","","","","","","","","","","","","","","","","",""
"audio-keyboard-response","208","394965","0.0-5.0-1.0-0.7","2","1","jz6uvnjflqeuyme","","null","","sounds/sentences/left/14_01_cfSWS.wav","","null","","","","","","","","","","","","","","","","","","","","","","","","","","","","","","","","","","","","","","","","","",""
"sentence-resp","209","402309","0.0-5.0-1.0-1.7","2","1","jz6uvnjflqeuyme","","7340","","","","","","","SWS-SENT-RESPONSE","","","{""Q0"":""the crown is so small it goes for a swim""}","A cramp is no small danger on a swim.","cramp,no,small,danger,swim","THE CROWN IS SO SMALL IT GOES FOR A SWIM","0","0","1","0","1","2","0.4","","","","","","","","","","","","","","","","","","","","","","","","","",""
"html-keyboard-response","210","403568","0.0-5.0-1.0-2.7","2","1","jz6uvnjflqeuyme","","null","","","","null","","","","","","","","","","","","","","","","","","","","","","","","","","","","","","","","","","","","","","","","","",""
"audio-keyboard-response","211","406187","0.0-5.0-1.0-3.7","2","1","jz6uvnjflqeuyme","","null","","sounds/sentences/left/14_01_cfSWS.wav","","null","","","","","","","","","","","","","","","","","","","","","","","","","","","","","","","","","","","","","","","","","",""
"html-keyboard-response","212","407189","0.0-5.0-1.0-4.7","2","1","jz6uvnjflqeuyme","","null","","","","null","","","","","","","","","","","","","","","","","","","","","","","","","","","","","","","","","","","","","","","","","",""
"html-button-response","213","408518","0.0-5.0-1.0-5.7","2","1","jz6uvnjflqeuyme","","822.6000000238419","","<p>Press the button below when you are ready to continue.</p>","0","","","","","","","","","","","","","","","","","","","","","","","","","","","","","","","","","","","","","","","","","","",""
"audio-keyboard-response","214","411274","0.0-5.0-1.0-0.8","2","1","jz6uvnjflqeuyme","","null","","sounds/sentences/right/14_08_cfSWS.wav","","null","","","","","","","","","","","","","","","","","","","","","","","","","","","","","","","","","","","","","","","","","",""
"sentence-resp","215","419351","0.0-5.0-1.0-1.8","2","1","jz6uvnjflqeuyme","","8072","","","","","","","SWS-SENT-RESPONSE","","","{""Q0"":""the new knight is watching you swim""}","Clothes and lodging are free to new men.","clothes,lodging,free,new,men","THE NEW KNIGHT IS WATCHING YOU SWIM","0","0","0","1","0","1","0.2","","","","","","","","","","","","","","","","","","","","","","","","","",""
"html-keyboard-response","216","420607","0.0-5.0-1.0-2.8","2","1","jz6uvnjflqeuyme","","null","","","","null","","","","","","","","","","","","","","","","","","","","","","","","","","","","","","","","","","","","","","","","","",""
"audio-keyboard-response","217","422863","0.0-5.0-1.0-3.8","2","1","jz6uvnjflqeuyme","","null","","sounds/sentences/right/14_08_cfSWS.wav","","null","","","","","","","","","","","","","","","","","","","","","","","","","","","","","","","","","","","","","","","","","",""
"html-keyboard-response","218","423866","0.0-5.0-1.0-4.8","2","1","jz6uvnjflqeuyme","","null","","","","null","","","","","","","","","","","","","","","","","","","","","","","","","","","","","","","","","","","","","","","","","",""
"html-button-response","219","424813","0.0-5.0-1.0-5.8","2","1","jz6uvnjflqeuyme","","445","","<p>Press the button below when you are ready to continue.</p>","0","","","","","","","","","","","","","","","","","","","","","","","","","","","","","","","","","","","","","","","","","","",""
"audio-keyboard-response","220","427402","0.0-5.0-1.0-0.9","2","1","jz6uvnjflqeuyme","","null","","sounds/sentences/left/14_03_cfSWS.wav","","null","","","","","","","","","","","","","","","","","","","","","","","","","","","","","","","","","","","","","","","","","",""
"sentence-resp","221","432727","0.0-5.0-1.0-1.9","2","1","jz6uvnjflqeuyme","","5323","","","","","","","SWS-SENT-RESPONSE","","","{""Q0"":""concentrate but please don't leave""}","Pluck the bright rose without leaves.","pluck,bright,rose,without,leaves","CONCENTRATE BUT PLEASE DON'T LEAVE","0","0","0","0","0","0","0","","","","","","","","","","","","","","","","","","","","","","","","","",""
"html-keyboard-response","222","433987","0.0-5.0-1.0-2.9","2","1","jz6uvnjflqeuyme","","null","","","","null","","","","","","","","","","","","","","","","","","","","","","","","","","","","","","","","","","","","","","","","","",""
"audio-keyboard-response","223","436073","0.0-5.0-1.0-3.9","2","1","jz6uvnjflqeuyme","","null","","sounds/sentences/left/14_03_cfSWS.wav","","null","","","","","","","","","","","","","","","","","","","","","","","","","","","","","","","","","","","","","","","","","",""
"html-keyboard-response","224","437076","0.0-5.0-1.0-4.9","2","1","jz6uvnjflqeuyme","","null","","","","null","","","","","","","","","","","","","","","","","","","","","","","","","","","","","","","","","","","","","","","","","",""
"html-button-response","225","439299","0.0-5.0-1.0-5.9","2","1","jz6uvnjflqeuyme","","1720.0999999046326","","<p>Press the button below when you are ready to continue.</p>","0","","","","","","","","","","","","","","","","","","","","","","","","","","","","","","","","","","","","","","","","","","",""
"html-keyboard-response","226","486422","0.0-6.0-0.0","2","1","jz6uvnjflqeuyme","","46619.200000047684","","<p>In this part of the study, you will hear sounds similar to those you just heard.</p><p>Please focus on these sounds, as you may be asked questions about them later.</p><p>Occasionally, the sounds will pause for up to two seconds. When this happens, please press SPACEBAR as quickly as you can.</br>This helps ensure that you are paying attention to the sounds.</p><p>This part of the study will take about 12 minutes to complete, and you will be given the opportunity to take a couple of short breaks every few minutes.</p><p><strong>Press SPACEBAR to begin</strong></p>","","32","","","","","","","","","","","","","","","","","","","","","","","","","","","","","","","","","","","","","","","","","",""
"html-keyboard-response","227","487428","0.0-6.0-1.0-0.0","2","1","jz6uvnjflqeuyme","","null","","<p style=""font-size: 40px;"">+</p>","","null","","","","","","","","","","","","","","","","","","","","","","","","","","","","","","","","","","","","","","","","","",""
"html-keyboard-response","228","672435","0.0-6.0-1.0-1.0","2","1","jz6uvnjflqeuyme","","null","","","","null","","","SL-TRAIN","","","","","","","","","","","","","","1","1556.3999999761581","null","sounds/B/TRAIN/SEQ__09.mp3","3","","","","","","","","","","","","","","","","","","","","",""
"html-button-response","229","675930","0.0-6.0-1.0-2.0","2","1","jz6uvnjflqeuyme","","3491.5","","<p>You may take a short break if you wish.</p>","0","","","","","","","","","","","","","","","","","","","","","","","","","","","","","","","","","","","","","","","","","","",""
"html-keyboard-response","230","676935","0.0-6.0-1.0-3.0","2","1","jz6uvnjflqeuyme","","null","","<p style=""font-size: 40px;"">+</p>","","null","","","","","","","","","","","","","","","","","","","","","","","","","","","","","","","","","","","","","","","","","",""
"html-keyboard-response","231","861941","0.0-6.0-1.0-4.0","2","1","jz6uvnjflqeuyme","","null","","","","null","","","SL-TRAIN","","","","","","","","","","","","","","2","null","null","sounds/B/TRAIN/SEQ__10.mp3","0","","","","","","","","","","","","","","","","","","","","",""
"html-button-response","232","865353","0.0-6.0-1.0-5.0","2","1","jz6uvnjflqeuyme","","3408.899999976158","","<p>You may take a short break if you wish.</p>","0","","","","","","","","","","","","","","","","","","","","","","","","","","","","","","","","","","","","","","","","","","",""
"html-keyboard-response","233","866356","0.0-6.0-1.0-6.0","2","1","jz6uvnjflqeuyme","","null","","<p style=""font-size: 40px;"">+</p>","","null","","","","","","","","","","","","","","","","","","","","","","","","","","","","","","","","","","","","","","","","","",""
"html-keyboard-response","234","1051362","0.0-6.0-1.0-7.0","2","1","jz6uvnjflqeuyme","","null","","","","null","","","SL-TRAIN","","","","","","","","","","","","","","2","null","null","sounds/B/TRAIN/SEQ__04.mp3","0","","","","","","","","","","","","","","","","","","","","",""
"html-button-response","235","1057463","0.0-6.0-1.0-8.0","2","1","jz6uvnjflqeuyme","","6099.5","","<p>You may take a short break if you wish.</p>","0","","","","","","","","","","","","","","","","","","","","","","","","","","","","","","","","","","","","","","","","","","",""
"html-keyboard-response","236","1058465","0.0-6.0-1.0-9.0","2","1","jz6uvnjflqeuyme","","null","","<p style=""font-size: 40px;"">+</p>","","null","","","","","","","","","","","","","","","","","","","","","","","","","","","","","","","","","","","","","","","","","",""
"html-keyboard-response","237","1243472","0.0-6.0-1.0-10.0","2","1","jz6uvnjflqeuyme","","null","","","","null","","","SL-TRAIN","","","","","","","","","","","","","","2","null","null","sounds/B/TRAIN/SEQ__11.mp3","0","","","","","","","","","","","","","","","","","","","","",""
"html-button-response","238","1248736","0.0-6.0-1.0-11.0","2","1","jz6uvnjflqeuyme","","5262.5","","<p>You may take a short break if you wish.</p>","0","","","","","","","","","","","","","","","","","","","","","","","","","","","","","","","","","","","","","","","","","","",""
"html-button-response","239","1253010","0.0-7.0-0.0","2","1","jz6uvnjflqeuyme","","4271.700000047684","","<p>Welcome to the second part of the study. This is a <u>familiarity task</u>.</p><p>You will now hear short sounds and will be asked to rate how familiar they sound to you <b>based on what you heard in the previous part of the study</b>.</p><p>You will rate 12 sounds in total.</p>","0","","","","","","","","","","","","","","","","","","","","","","","","","","","","","","","","","","","","","","","","","","",""
"html-keyboard-response","240","1254014","0.0-7.0-1.0-0.0","2","1","jz6uvnjflqeuyme","","null","","","","null","","","","","","","","","","","","","","","","","","","","","","","","","","","","","","","","","","","","","","","","","",""
"audio-keyboard-response","241","1254982","0.0-7.0-1.0-1.0","2","1","jz6uvnjflqeuyme","","null","","sounds/B/FAM/N003.mp3","","null","","","","","","","","","","","","","","","","","","","","","","","","","","","","","","","","","","","","","","","","","",""
"html-keyboard-response","242","1258836","0.0-7.0-1.0-2.0","2","1","jz6uvnjflqeuyme","","3347.2000000476837","","<p>How familiar did this sound to you?</p><p>1&nbsp;&nbsp;&nbsp;&nbsp;&nbsp;&nbsp;&nbsp;&nbsp;&nbsp;&nbsp;&nbsp;&nbsp;&nbsp;&nbsp;&nbsp;&nbsp;&nbsp;&nbsp;&nbsp;2&nbsp;&nbsp;&nbsp;&nbsp;&nbsp;&nbsp;&nbsp;&nbsp;&nbsp;&nbsp;&nbsp;&nbsp;&nbsp;&nbsp;&nbsp;&nbsp;&nbsp;&nbsp;&nbsp;3&nbsp;&nbsp;&nbsp;&nbsp;&nbsp;&nbsp;&nbsp;&nbsp;&nbsp;&nbsp;&nbsp;&nbsp;&nbsp;&nbsp;&nbsp;&nbsp;&nbsp;&nbsp;&nbsp;4</p><p style=""font-size:14px"">Not at all familiar&nbsp;&nbsp;&nbsp;&nbsp;A little familiar&nbsp;&nbsp;&nbsp;Moderately familiar&nbsp;&nbsp;&nbsp;Extremely familiar</p><p>(press the corresponding number on your keyboard)</p>","","51","","","FAM-RESPONSE","","","","","","","","","","","","","","","","","","","sounds/B/FAM/N003.mp3","nonword","","","","","","","","","","","","","","","","","","",""
"html-keyboard-response","243","1260840","0.0-7.0-1.0-0.1","2","1","jz6uvnjflqeuyme","","null","","","","null","","","","","","","","","","","","","","","","","","","","","","","","","","","","","","","","","","","","","","","","","",""
"audio-keyboard-response","244","1261782","0.0-7.0-1.0-1.1","2","1","jz6uvnjflqeuyme","","null","","sounds/B/FAM/W002.mp3","","null","","","","","","","","","","","","","","","","","","","","","","","","","","","","","","","","","","","","","","","","","",""
"html-keyboard-response","245","1263085","0.0-7.0-1.0-2.1","2","1","jz6uvnjflqeuyme","","795.7000000476837","","<p>How familiar did this sound to you?</p><p>1&nbsp;&nbsp;&nbsp;&nbsp;&nbsp;&nbsp;&nbsp;&nbsp;&nbsp;&nbsp;&nbsp;&nbsp;&nbsp;&nbsp;&nbsp;&nbsp;&nbsp;&nbsp;&nbsp;2&nbsp;&nbsp;&nbsp;&nbsp;&nbsp;&nbsp;&nbsp;&nbsp;&nbsp;&nbsp;&nbsp;&nbsp;&nbsp;&nbsp;&nbsp;&nbsp;&nbsp;&nbsp;&nbsp;3&nbsp;&nbsp;&nbsp;&nbsp;&nbsp;&nbsp;&nbsp;&nbsp;&nbsp;&nbsp;&nbsp;&nbsp;&nbsp;&nbsp;&nbsp;&nbsp;&nbsp;&nbsp;&nbsp;4</p><p style=""font-size:14px"">Not at all familiar&nbsp;&nbsp;&nbsp;&nbsp;A little familiar&nbsp;&nbsp;&nbsp;Moderately familiar&nbsp;&nbsp;&nbsp;Extremely familiar</p><p>(press the corresponding number on your keyboard)</p>","","52","","","FAM-RESPONSE","","","","","","","","","","","","","","","","","","","sounds/B/FAM/W002.mp3","word","","","","","","","","","","","","","","","","","","",""
"html-keyboard-response","246","1265093","0.0-7.0-1.0-0.2","2","1","jz6uvnjflqeuyme","","null","","","","null","","","","","","","","","","","","","","","","","","","","","","","","","","","","","","","","","","","","","","","","","",""
"audio-keyboard-response","247","1266038","0.0-7.0-1.0-1.2","2","1","jz6uvnjflqeuyme","","null","","sounds/B/FAM/W004.mp3","","null","","","","","","","","","","","","","","","","","","","","","","","","","","","","","","","","","","","","","","","","","",""
"html-keyboard-response","248","1267330","0.0-7.0-1.0-2.2","2","1","jz6uvnjflqeuyme","","785.8999999761581","","<p>How familiar did this sound to you?</p><p>1&nbsp;&nbsp;&nbsp;&nbsp;&nbsp;&nbsp;&nbsp;&nbsp;&nbsp;&nbsp;&nbsp;&nbsp;&nbsp;&nbsp;&nbsp;&nbsp;&nbsp;&nbsp;&nbsp;2&nbsp;&nbsp;&nbsp;&nbsp;&nbsp;&nbsp;&nbsp;&nbsp;&nbsp;&nbsp;&nbsp;&nbsp;&nbsp;&nbsp;&nbsp;&nbsp;&nbsp;&nbsp;&nbsp;3&nbsp;&nbsp;&nbsp;&nbsp;&nbsp;&nbsp;&nbsp;&nbsp;&nbsp;&nbsp;&nbsp;&nbsp;&nbsp;&nbsp;&nbsp;&nbsp;&nbsp;&nbsp;&nbsp;4</p><p style=""font-size:14px"">Not at all familiar&nbsp;&nbsp;&nbsp;&nbsp;A little familiar&nbsp;&nbsp;&nbsp;Moderately familiar&nbsp;&nbsp;&nbsp;Extremely familiar</p><p>(press the corresponding number on your keyboard)</p>","","52","","","FAM-RESPONSE","","","","","","","","","","","","","","","","","","","sounds/B/FAM/W004.mp3","word","","","","","","","","","","","","","","","","","","",""
"html-keyboard-response","249","1269340","0.0-7.0-1.0-0.3","2","1","jz6uvnjflqeuyme","","null","","","","null","","","","","","","","","","","","","","","","","","","","","","","","","","","","","","","","","","","","","","","","","",""
"audio-keyboard-response","250","1270283","0.0-7.0-1.0-1.3","2","1","jz6uvnjflqeuyme","","null","","sounds/B/FAM/N002.mp3","","null","","","","","","","","","","","","","","","","","","","","","","","","","","","","","","","","","","","","","","","","","",""
"html-keyboard-response","251","1271891","0.0-7.0-1.0-2.3","2","1","jz6uvnjflqeuyme","","1101.5","","<p>How familiar did this sound to you?</p><p>1&nbsp;&nbsp;&nbsp;&nbsp;&nbsp;&nbsp;&nbsp;&nbsp;&nbsp;&nbsp;&nbsp;&nbsp;&nbsp;&nbsp;&nbsp;&nbsp;&nbsp;&nbsp;&nbsp;2&nbsp;&nbsp;&nbsp;&nbsp;&nbsp;&nbsp;&nbsp;&nbsp;&nbsp;&nbsp;&nbsp;&nbsp;&nbsp;&nbsp;&nbsp;&nbsp;&nbsp;&nbsp;&nbsp;3&nbsp;&nbsp;&nbsp;&nbsp;&nbsp;&nbsp;&nbsp;&nbsp;&nbsp;&nbsp;&nbsp;&nbsp;&nbsp;&nbsp;&nbsp;&nbsp;&nbsp;&nbsp;&nbsp;4</p><p style=""font-size:14px"">Not at all familiar&nbsp;&nbsp;&nbsp;&nbsp;A little familiar&nbsp;&nbsp;&nbsp;Moderately familiar&nbsp;&nbsp;&nbsp;Extremely familiar</p><p>(press the corresponding number on your keyboard)</p>","","50","","","FAM-RESPONSE","","","","","","","","","","","","","","","","","","","sounds/B/FAM/N002.mp3","nonword","","","","","","","","","","","","","","","","","","",""
"html-keyboard-response","252","1273896","0.0-7.0-1.0-0.4","2","1","jz6uvnjflqeuyme","","null","","","","null","","","","","","","","","","","","","","","","","","","","","","","","","","","","","","","","","","","","","","","","","",""
"audio-keyboard-response","253","1274838","0.0-7.0-1.0-1.4","2","1","jz6uvnjflqeuyme","","null","","sounds/B/FAM/P001.mp3","","null","","","","","","","","","","","","","","","","","","","","","","","","","","","","","","","","","","","","","","","","","",""
"html-keyboard-response","254","1276274","0.0-7.0-1.0-2.4","2","1","jz6uvnjflqeuyme","","930.6000000238419","","<p>How familiar did this sound to you?</p><p>1&nbsp;&nbsp;&nbsp;&nbsp;&nbsp;&nbsp;&nbsp;&nbsp;&nbsp;&nbsp;&nbsp;&nbsp;&nbsp;&nbsp;&nbsp;&nbsp;&nbsp;&nbsp;&nbsp;2&nbsp;&nbsp;&nbsp;&nbsp;&nbsp;&nbsp;&nbsp;&nbsp;&nbsp;&nbsp;&nbsp;&nbsp;&nbsp;&nbsp;&nbsp;&nbsp;&nbsp;&nbsp;&nbsp;3&nbsp;&nbsp;&nbsp;&nbsp;&nbsp;&nbsp;&nbsp;&nbsp;&nbsp;&nbsp;&nbsp;&nbsp;&nbsp;&nbsp;&nbsp;&nbsp;&nbsp;&nbsp;&nbsp;4</p><p style=""font-size:14px"">Not at all familiar&nbsp;&nbsp;&nbsp;&nbsp;A little familiar&nbsp;&nbsp;&nbsp;Moderately familiar&nbsp;&nbsp;&nbsp;Extremely familiar</p><p>(press the corresponding number on your keyboard)</p>","","51","","","FAM-RESPONSE","","","","","","","","","","","","","","","","","","","sounds/B/FAM/P001.mp3","partword","","","","","","","","","","","","","","","","","","",""
"html-keyboard-response","255","1278280","0.0-7.0-1.0-0.5","2","1","jz6uvnjflqeuyme","","null","","","","null","","","","","","","","","","","","","","","","","","","","","","","","","","","","","","","","","","","","","","","","","",""
"audio-keyboard-response","256","1279222","0.0-7.0-1.0-1.5","2","1","jz6uvnjflqeuyme","","null","","sounds/B/FAM/P002.mp3","","null","","","","","","","","","","","","","","","","","","","","","","","","","","","","","","","","","","","","","","","","","",""
"html-keyboard-response","257","1280268","0.0-7.0-1.0-2.5","2","1","jz6uvnjflqeuyme","","541.7999999523163","","<p>How familiar did this sound to you?</p><p>1&nbsp;&nbsp;&nbsp;&nbsp;&nbsp;&nbsp;&nbsp;&nbsp;&nbsp;&nbsp;&nbsp;&nbsp;&nbsp;&nbsp;&nbsp;&nbsp;&nbsp;&nbsp;&nbsp;2&nbsp;&nbsp;&nbsp;&nbsp;&nbsp;&nbsp;&nbsp;&nbsp;&nbsp;&nbsp;&nbsp;&nbsp;&nbsp;&nbsp;&nbsp;&nbsp;&nbsp;&nbsp;&nbsp;3&nbsp;&nbsp;&nbsp;&nbsp;&nbsp;&nbsp;&nbsp;&nbsp;&nbsp;&nbsp;&nbsp;&nbsp;&nbsp;&nbsp;&nbsp;&nbsp;&nbsp;&nbsp;&nbsp;4</p><p style=""font-size:14px"">Not at all familiar&nbsp;&nbsp;&nbsp;&nbsp;A little familiar&nbsp;&nbsp;&nbsp;Moderately familiar&nbsp;&nbsp;&nbsp;Extremely familiar</p><p>(press the corresponding number on your keyboard)</p>","","52","","","FAM-RESPONSE","","","","","","","","","","","","","","","","","","","sounds/B/FAM/P002.mp3","partword","","","","","","","","","","","","","","","","","","",""
"html-keyboard-response","258","1282276","0.0-7.0-1.0-0.6","2","1","jz6uvnjflqeuyme","","null","","","","null","","","","","","","","","","","","","","","","","","","","","","","","","","","","","","","","","","","","","","","","","",""
"audio-keyboard-response","259","1283222","0.0-7.0-1.0-1.6","2","1","jz6uvnjflqeuyme","","null","","sounds/B/FAM/N004.mp3","","null","","","","","","","","","","","","","","","","","","","","","","","","","","","","","","","","","","","","","","","","","",""
"html-keyboard-response","260","1284327","0.0-7.0-1.0-2.6","2","1","jz6uvnjflqeuyme","","599.6000000238419","","<p>How familiar did this sound to you?</p><p>1&nbsp;&nbsp;&nbsp;&nbsp;&nbsp;&nbsp;&nbsp;&nbsp;&nbsp;&nbsp;&nbsp;&nbsp;&nbsp;&nbsp;&nbsp;&nbsp;&nbsp;&nbsp;&nbsp;2&nbsp;&nbsp;&nbsp;&nbsp;&nbsp;&nbsp;&nbsp;&nbsp;&nbsp;&nbsp;&nbsp;&nbsp;&nbsp;&nbsp;&nbsp;&nbsp;&nbsp;&nbsp;&nbsp;3&nbsp;&nbsp;&nbsp;&nbsp;&nbsp;&nbsp;&nbsp;&nbsp;&nbsp;&nbsp;&nbsp;&nbsp;&nbsp;&nbsp;&nbsp;&nbsp;&nbsp;&nbsp;&nbsp;4</p><p style=""font-size:14px"">Not at all familiar&nbsp;&nbsp;&nbsp;&nbsp;A little familiar&nbsp;&nbsp;&nbsp;Moderately familiar&nbsp;&nbsp;&nbsp;Extremely familiar</p><p>(press the corresponding number on your keyboard)</p>","","52","","","FAM-RESPONSE","","","","","","","","","","","","","","","","","","","sounds/B/FAM/N004.mp3","nonword","","","","","","","","","","","","","","","","","","",""
"html-keyboard-response","261","1286335","0.0-7.0-1.0-0.7","2","1","jz6uvnjflqeuyme","","null","","","","null","","","","","","","","","","","","","","","","","","","","","","","","","","","","","","","","","","","","","","","","","",""
"audio-keyboard-response","262","1287281","0.0-7.0-1.0-1.7","2","1","jz6uvnjflqeuyme","","null","","sounds/B/FAM/W001.mp3","","null","","","","","","","","","","","","","","","","","","","","","","","","","","","","","","","","","","","","","","","","","",""
"html-keyboard-response","263","1288278","0.0-7.0-1.0-2.7","2","1","jz6uvnjflqeuyme","","492.10000002384186","","<p>How familiar did this sound to you?</p><p>1&nbsp;&nbsp;&nbsp;&nbsp;&nbsp;&nbsp;&nbsp;&nbsp;&nbsp;&nbsp;&nbsp;&nbsp;&nbsp;&nbsp;&nbsp;&nbsp;&nbsp;&nbsp;&nbsp;2&nbsp;&nbsp;&nbsp;&nbsp;&nbsp;&nbsp;&nbsp;&nbsp;&nbsp;&nbsp;&nbsp;&nbsp;&nbsp;&nbsp;&nbsp;&nbsp;&nbsp;&nbsp;&nbsp;3&nbsp;&nbsp;&nbsp;&nbsp;&nbsp;&nbsp;&nbsp;&nbsp;&nbsp;&nbsp;&nbsp;&nbsp;&nbsp;&nbsp;&nbsp;&nbsp;&nbsp;&nbsp;&nbsp;4</p><p style=""font-size:14px"">Not at all familiar&nbsp;&nbsp;&nbsp;&nbsp;A little familiar&nbsp;&nbsp;&nbsp;Moderately familiar&nbsp;&nbsp;&nbsp;Extremely familiar</p><p>(press the corresponding number on your keyboard)</p>","","49","","","FAM-RESPONSE","","","","","","","","","","","","","","","","","","","sounds/B/FAM/W001.mp3","word","","","","","","","","","","","","","","","","","","",""
"html-keyboard-response","264","1290287","0.0-7.0-1.0-0.8","2","1","jz6uvnjflqeuyme","","null","","","","null","","","","","","","","","","","","","","","","","","","","","","","","","","","","","","","","","","","","","","","","","",""
"audio-keyboard-response","265","1291232","0.0-7.0-1.0-1.8","2","1","jz6uvnjflqeuyme","","null","","sounds/B/FAM/W003.mp3","","null","","","","","","","","","","","","","","","","","","","","","","","","","","","","","","","","","","","","","","","","","",""
"html-keyboard-response","266","1292280","0.0-7.0-1.0-2.8","2","1","jz6uvnjflqeuyme","","543.5999999046326","","<p>How familiar did this sound to you?</p><p>1&nbsp;&nbsp;&nbsp;&nbsp;&nbsp;&nbsp;&nbsp;&nbsp;&nbsp;&nbsp;&nbsp;&nbsp;&nbsp;&nbsp;&nbsp;&nbsp;&nbsp;&nbsp;&nbsp;2&nbsp;&nbsp;&nbsp;&nbsp;&nbsp;&nbsp;&nbsp;&nbsp;&nbsp;&nbsp;&nbsp;&nbsp;&nbsp;&nbsp;&nbsp;&nbsp;&nbsp;&nbsp;&nbsp;3&nbsp;&nbsp;&nbsp;&nbsp;&nbsp;&nbsp;&nbsp;&nbsp;&nbsp;&nbsp;&nbsp;&nbsp;&nbsp;&nbsp;&nbsp;&nbsp;&nbsp;&nbsp;&nbsp;4</p><p style=""font-size:14px"">Not at all familiar&nbsp;&nbsp;&nbsp;&nbsp;A little familiar&nbsp;&nbsp;&nbsp;Moderately familiar&nbsp;&nbsp;&nbsp;Extremely familiar</p><p>(press the corresponding number on your keyboard)</p>","","50","","","FAM-RESPONSE","","","","","","","","","","","","","","","","","","","sounds/B/FAM/W003.mp3","word","","","","","","","","","","","","","","","","","","",""
"html-keyboard-response","267","1294290","0.0-7.0-1.0-0.9","2","1","jz6uvnjflqeuyme","","null","","","","null","","","","","","","","","","","","","","","","","","","","","","","","","","","","","","","","","","","","","","","","","",""
"audio-keyboard-response","268","1295233","0.0-7.0-1.0-1.9","2","1","jz6uvnjflqeuyme","","null","","sounds/B/FAM/N001.mp3","","null","","","","","","","","","","","","","","","","","","","","","","","","","","","","","","","","","","","","","","","","","",""
"html-keyboard-response","269","1296247","0.0-7.0-1.0-2.9","2","1","jz6uvnjflqeuyme","","510","","<p>How familiar did this sound to you?</p><p>1&nbsp;&nbsp;&nbsp;&nbsp;&nbsp;&nbsp;&nbsp;&nbsp;&nbsp;&nbsp;&nbsp;&nbsp;&nbsp;&nbsp;&nbsp;&nbsp;&nbsp;&nbsp;&nbsp;2&nbsp;&nbsp;&nbsp;&nbsp;&nbsp;&nbsp;&nbsp;&nbsp;&nbsp;&nbsp;&nbsp;&nbsp;&nbsp;&nbsp;&nbsp;&nbsp;&nbsp;&nbsp;&nbsp;3&nbsp;&nbsp;&nbsp;&nbsp;&nbsp;&nbsp;&nbsp;&nbsp;&nbsp;&nbsp;&nbsp;&nbsp;&nbsp;&nbsp;&nbsp;&nbsp;&nbsp;&nbsp;&nbsp;4</p><p style=""font-size:14px"">Not at all familiar&nbsp;&nbsp;&nbsp;&nbsp;A little familiar&nbsp;&nbsp;&nbsp;Moderately familiar&nbsp;&nbsp;&nbsp;Extremely familiar</p><p>(press the corresponding number on your keyboard)</p>","","50","","","FAM-RESPONSE","","","","","","","","","","","","","","","","","","","sounds/B/FAM/N001.mp3","nonword","","","","","","","","","","","","","","","","","","",""
"html-keyboard-response","270","1298255","0.0-7.0-1.0-0.10","2","1","jz6uvnjflqeuyme","","null","","","","null","","","","","","","","","","","","","","","","","","","","","","","","","","","","","","","","","","","","","","","","","",""
"audio-keyboard-response","271","1299200","0.0-7.0-1.0-1.10","2","1","jz6uvnjflqeuyme","","null","","sounds/B/FAM/P004.mp3","","null","","","","","","","","","","","","","","","","","","","","","","","","","","","","","","","","","","","","","","","","","",""
"html-keyboard-response","272","1300297","0.0-7.0-1.0-2.10","2","1","jz6uvnjflqeuyme","","592","","<p>How familiar did this sound to you?</p><p>1&nbsp;&nbsp;&nbsp;&nbsp;&nbsp;&nbsp;&nbsp;&nbsp;&nbsp;&nbsp;&nbsp;&nbsp;&nbsp;&nbsp;&nbsp;&nbsp;&nbsp;&nbsp;&nbsp;2&nbsp;&nbsp;&nbsp;&nbsp;&nbsp;&nbsp;&nbsp;&nbsp;&nbsp;&nbsp;&nbsp;&nbsp;&nbsp;&nbsp;&nbsp;&nbsp;&nbsp;&nbsp;&nbsp;3&nbsp;&nbsp;&nbsp;&nbsp;&nbsp;&nbsp;&nbsp;&nbsp;&nbsp;&nbsp;&nbsp;&nbsp;&nbsp;&nbsp;&nbsp;&nbsp;&nbsp;&nbsp;&nbsp;4</p><p style=""font-size:14px"">Not at all familiar&nbsp;&nbsp;&nbsp;&nbsp;A little familiar&nbsp;&nbsp;&nbsp;Moderately familiar&nbsp;&nbsp;&nbsp;Extremely familiar</p><p>(press the corresponding number on your keyboard)</p>","","51","","","FAM-RESPONSE","","","","","","","","","","","","","","","","","","","sounds/B/FAM/P004.mp3","partword","","","","","","","","","","","","","","","","","","",""
"html-keyboard-response","273","1302306","0.0-7.0-1.0-0.11","2","1","jz6uvnjflqeuyme","","null","","","","null","","","","","","","","","","","","","","","","","","","","","","","","","","","","","","","","","","","","","","","","","",""
"audio-keyboard-response","274","1303248","0.0-7.0-1.0-1.11","2","1","jz6uvnjflqeuyme","","null","","sounds/B/FAM/P003.mp3","","null","","","","","","","","","","","","","","","","","","","","","","","","","","","","","","","","","","","","","","","","","",""
"html-keyboard-response","275","1304338","0.0-7.0-1.0-2.11","2","1","jz6uvnjflqeuyme","","585.4000000953674","","<p>How familiar did this sound to you?</p><p>1&nbsp;&nbsp;&nbsp;&nbsp;&nbsp;&nbsp;&nbsp;&nbsp;&nbsp;&nbsp;&nbsp;&nbsp;&nbsp;&nbsp;&nbsp;&nbsp;&nbsp;&nbsp;&nbsp;2&nbsp;&nbsp;&nbsp;&nbsp;&nbsp;&nbsp;&nbsp;&nbsp;&nbsp;&nbsp;&nbsp;&nbsp;&nbsp;&nbsp;&nbsp;&nbsp;&nbsp;&nbsp;&nbsp;3&nbsp;&nbsp;&nbsp;&nbsp;&nbsp;&nbsp;&nbsp;&nbsp;&nbsp;&nbsp;&nbsp;&nbsp;&nbsp;&nbsp;&nbsp;&nbsp;&nbsp;&nbsp;&nbsp;4</p><p style=""font-size:14px"">Not at all familiar&nbsp;&nbsp;&nbsp;&nbsp;A little familiar&nbsp;&nbsp;&nbsp;Moderately familiar&nbsp;&nbsp;&nbsp;Extremely familiar</p><p>(press the corresponding number on your keyboard)</p>","","49","","","FAM-RESPONSE","","","","","","","","","","","","","","","","","","","sounds/B/FAM/P003.mp3","partword","","","","","","","","","","","","","","","","","","",""
"html-button-response","276","1315672","0.0-8.0-0.0","2","1","jz6uvnjflqeuyme","","10330.100000023842","","<p>You will now listen to longer sound sequences.</p><p>Each sound sequence will last about 16 seconds.</p><p>On each trial, you will be given a <u>TARGET SOUND</u>. Your task is to listen very carefully for this sound.</p><p>Every time you hear the <u>TARGET SOUND</u>, you will press the <b>SPACEBAR</b> as quickly and accurately as you can.</p>","0","","","","","","","","","","","","","","","","","","","","","","","","","","","","","","","","","","","","","","","","","","",""
"html-button-response","277","1334199","0.0-8.0-1.0","2","1","jz6uvnjflqeuyme","","18268.600000023842","","<p>It is very important that you make your responses as quickly and accurately as possible.</p><p>To help you make your responses, you will be able to listen to the <u>TARGET SOUND</u> at the beginning of each trial.</p><p>There will be 36 total trials.</p><p><b>Note: This is meant to be a difficult task. We simply want you to try your best.</p>","0","","","","","","","","","","","","","","","","","","","","","","","","","","","","","","","","","","","","","","","","","","",""
"html-button-response","278","1335493","0.0-8.0-2.0-0.0","2","1","jz6uvnjflqeuyme","","1034.6000000238419","","<p>Trial 1 of 36</p>","0","","","","","","","","","","","","","","","","","","","","","","","","","RU","sounds/syllables/ru_SWS.wav","2400,6000,7800,10500","3","","","","","","","","","","","","","","",""
"html-keyboard-response","279","1336967","0.0-8.0-2.0-1.0","2","1","jz6uvnjflqeuyme","","1470.8999999761581","","","","80","","","","","","","","","","","","","","","","","","","","","","","","RU","","2400,6000,7800,10500","3","","","","","","","","","","","","","","",""
"audio-keyboard-response","280","1337552","0.0-8.0-2.0-2.0-0.0","2","1","jz6uvnjflqeuyme","","null","","sounds/syllables/ru_SWS.wav","","null","","","","","","","","","","","","","","","","","","","","","","","","","","","","","","","","","","","","","","","","","",""
"html-keyboard-response","281","1339311","0.0-8.0-2.0-2.0-1.0","2","1","jz6uvnjflqeuyme","","1758.2000000476837","","<p>To replay the <u>TARGET SOUND</u>, press P.</p> When you are ready to begin, press SPACEBAR.","","80","","","","","","","","","","","","","","","","","","","","","","","","","","","","","","","","","","","","","","","","","",""
"audio-keyboard-response","282","1340117","0.0-8.0-2.0-2.1-0.1","2","1","jz6uvnjflqeuyme","","null","","sounds/syllables/ru_SWS.wav","","null","","","","","","","","","","","","","","","","","","","","","","","","","","","","","","","","","","","","","","","","","",""
"html-keyboard-response","283","1340572","0.0-8.0-2.0-2.1-1.1","2","1","jz6uvnjflqeuyme","","454.10000002384186","","<p>To replay the <u>TARGET SOUND</u>, press P.</p> When you are ready to begin, press SPACEBAR.","","32","","","","","","","","","","","","","","","","","","","","","","","","","","","","","","","","","","","","","","","","","",""
"audio-keyboard-response","284","1355520","0.0-8.0-2.0-3.0","2","1","jz6uvnjflqeuyme","","949","","sounds/B/TD/RU_06_TD.mp3","","32","","","TD_SUMMARY","","","","","","","","","","","","","","","","","","","","","RU","","2400,6000,7800,10500","3","2400","6000","7800","10500","null","480.2999999523163","728.3999999761581","604.6000000238419","951_4215.299999952316_6480.299999952316_7458_8528.399999976158_9791.5_11104.600000023842_12411.100000023842","2","","","","",""
"html-button-response","285","1356542","0.0-8.0-2.0-0.1","2","1","jz6uvnjflqeuyme","","1017.1999999284744","","<p>Trial 2 of 36</p>","0","","","","","","","","","","","","","","","","","","","","","","","","","FE","sounds/syllables/fe_SWS.wav","1500,4200,6900,8700","3","","","","","","","","","","","","","","",""
"html-keyboard-response","286","1357730","0.0-8.0-2.0-1.1","2","1","jz6uvnjflqeuyme","","1186.1000000238419","","","","80","","","","","","","","","","","","","","","","","","","","","","","","FE","","1500,4200,6900,8700","3","","","","","","","","","","","","","","",""
"audio-keyboard-response","287","1358032","0.0-8.0-2.0-2.2-0.2","2","1","jz6uvnjflqeuyme","","null","","sounds/syllables/fe_SWS.wav","","null","","","","","","","","","","","","","","","","","","","","","","","","","","","","","","","","","","","","","","","","","",""
"html-keyboard-response","288","1358744","0.0-8.0-2.0-2.2-1.2","2","1","jz6uvnjflqeuyme","","710.4000000953674","","<p>To replay the <u>TARGET SOUND</u>, press P.</p> When you are ready to begin, press SPACEBAR.","","80","","","","","","","","","","","","","","","","","","","","","","","","","","","","","","","","","","","","","","","","","",""
"audio-keyboard-response","289","1359546","0.0-8.0-2.0-2.3-0.3","2","1","jz6uvnjflqeuyme","","null","","sounds/syllables/fe_SWS.wav","","null","","","","","","","","","","","","","","","","","","","","","","","","","","","","","","","","","","","","","","","","","",""
"html-keyboard-response","290","1360125","0.0-8.0-2.0-2.3-1.3","2","1","jz6uvnjflqeuyme","","577.2000000476837","","<p>To replay the <u>TARGET SOUND</u>, press P.</p> When you are ready to begin, press SPACEBAR.","","32","","","","","","","","","","","","","","","","","","","","","","","","","","","","","","","","","","","","","","","","","",""
"audio-keyboard-response","291","1375077","0.0-8.0-2.0-3.1","2","1","jz6uvnjflqeuyme","","592","","sounds/B/TD/FE_03_TD.mp3","","32","","","TD_SUMMARY","","","","","","","","","","","","","","","","","","","","","FE","","1500,4200,6900,8700","3","1500","4200","6900","8700","885.3000000715256","null","null","905.9000000953674","________593.7000000476837_1322.7000000476837_2385.3000000715256_3443.7000000476837_4025.8000000715256_5634.5_6234.400000095367_6527_6836.200000047684_9122.300000071526_9379.600000023842_9605.900000095367_11318.300000071526_13325.700000047684","2","","","","",""
"html-button-response","292","1376097","0.0-8.0-2.0-0.2","2","1","jz6uvnjflqeuyme","","1014.2999999523163","","<p>Trial 3 of 36</p>","0","","","","","","","","","","","","","","","","","","","","","","","","","PU","sounds/syllables/pu_SWS.wav","900,2700,5400,9900","1","","","","","","","","","","","","","","",""
"html-keyboard-response","293","1377043","0.0-8.0-2.0-1.2","2","1","jz6uvnjflqeuyme","","944.2000000476837","","","","80","","","","","","","","","","","","","","","","","","","","","","","","PU","","900,2700,5400,9900","1","","","","","","","","","","","","","","",""
"audio-keyboard-response","294","1377344","0.0-8.0-2.0-2.4-0.4","2","1","jz6uvnjflqeuyme","","null","","sounds/syllables/pu_SWS.wav","","null","","","","","","","","","","","","","","","","","","","","","","","","","","","","","","","","","","","","","","","","","",""
"html-keyboard-response","295","1378248","0.0-8.0-2.0-2.4-1.4","2","1","jz6uvnjflqeuyme","","903.1000000238419","","<p>To replay the <u>TARGET SOUND</u>, press P.</p> When you are ready to begin, press SPACEBAR.","","32","","","","","","","","","","","","","","","","","","","","","","","","","","","","","","","","","","","","","","","","","",""
"audio-keyboard-response","296","1393200","0.0-8.0-2.0-3.2","2","1","jz6uvnjflqeuyme","","587","","sounds/B/TD/PU_02_TD.mp3","","32","","","TD_SUMMARY","","","","","","","","","","","","","","","","","","","","","PU","","900,2700,5400,9900","1","900","2700","5400","9900","809.5999999046326","null","215.39999997615814","null","______________________584.7999999523163_1709.5999999046326_2853.899999976158_4168_5615.399999976158_6947.199999928474_8110.099999904633","1","","","","",""
"html-button-response","297","1396291","0.0-8.0-2.0-0.3","2","1","jz6uvnjflqeuyme","","3086.7999999523163","","<p>Trial 4 of 36</p>","0","","","","","","","","","","","","","","","","","","","","","","","","","RE","sounds/syllables/re_SWS.wav","1500,3300,7800,13200","3","","","","","","","","","","","","","","",""
"html-keyboard-response","298","1397442","0.0-8.0-2.0-1.3","2","1","jz6uvnjflqeuyme","","1149.2999999523163","","","","80","","","","","","","","","","","","","","","","","","","","","","","","RE","","1500,3300,7800,13200","3","","","","","","","","","","","","","","",""
"audio-keyboard-response","299","1397743","0.0-8.0-2.0-2.5-0.5","2","1","jz6uvnjflqeuyme","","null","","sounds/syllables/re_SWS.wav","","null","","","","","","","","","","","","","","","","","","","","","","","","","","","","","","","","","","","","","","","","","",""
"html-keyboard-response","300","1401109","0.0-8.0-2.0-2.5-1.5","2","1","jz6uvnjflqeuyme","","3364.1999999284744","","<p>To replay the <u>TARGET SOUND</u>, press P.</p> When you are ready to begin, press SPACEBAR.","","32","","","","","","","","","","","","","","","","","","","","","","","","","","","","","","","","","","","","","","","","","",""
"audio-keyboard-response","301","1416064","0.0-8.0-2.0-3.3","2","1","jz6uvnjflqeuyme","","565","","sounds/B/TD/RE_08_TD.mp3","","32","","","TD_SUMMARY","","","","","","","","","","","","","","","","","","","","","RE","","1500,3300,7800,13200","3","1500","3300","7800","13200","null","null","441.2000000476837","null","_____________________________571.2000000476837_1408.7000000476837_2814.2000000476837_4629.400000095367_6454.5_8241.200000047684_9623.900000095367_11072","1","","","","",""
"html-button-response","302","1417069","0.0-8.0-2.0-0.4","2","1","jz6uvnjflqeuyme","","1000.8999999761581","","<p>Trial 5 of 36</p>","0","","","","","","","","","","","","","","","","","","","","","","","","","ME","sounds/syllables/me_SWS.wav","2100,4800,6600,9300","2","","","","","","","","","","","","","","",""
"html-keyboard-response","303","1418206","0.0-8.0-2.0-1.4","2","1","jz6uvnjflqeuyme","","1135.2000000476837","","","","80","","","","","","","","","","","","","","","","","","","","","","","","ME","","2100,4800,6600,9300","2","","","","","","","","","","","","","","",""
"audio-keyboard-response","304","1418511","0.0-8.0-2.0-2.6-0.6","2","1","jz6uvnjflqeuyme","","null","","sounds/syllables/me_SWS.wav","","null","","","","","","","","","","","","","","","","","","","","","","","","","","","","","","","","","","","","","","","","","",""
"html-keyboard-response","305","1419399","0.0-8.0-2.0-2.6-1.6","2","1","jz6uvnjflqeuyme","","886.7999999523163","","<p>To replay the <u>TARGET SOUND</u>, press P.</p> When you are ready to begin, press SPACEBAR.","","80","","","","","","","","","","","","","","","","","","","","","","","","","","","","","","","","","","","","","","","","","",""
"audio-keyboard-response","306","1420207","0.0-8.0-2.0-2.7-0.7","2","1","jz6uvnjflqeuyme","","null","","sounds/syllables/me_SWS.wav","","null","","","","","","","","","","","","","","","","","","","","","","","","","","","","","","","","","","","","","","","","","",""
"html-keyboard-response","307","1421070","0.0-8.0-2.0-2.7-1.7","2","1","jz6uvnjflqeuyme","","861.1000000238419","","<p>To replay the <u>TARGET SOUND</u>, press P.</p> When you are ready to begin, press SPACEBAR.","","32","","","","","","","","","","","","","","","","","","","","","","","","","","","","","","","","","","","","","","","","","",""
"audio-keyboard-response","308","1436021","0.0-8.0-2.0-3.4","2","1","jz6uvnjflqeuyme","","1760","","sounds/B/TD/ME_03_TD.mp3","","32","","","TD_SUMMARY","","","","","","","","","","","","","","","","","","","","","ME","","2100,4800,6600,9300","2","2100","4800","6600","9300","null","null","null","null","_____________________________________1759.9000000953674_4091.2000000476837_6435.100000023842_8319.100000023842_10697.5_13472.800000071526","2","","","","",""
"html-button-response","309","1437092","0.0-8.0-2.0-0.5","2","1","jz6uvnjflqeuyme","","1066.5","","<p>Trial 6 of 36</p>","0","","","","","","","","","","","","","","","","","","","","","","","","","TA","sounds/syllables/ta_SWS.wav","4200,6000,7800,13200","3","","","","","","","","","","","","","","",""
"html-keyboard-response","310","1440652","0.0-8.0-2.0-1.5","2","1","jz6uvnjflqeuyme","","3558.600000023842","","","","80","","","","","","","","","","","","","","","","","","","","","","","","TA","","4200,6000,7800,13200","3","","","","","","","","","","","","","","",""
"audio-keyboard-response","311","1440953","0.0-8.0-2.0-2.8-0.8","2","1","jz6uvnjflqeuyme","","null","","sounds/syllables/ta_SWS.wav","","null","","","","","","","","","","","","","","","","","","","","","","","","","","","","","","","","","","","","","","","","","",""
"html-keyboard-response","312","1441401","0.0-8.0-2.0-2.8-1.8","2","1","jz6uvnjflqeuyme","","446.40000009536743","","<p>To replay the <u>TARGET SOUND</u>, press P.</p> When you are ready to begin, press SPACEBAR.","","32","","","","","","","","","","","","","","","","","","","","","","","","","","","","","","","","","","","","","","","","","",""
