"trial_type","trial_index","time_elapsed","internal_node_id","counterbalance","lang_instruct","ParticipantID","view_history","rt","url","stimulus","button_pressed","key_press","correctRESP","correct","designation","location","correctanswer","responses","sentence","keywords","typed_resp","keyword1_acc","keyword2_acc","keyword3_acc","keyword4_acc","keyword5_acc","total_acc","prop_acc","timeouts","pause_rt01","pause_rt02","train_file","numKeyPress","sound","fam_type","SYLLABLE","EXEMPLAR","TD_LOCS","TD_TYPE","TDLOC_01","TDLOC_02","TDLOC_03","TDLOC_04","TD_RT_01","TD_RT_02","TD_RT_03","TD_RT_04","TD_SUBJ_RTs","number_of_plays","slider_start","response","question_order","syllable","syllable_type"
"pavlovia","0","1","0.0-0.0","2","1","oyymtbjummop09d","","","","","","","","","","","","","","","","","","","","","","","","","","","","","","","","","","","","","","","","","","","","","","","",""
"instructions","1","520867","0.0-1.0","2","1","oyymtbjummop09d","[{""page_index"":0,""viewing_time"":3776.5999999046326},{""page_index"":1,""viewing_time"":517129}]","520908.5","","","","","","","","","","","","","","","","","","","","","","","","","","","","","","","","","","","","","","","","","","","","","",""
"external-html","2","536872","0.0-2.0","2","1","oyymtbjummop09d","","15594.400000095367","consent/consent.html","","","","","","","","","","","","","","","","","","","","","","","","","","","","","","","","","","","","","","","","","","","","",""
"html-button-response","3","548600","0.0-3.0-0.0-0.0","2","1","oyymtbjummop09d","","11724.700000286102","","<p>Welcome to the study. You will first complete a short volume calibration and headphone check.</p><p>Please make sure you are in a quiet listening environment, that you are wearing headphones, and that your computer's volume is turned on.<p></p>","0","","","","","","","","","","","","","","","","","","","","","","","","","","","","","","","","","","","","","","","","","","",""
"html-button-response","4","570845","0.0-3.0-0.0-1.0","2","1","oyymtbjummop09d","","21990.900000095367","","<p>The volume calibration will be first.</p><p>You will hear a thirty-second noise. Please adjust your computer's volume so that this noise is being presented at a comfortable level.<p></p>","0","","","","","","","","","","","","","","","","","","","","","","","","","","","","","","","","","","","","","","","","","","",""
"audio-button-response","5","579867","0.0-3.0-0.0-2.0","2","1","oyymtbjummop09d","","8475","","audCalib/volumetest.mp3","0","","","","","","","","","","","","","","","","","","","","","","","","","","","","","","","","","","","","","","","","","","",""
"html-button-response","6","589404","0.0-3.0-1.0-0.0","2","1","oyymtbjummop09d","","9534.700000286102","","<p>You will now complete a short headphone check.</p><p>On each trial, you will hear three tones. One of these tones will be quieter than the others. Your task is to identify whether the quiet tone occured first, second, or third.</p><p>There are six trials in total.<p></p>","0","","","","","","","","","","","","","","","","","","","","","","","","","","","","","","","","","","","","","","","","","","",""
"html-keyboard-response","7","590160","0.0-3.0-1.0-1.0-0.0","2","1","oyymtbjummop09d","","null","","<div style=""font-size:60px;"">+</div>","","null","","","","","","","","","","","","","","","","","","","","","","","","","","","","","","","","","","","","","","","","","",""
"audio-button-response","8","596370","0.0-3.0-1.0-1.0-1.0","2","1","oyymtbjummop09d","","6203","","audCalib/t3_1.mp3","2","","2","1","headphone-test","","","","","","","","","","","","","","","","","","","","","","","","","","","","","","","","","","","","","","",""
"html-keyboard-response","9","597127","0.0-3.0-1.0-1.0-0.1","2","1","oyymtbjummop09d","","null","","<div style=""font-size:60px;"">+</div>","","null","","","","","","","","","","","","","","","","","","","","","","","","","","","","","","","","","","","","","","","","","",""
"audio-button-response","10","617516","0.0-3.0-1.0-1.0-1.1","2","1","oyymtbjummop09d","","20389","","audCalib/t3_2.mp3","2","","2","1","headphone-test","","","","","","","","","","","","","","","","","","","","","","","","","","","","","","","","","","","","","","",""
"html-keyboard-response","11","618276","0.0-3.0-1.0-1.0-0.2","2","1","oyymtbjummop09d","","null","","<div style=""font-size:60px;"">+</div>","","null","","","","","","","","","","","","","","","","","","","","","","","","","","","","","","","","","","","","","","","","","",""
"audio-button-response","12","623614","0.0-3.0-1.0-1.0-1.2","2","1","oyymtbjummop09d","","5333","","audCalib/t2_2.mp3","1","","1","1","headphone-test","","","","","","","","","","","","","","","","","","","","","","","","","","","","","","","","","","","","","","",""
"html-keyboard-response","13","624370","0.0-3.0-1.0-1.0-0.3","2","1","oyymtbjummop09d","","null","","<div style=""font-size:60px;"">+</div>","","null","","","","","","","","","","","","","","","","","","","","","","","","","","","","","","","","","","","","","","","","","",""
"audio-button-response","14","629488","0.0-3.0-1.0-1.0-1.3","2","1","oyymtbjummop09d","","5115","","audCalib/t1_1.mp3","0","","0","1","headphone-test","","","","","","","","","","","","","","","","","","","","","","","","","","","","","","","","","","","","","","",""
"html-keyboard-response","15","630242","0.0-3.0-1.0-1.0-0.4","2","1","oyymtbjummop09d","","null","","<div style=""font-size:60px;"">+</div>","","null","","","","","","","","","","","","","","","","","","","","","","","","","","","","","","","","","","","","","","","","","",""
"audio-button-response","16","635825","0.0-3.0-1.0-1.0-1.4","2","1","oyymtbjummop09d","","5579","","audCalib/t1_2.mp3","0","","0","1","headphone-test","","","","","","","","","","","","","","","","","","","","","","","","","","","","","","","","","","","","","","",""
"html-keyboard-response","17","636581","0.0-3.0-1.0-1.0-0.5","2","1","oyymtbjummop09d","","null","","<div style=""font-size:60px;"">+</div>","","null","","","","","","","","","","","","","","","","","","","","","","","","","","","","","","","","","","","","","","","","","",""
"audio-button-response","18","641637","0.0-3.0-1.0-1.0-1.5","2","1","oyymtbjummop09d","","5051","","audCalib/t2_1.mp3","1","","1","1","headphone-test","","","","","","","","","","","","","","","","","","","","","","","","","","","","","","","","","","","","","","",""
"html-button-response","19","689166","0.0-3.0-2.0","2","1","oyymtbjummop09d","","47278.2999997139","","<p>The volume calibration and headphone check are now complete.</p>","0","","","","","","","","","","","","","","","","","","","","","","","","","","","","","","","","","","","","","","","","","","",""
"instructions","20","706483","0.0-4.0-0.0","2","1","oyymtbjummop09d","[{""page_index"":0,""viewing_time"":1993.4000000953674},{""page_index"":1,""viewing_time"":13121.099999904633},{""page_index"":2,""viewing_time"":2201.300000190735}]","17316.300000190735","","","","","","","","","","","","","","","","","","","","","","","","","","","","","","","","","","","","","","","","","","","","","",""
"audio-keyboard-response","21","707268","0.0-4.0-1.0-0.0","2","1","oyymtbjummop09d","","null","","sounds/induction/left/pu_SWS.wav","","null","","","","","","","","","","","","","","","","","","","","","","","","","","","","","","","","","","","","","","","","","",""
"html-button-response","22","711014","0.0-4.0-1.0-1.0","2","1","oyymtbjummop09d","","3744.300000190735","","What sound did you hear?","0","","","1","INDUCTION-JUDGMENT","left","0","","","","","","","","","","","","","","","","","","","","","","","","","","","","","","","","","","","","",""
"html-keyboard-response","23","712016","0.0-4.0-1.0-2.0","2","1","oyymtbjummop09d","","null","","<p style=""color:green;""><b>Correct!</b></p>","","null","","","","","","","","","","","","","","","","","","","","","","","","","","","","","","","","","","","","","","","","","",""
"audio-keyboard-response","24","712820","0.0-4.0-1.0-0.1","2","1","oyymtbjummop09d","","null","","sounds/induction/right/ko_SWS.wav","","null","","","","","","","","","","","","","","","","","","","","","","","","","","","","","","","","","","","","","","","","","",""
"html-button-response","25","724890","0.0-4.0-1.0-1.1","2","1","oyymtbjummop09d","","12069","","What sound did you hear?","1","","","0","INDUCTION-JUDGMENT","right","0","","","","","","","","","","","","","","","","","","","","","","","","","","","","","","","","","","","","",""
"html-keyboard-response","26","725893","0.0-4.0-1.0-2.1","2","1","oyymtbjummop09d","","null","","<p style=""color:red;""><b>Incorrect!</b></p>","","null","","","","","","","","","","","","","","","","","","","","","","","","","","","","","","","","","","","","","","","","","",""
"audio-keyboard-response","27","726702","0.0-4.0-1.0-0.2","2","1","oyymtbjummop09d","","null","","sounds/induction/right/fe_SWS.wav","","null","","","","","","","","","","","","","","","","","","","","","","","","","","","","","","","","","","","","","","","","","",""
"html-button-response","28","734075","0.0-4.0-1.0-1.2","2","1","oyymtbjummop09d","","7371.300000190735","","What sound did you hear?","0","","","1","INDUCTION-JUDGMENT","right","0","","","","","","","","","","","","","","","","","","","","","","","","","","","","","","","","","","","","",""
"html-keyboard-response","29","735077","0.0-4.0-1.0-2.2","2","1","oyymtbjummop09d","","null","","<p style=""color:green;""><b>Correct!</b></p>","","null","","","","","","","","","","","","","","","","","","","","","","","","","","","","","","","","","","","","","","","","","",""
"audio-keyboard-response","30","735880","0.0-4.0-1.0-0.3","2","1","oyymtbjummop09d","","null","","sounds/induction/right/ge_SWS.wav","","null","","","","","","","","","","","","","","","","","","","","","","","","","","","","","","","","","","","","","","","","","",""
"html-button-response","31","752092","0.0-4.0-1.0-1.3","2","1","oyymtbjummop09d","","16210.900000095367","","What sound did you hear?","1","","","0","INDUCTION-JUDGMENT","right","0","","","","","","","","","","","","","","","","","","","","","","","","","","","","","","","","","","","","",""
"html-keyboard-response","32","753099","0.0-4.0-1.0-2.3","2","1","oyymtbjummop09d","","null","","<p style=""color:red;""><b>Incorrect!</b></p>","","null","","","","","","","","","","","","","","","","","","","","","","","","","","","","","","","","","","","","","","","","","",""
"audio-keyboard-response","33","753907","0.0-4.0-1.0-0.4","2","1","oyymtbjummop09d","","null","","sounds/induction/right/ru_SWS.wav","","null","","","","","","","","","","","","","","","","","","","","","","","","","","","","","","","","","","","","","","","","","",""
"html-button-response","34","757023","0.0-4.0-1.0-1.4","2","1","oyymtbjummop09d","","3114.800000190735","","What sound did you hear?","1","","","1","INDUCTION-JUDGMENT","right","1","","","","","","","","","","","","","","","","","","","","","","","","","","","","","","","","","","","","",""
"html-keyboard-response","35","758025","0.0-4.0-1.0-2.4","2","1","oyymtbjummop09d","","null","","<p style=""color:green;""><b>Correct!</b></p>","","null","","","","","","","","","","","","","","","","","","","","","","","","","","","","","","","","","","","","","","","","","",""
"audio-keyboard-response","36","758829","0.0-4.0-1.0-0.5","2","1","oyymtbjummop09d","","null","","sounds/induction/left/re_SWS.wav","","null","","","","","","","","","","","","","","","","","","","","","","","","","","","","","","","","","","","","","","","","","",""
"html-button-response","37","766607","0.0-4.0-1.0-1.5","2","1","oyymtbjummop09d","","7777","","What sound did you hear?","0","","","1","INDUCTION-JUDGMENT","left","0","","","","","","","","","","","","","","","","","","","","","","","","","","","","","","","","","","","","",""
"html-keyboard-response","38","767611","0.0-4.0-1.0-2.5","2","1","oyymtbjummop09d","","null","","<p style=""color:green;""><b>Correct!</b></p>","","null","","","","","","","","","","","","","","","","","","","","","","","","","","","","","","","","","","","","","","","","","",""
"audio-keyboard-response","39","768413","0.0-4.0-1.0-0.6","2","1","oyymtbjummop09d","","null","","sounds/induction/left/ko_SWS.wav","","null","","","","","","","","","","","","","","","","","","","","","","","","","","","","","","","","","","","","","","","","","",""
"html-button-response","40","775628","0.0-4.0-1.0-1.6","2","1","oyymtbjummop09d","","7213.400000095367","","What sound did you hear?","1","","","1","INDUCTION-JUDGMENT","left","1","","","","","","","","","","","","","","","","","","","","","","","","","","","","","","","","","","","","",""
"html-keyboard-response","41","776629","0.0-4.0-1.0-2.6","2","1","oyymtbjummop09d","","null","","<p style=""color:green;""><b>Correct!</b></p>","","null","","","","","","","","","","","","","","","","","","","","","","","","","","","","","","","","","","","","","","","","","",""
"audio-keyboard-response","42","777437","0.0-4.0-1.0-0.7","2","1","oyymtbjummop09d","","null","","sounds/induction/left/fu_SWS.wav","","null","","","","","","","","","","","","","","","","","","","","","","","","","","","","","","","","","","","","","","","","","",""
"html-button-response","43","783698","0.0-4.0-1.0-1.7","2","1","oyymtbjummop09d","","6259.200000286102","","What sound did you hear?","1","","","1","INDUCTION-JUDGMENT","left","1","","","","","","","","","","","","","","","","","","","","","","","","","","","","","","","","","","","","",""
"html-keyboard-response","44","784700","0.0-4.0-1.0-2.7","2","1","oyymtbjummop09d","","null","","<p style=""color:green;""><b>Correct!</b></p>","","null","","","","","","","","","","","","","","","","","","","","","","","","","","","","","","","","","","","","","","","","","",""
"audio-keyboard-response","45","785506","0.0-4.0-1.0-0.8","2","1","oyymtbjummop09d","","null","","sounds/induction/left/ni_SWS.wav","","null","","","","","","","","","","","","","","","","","","","","","","","","","","","","","","","","","","","","","","","","","",""
"html-button-response","46","813367","0.0-4.0-1.0-1.8","2","1","oyymtbjummop09d","","27859.800000190735","","What sound did you hear?","1","","","1","INDUCTION-JUDGMENT","left","1","","","","","","","","","","","","","","","","","","","","","","","","","","","","","","","","","","","","",""
"html-keyboard-response","47","814369","0.0-4.0-1.0-2.8","2","1","oyymtbjummop09d","","null","","<p style=""color:green;""><b>Correct!</b></p>","","null","","","","","","","","","","","","","","","","","","","","","","","","","","","","","","","","","","","","","","","","","",""
"audio-keyboard-response","48","815175","0.0-4.0-1.0-0.9","2","1","oyymtbjummop09d","","null","","sounds/induction/left/ko_SWS.wav","","null","","","","","","","","","","","","","","","","","","","","","","","","","","","","","","","","","","","","","","","","","",""
"html-button-response","49","818249","0.0-4.0-1.0-1.9","2","1","oyymtbjummop09d","","3073.2000002861023","","What sound did you hear?","1","","","1","INDUCTION-JUDGMENT","left","1","","","","","","","","","","","","","","","","","","","","","","","","","","","","","","","","","","","","",""
"html-keyboard-response","50","819251","0.0-4.0-1.0-2.9","2","1","oyymtbjummop09d","","null","","<p style=""color:green;""><b>Correct!</b></p>","","null","","","","","","","","","","","","","","","","","","","","","","","","","","","","","","","","","","","","","","","","","",""
"audio-keyboard-response","51","820060","0.0-4.0-1.0-0.10","2","1","oyymtbjummop09d","","null","","sounds/induction/left/me_SWS.wav","","null","","","","","","","","","","","","","","","","","","","","","","","","","","","","","","","","","","","","","","","","","",""
"html-button-response","52","823590","0.0-4.0-1.0-1.10","2","1","oyymtbjummop09d","","3528.7999997138977","","What sound did you hear?","0","","","0","INDUCTION-JUDGMENT","left","1","","","","","","","","","","","","","","","","","","","","","","","","","","","","","","","","","","","","",""
"html-keyboard-response","53","824591","0.0-4.0-1.0-2.10","2","1","oyymtbjummop09d","","null","","<p style=""color:red;""><b>Incorrect!</b></p>","","null","","","","","","","","","","","","","","","","","","","","","","","","","","","","","","","","","","","","","","","","","",""
"audio-keyboard-response","54","825393","0.0-4.0-1.0-0.11","2","1","oyymtbjummop09d","","null","","sounds/induction/left/pu_SWS.wav","","null","","","","","","","","","","","","","","","","","","","","","","","","","","","","","","","","","","","","","","","","","",""
"html-button-response","55","828543","0.0-4.0-1.0-1.11","2","1","oyymtbjummop09d","","3148.800000190735","","What sound did you hear?","0","","","1","INDUCTION-JUDGMENT","left","0","","","","","","","","","","","","","","","","","","","","","","","","","","","","","","","","","","","","",""
"html-keyboard-response","56","829545","0.0-4.0-1.0-2.11","2","1","oyymtbjummop09d","","null","","<p style=""color:green;""><b>Correct!</b></p>","","null","","","","","","","","","","","","","","","","","","","","","","","","","","","","","","","","","","","","","","","","","",""
"audio-keyboard-response","57","830348","0.0-4.0-1.0-0.12","2","1","oyymtbjummop09d","","null","","sounds/induction/left/su_SWS.wav","","null","","","","","","","","","","","","","","","","","","","","","","","","","","","","","","","","","","","","","","","","","",""
"html-button-response","58","838899","0.0-4.0-1.0-1.12","2","1","oyymtbjummop09d","","8550","","What sound did you hear?","1","","","0","INDUCTION-JUDGMENT","left","0","","","","","","","","","","","","","","","","","","","","","","","","","","","","","","","","","","","","",""
"html-keyboard-response","59","839904","0.0-4.0-1.0-2.12","2","1","oyymtbjummop09d","","null","","<p style=""color:red;""><b>Incorrect!</b></p>","","null","","","","","","","","","","","","","","","","","","","","","","","","","","","","","","","","","","","","","","","","","",""
"audio-keyboard-response","60","840710","0.0-4.0-1.0-0.13","2","1","oyymtbjummop09d","","null","","sounds/induction/right/fe_SWS.wav","","null","","","","","","","","","","","","","","","","","","","","","","","","","","","","","","","","","","","","","","","","","",""
"html-button-response","61","844016","0.0-4.0-1.0-1.13","2","1","oyymtbjummop09d","","3304.9000000953674","","What sound did you hear?","1","","","0","INDUCTION-JUDGMENT","right","0","","","","","","","","","","","","","","","","","","","","","","","","","","","","","","","","","","","","",""
"html-keyboard-response","62","845019","0.0-4.0-1.0-2.13","2","1","oyymtbjummop09d","","null","","<p style=""color:red;""><b>Incorrect!</b></p>","","null","","","","","","","","","","","","","","","","","","","","","","","","","","","","","","","","","","","","","","","","","",""
"audio-keyboard-response","63","845825","0.0-4.0-1.0-0.14","2","1","oyymtbjummop09d","","null","","sounds/induction/right/fu_SWS.wav","","null","","","","","","","","","","","","","","","","","","","","","","","","","","","","","","","","","","","","","","","","","",""
"html-button-response","64","848459","0.0-4.0-1.0-1.14","2","1","oyymtbjummop09d","","2633.5","","What sound did you hear?","0","","","1","INDUCTION-JUDGMENT","right","0","","","","","","","","","","","","","","","","","","","","","","","","","","","","","","","","","","","","",""
"html-keyboard-response","65","849464","0.0-4.0-1.0-2.14","2","1","oyymtbjummop09d","","null","","<p style=""color:green;""><b>Correct!</b></p>","","null","","","","","","","","","","","","","","","","","","","","","","","","","","","","","","","","","","","","","","","","","",""
"audio-keyboard-response","66","850267","0.0-4.0-1.0-0.15","2","1","oyymtbjummop09d","","null","","sounds/induction/right/ta_SWS.wav","","null","","","","","","","","","","","","","","","","","","","","","","","","","","","","","","","","","","","","","","","","","",""
"html-button-response","67","852320","0.0-4.0-1.0-1.15","2","1","oyymtbjummop09d","","2052.2000002861023","","What sound did you hear?","1","","","1","INDUCTION-JUDGMENT","right","1","","","","","","","","","","","","","","","","","","","","","","","","","","","","","","","","","","","","",""
"html-keyboard-response","68","853327","0.0-4.0-1.0-2.15","2","1","oyymtbjummop09d","","null","","<p style=""color:green;""><b>Correct!</b></p>","","null","","","","","","","","","","","","","","","","","","","","","","","","","","","","","","","","","","","","","","","","","",""
"audio-keyboard-response","69","854134","0.0-4.0-1.0-0.16","2","1","oyymtbjummop09d","","null","","sounds/induction/left/ti_SWS.wav","","null","","","","","","","","","","","","","","","","","","","","","","","","","","","","","","","","","","","","","","","","","",""
"html-button-response","70","858002","0.0-4.0-1.0-1.16","2","1","oyymtbjummop09d","","3866.9000000953674","","What sound did you hear?","0","","","1","INDUCTION-JUDGMENT","left","0","","","","","","","","","","","","","","","","","","","","","","","","","","","","","","","","","","","","",""
"html-keyboard-response","71","859008","0.0-4.0-1.0-2.16","2","1","oyymtbjummop09d","","null","","<p style=""color:green;""><b>Correct!</b></p>","","null","","","","","","","","","","","","","","","","","","","","","","","","","","","","","","","","","","","","","","","","","",""
"audio-keyboard-response","72","859813","0.0-4.0-1.0-0.17","2","1","oyymtbjummop09d","","null","","sounds/induction/left/ta_SWS.wav","","null","","","","","","","","","","","","","","","","","","","","","","","","","","","","","","","","","","","","","","","","","",""
"html-button-response","73","862721","0.0-4.0-1.0-1.17","2","1","oyymtbjummop09d","","2906.800000190735","","What sound did you hear?","1","","","0","INDUCTION-JUDGMENT","left","0","","","","","","","","","","","","","","","","","","","","","","","","","","","","","","","","","","","","",""
"html-keyboard-response","74","863723","0.0-4.0-1.0-2.17","2","1","oyymtbjummop09d","","null","","<p style=""color:red;""><b>Incorrect!</b></p>","","null","","","","","","","","","","","","","","","","","","","","","","","","","","","","","","","","","","","","","","","","","",""
"audio-keyboard-response","75","864528","0.0-4.0-1.0-0.18","2","1","oyymtbjummop09d","","null","","sounds/induction/right/su_SWS.wav","","null","","","","","","","","","","","","","","","","","","","","","","","","","","","","","","","","","","","","","","","","","",""
"html-button-response","76","867925","0.0-4.0-1.0-1.18","2","1","oyymtbjummop09d","","3396.199999809265","","What sound did you hear?","1","","","1","INDUCTION-JUDGMENT","right","1","","","","","","","","","","","","","","","","","","","","","","","","","","","","","","","","","","","","",""
"html-keyboard-response","77","868928","0.0-4.0-1.0-2.18","2","1","oyymtbjummop09d","","null","","<p style=""color:green;""><b>Correct!</b></p>","","null","","","","","","","","","","","","","","","","","","","","","","","","","","","","","","","","","","","","","","","","","",""
"audio-keyboard-response","78","869733","0.0-4.0-1.0-0.19","2","1","oyymtbjummop09d","","null","","sounds/induction/left/ge_SWS.wav","","null","","","","","","","","","","","","","","","","","","","","","","","","","","","","","","","","","","","","","","","","","",""
"html-button-response","79","871896","0.0-4.0-1.0-1.19","2","1","oyymtbjummop09d","","2162.4000000953674","","What sound did you hear?","0","","","0","INDUCTION-JUDGMENT","left","1","","","","","","","","","","","","","","","","","","","","","","","","","","","","","","","","","","","","",""
"html-keyboard-response","80","872899","0.0-4.0-1.0-2.19","2","1","oyymtbjummop09d","","null","","<p style=""color:red;""><b>Incorrect!</b></p>","","null","","","","","","","","","","","","","","","","","","","","","","","","","","","","","","","","","","","","","","","","","",""
"audio-keyboard-response","81","873707","0.0-4.0-1.0-0.20","2","1","oyymtbjummop09d","","null","","sounds/induction/right/re_SWS.wav","","null","","","","","","","","","","","","","","","","","","","","","","","","","","","","","","","","","","","","","","","","","",""
"html-button-response","82","878334","0.0-4.0-1.0-1.20","2","1","oyymtbjummop09d","","4625.300000190735","","What sound did you hear?","1","","","1","INDUCTION-JUDGMENT","right","1","","","","","","","","","","","","","","","","","","","","","","","","","","","","","","","","","","","","",""
"html-keyboard-response","83","879337","0.0-4.0-1.0-2.20","2","1","oyymtbjummop09d","","null","","<p style=""color:green;""><b>Correct!</b></p>","","null","","","","","","","","","","","","","","","","","","","","","","","","","","","","","","","","","","","","","","","","","",""
"audio-keyboard-response","84","880144","0.0-4.0-1.0-0.21","2","1","oyymtbjummop09d","","null","","sounds/induction/right/me_SWS.wav","","null","","","","","","","","","","","","","","","","","","","","","","","","","","","","","","","","","","","","","","","","","",""
"html-button-response","85","882097","0.0-4.0-1.0-1.21","2","1","oyymtbjummop09d","","1952.4000000953674","","What sound did you hear?","1","","","0","INDUCTION-JUDGMENT","right","0","","","","","","","","","","","","","","","","","","","","","","","","","","","","","","","","","","","","",""
"html-keyboard-response","86","883098","0.0-4.0-1.0-2.21","2","1","oyymtbjummop09d","","null","","<p style=""color:red;""><b>Incorrect!</b></p>","","null","","","","","","","","","","","","","","","","","","","","","","","","","","","","","","","","","","","","","","","","","",""
"audio-keyboard-response","87","883904","0.0-4.0-1.0-0.22","2","1","oyymtbjummop09d","","null","","sounds/induction/left/ni_SWS.wav","","null","","","","","","","","","","","","","","","","","","","","","","","","","","","","","","","","","","","","","","","","","",""
"html-button-response","88","888351","0.0-4.0-1.0-1.22","2","1","oyymtbjummop09d","","4446.39999961853","","What sound did you hear?","0","","","0","INDUCTION-JUDGMENT","left","1","","","","","","","","","","","","","","","","","","","","","","","","","","","","","","","","","","","","",""
"html-keyboard-response","89","889357","0.0-4.0-1.0-2.22","2","1","oyymtbjummop09d","","null","","<p style=""color:red;""><b>Incorrect!</b></p>","","null","","","","","","","","","","","","","","","","","","","","","","","","","","","","","","","","","","","","","","","","","",""
"audio-keyboard-response","90","890165","0.0-4.0-1.0-0.23","2","1","oyymtbjummop09d","","null","","sounds/induction/right/su_SWS.wav","","null","","","","","","","","","","","","","","","","","","","","","","","","","","","","","","","","","","","","","","","","","",""
"html-button-response","91","897861","0.0-4.0-1.0-1.23","2","1","oyymtbjummop09d","","7695.300000190735","","What sound did you hear?","1","","","1","INDUCTION-JUDGMENT","right","1","","","","","","","","","","","","","","","","","","","","","","","","","","","","","","","","","","","","",""
"html-keyboard-response","92","898863","0.0-4.0-1.0-2.23","2","1","oyymtbjummop09d","","null","","<p style=""color:green;""><b>Correct!</b></p>","","null","","","","","","","","","","","","","","","","","","","","","","","","","","","","","","","","","","","","","","","","","",""
"audio-keyboard-response","93","899669","0.0-4.0-1.0-0.24","2","1","oyymtbjummop09d","","null","","sounds/induction/right/ge_SWS.wav","","null","","","","","","","","","","","","","","","","","","","","","","","","","","","","","","","","","","","","","","","","","",""
"html-button-response","94","903527","0.0-4.0-1.0-1.24","2","1","oyymtbjummop09d","","3856.9000000953674","","What sound did you hear?","1","","","0","INDUCTION-JUDGMENT","right","0","","","","","","","","","","","","","","","","","","","","","","","","","","","","","","","","","","","","",""
"html-keyboard-response","95","904533","0.0-4.0-1.0-2.24","2","1","oyymtbjummop09d","","null","","<p style=""color:red;""><b>Incorrect!</b></p>","","null","","","","","","","","","","","","","","","","","","","","","","","","","","","","","","","","","","","","","","","","","",""
"audio-keyboard-response","96","905338","0.0-4.0-1.0-0.25","2","1","oyymtbjummop09d","","null","","sounds/induction/left/ti_SWS.wav","","null","","","","","","","","","","","","","","","","","","","","","","","","","","","","","","","","","","","","","","","","","",""
"html-button-response","97","910943","0.0-4.0-1.0-1.25","2","1","oyymtbjummop09d","","5603.800000190735","","What sound did you hear?","0","","","1","INDUCTION-JUDGMENT","left","0","","","","","","","","","","","","","","","","","","","","","","","","","","","","","","","","","","","","",""
"html-keyboard-response","98","911945","0.0-4.0-1.0-2.25","2","1","oyymtbjummop09d","","null","","<p style=""color:green;""><b>Correct!</b></p>","","null","","","","","","","","","","","","","","","","","","","","","","","","","","","","","","","","","","","","","","","","","",""
"audio-keyboard-response","99","912746","0.0-4.0-1.0-0.26","2","1","oyymtbjummop09d","","null","","sounds/induction/left/fe_SWS.wav","","null","","","","","","","","","","","","","","","","","","","","","","","","","","","","","","","","","","","","","","","","","",""
"html-button-response","100","916291","0.0-4.0-1.0-1.26","2","1","oyymtbjummop09d","","3544","","What sound did you hear?","0","","","0","INDUCTION-JUDGMENT","left","1","","","","","","","","","","","","","","","","","","","","","","","","","","","","","","","","","","","","",""
"html-keyboard-response","101","917293","0.0-4.0-1.0-2.26","2","1","oyymtbjummop09d","","null","","<p style=""color:red;""><b>Incorrect!</b></p>","","null","","","","","","","","","","","","","","","","","","","","","","","","","","","","","","","","","","","","","","","","","",""
"audio-keyboard-response","102","918100","0.0-4.0-1.0-0.27","2","1","oyymtbjummop09d","","null","","sounds/induction/left/su_SWS.wav","","null","","","","","","","","","","","","","","","","","","","","","","","","","","","","","","","","","","","","","","","","","",""
"html-button-response","103","920459","0.0-4.0-1.0-1.27","2","1","oyymtbjummop09d","","2358.0999999046326","","What sound did you hear?","0","","","1","INDUCTION-JUDGMENT","left","0","","","","","","","","","","","","","","","","","","","","","","","","","","","","","","","","","","","","",""
"html-keyboard-response","104","921464","0.0-4.0-1.0-2.27","2","1","oyymtbjummop09d","","null","","<p style=""color:green;""><b>Correct!</b></p>","","null","","","","","","","","","","","","","","","","","","","","","","","","","","","","","","","","","","","","","","","","","",""
"audio-keyboard-response","105","922271","0.0-4.0-1.0-0.28","2","1","oyymtbjummop09d","","null","","sounds/induction/right/ti_SWS.wav","","null","","","","","","","","","","","","","","","","","","","","","","","","","","","","","","","","","","","","","","","","","",""
"html-button-response","106","925562","0.0-4.0-1.0-1.28","2","1","oyymtbjummop09d","","3289.2999997138977","","What sound did you hear?","1","","","1","INDUCTION-JUDGMENT","right","1","","","","","","","","","","","","","","","","","","","","","","","","","","","","","","","","","","","","",""
"html-keyboard-response","107","926564","0.0-4.0-1.0-2.28","2","1","oyymtbjummop09d","","null","","<p style=""color:green;""><b>Correct!</b></p>","","null","","","","","","","","","","","","","","","","","","","","","","","","","","","","","","","","","","","","","","","","","",""
"audio-keyboard-response","108","927369","0.0-4.0-1.0-0.29","2","1","oyymtbjummop09d","","null","","sounds/induction/right/me_SWS.wav","","null","","","","","","","","","","","","","","","","","","","","","","","","","","","","","","","","","","","","","","","","","",""
"html-button-response","109","929701","0.0-4.0-1.0-1.29","2","1","oyymtbjummop09d","","2331.5","","What sound did you hear?","0","","","1","INDUCTION-JUDGMENT","right","0","","","","","","","","","","","","","","","","","","","","","","","","","","","","","","","","","","","","",""
"html-keyboard-response","110","930705","0.0-4.0-1.0-2.29","2","1","oyymtbjummop09d","","null","","<p style=""color:green;""><b>Correct!</b></p>","","null","","","","","","","","","","","","","","","","","","","","","","","","","","","","","","","","","","","","","","","","","",""
"audio-keyboard-response","111","931508","0.0-4.0-1.0-0.30","2","1","oyymtbjummop09d","","null","","sounds/induction/left/ru_SWS.wav","","null","","","","","","","","","","","","","","","","","","","","","","","","","","","","","","","","","","","","","","","","","",""
"html-button-response","112","934829","0.0-4.0-1.0-1.30","2","1","oyymtbjummop09d","","3319.699999809265","","What sound did you hear?","0","","","1","INDUCTION-JUDGMENT","left","0","","","","","","","","","","","","","","","","","","","","","","","","","","","","","","","","","","","","",""
"html-keyboard-response","113","935832","0.0-4.0-1.0-2.30","2","1","oyymtbjummop09d","","null","","<p style=""color:green;""><b>Correct!</b></p>","","null","","","","","","","","","","","","","","","","","","","","","","","","","","","","","","","","","","","","","","","","","",""
"audio-keyboard-response","114","936638","0.0-4.0-1.0-0.31","2","1","oyymtbjummop09d","","null","","sounds/induction/right/pu_SWS.wav","","null","","","","","","","","","","","","","","","","","","","","","","","","","","","","","","","","","","","","","","","","","",""
"html-button-response","115","938636","0.0-4.0-1.0-1.31","2","1","oyymtbjummop09d","","1995.9000000953674","","What sound did you hear?","1","","","1","INDUCTION-JUDGMENT","right","1","","","","","","","","","","","","","","","","","","","","","","","","","","","","","","","","","","","","",""
"html-keyboard-response","116","939639","0.0-4.0-1.0-2.31","2","1","oyymtbjummop09d","","null","","<p style=""color:green;""><b>Correct!</b></p>","","null","","","","","","","","","","","","","","","","","","","","","","","","","","","","","","","","","","","","","","","","","",""
"audio-keyboard-response","117","940441","0.0-4.0-1.0-0.32","2","1","oyymtbjummop09d","","null","","sounds/induction/right/ni_SWS.wav","","null","","","","","","","","","","","","","","","","","","","","","","","","","","","","","","","","","","","","","","","","","",""
"html-button-response","118","942736","0.0-4.0-1.0-1.32","2","1","oyymtbjummop09d","","2293.699999809265","","What sound did you hear?","0","","","1","INDUCTION-JUDGMENT","right","0","","","","","","","","","","","","","","","","","","","","","","","","","","","","","","","","","","","","",""
"html-keyboard-response","119","943738","0.0-4.0-1.0-2.32","2","1","oyymtbjummop09d","","null","","<p style=""color:green;""><b>Correct!</b></p>","","null","","","","","","","","","","","","","","","","","","","","","","","","","","","","","","","","","","","","","","","","","",""
"audio-keyboard-response","120","944542","0.0-4.0-1.0-0.33","2","1","oyymtbjummop09d","","null","","sounds/induction/left/me_SWS.wav","","null","","","","","","","","","","","","","","","","","","","","","","","","","","","","","","","","","","","","","","","","","",""
"html-button-response","121","948154","0.0-4.0-1.0-1.33","2","1","oyymtbjummop09d","","3611.0999999046326","","What sound did you hear?","0","","","0","INDUCTION-JUDGMENT","left","1","","","","","","","","","","","","","","","","","","","","","","","","","","","","","","","","","","","","",""
"html-keyboard-response","122","949159","0.0-4.0-1.0-2.33","2","1","oyymtbjummop09d","","null","","<p style=""color:red;""><b>Incorrect!</b></p>","","null","","","","","","","","","","","","","","","","","","","","","","","","","","","","","","","","","","","","","","","","","",""
"audio-keyboard-response","123","949966","0.0-4.0-1.0-0.34","2","1","oyymtbjummop09d","","null","","sounds/induction/right/re_SWS.wav","","null","","","","","","","","","","","","","","","","","","","","","","","","","","","","","","","","","","","","","","","","","",""
"html-button-response","124","1046952","0.0-4.0-1.0-1.34","2","1","oyymtbjummop09d","","96986.7999997139","","What sound did you hear?","1","","","1","INDUCTION-JUDGMENT","right","1","","","","","","","","","","","","","","","","","","","","","","","","","","","","","","","","","","","","",""
"html-keyboard-response","125","1047955","0.0-4.0-1.0-2.34","2","1","oyymtbjummop09d","","null","","<p style=""color:green;""><b>Correct!</b></p>","","null","","","","","","","","","","","","","","","","","","","","","","","","","","","","","","","","","","","","","","","","","",""
"audio-keyboard-response","126","1049269","0.0-4.0-1.0-0.35","2","1","oyymtbjummop09d","","null","","sounds/induction/left/fe_SWS.wav","","null","","","","","","","","","","","","","","","","","","","","","","","","","","","","","","","","","","","","","","","","","",""
"html-button-response","127","1054010","0.0-4.0-1.0-1.35","2","1","oyymtbjummop09d","","4740.300000190735","","What sound did you hear?","1","","","1","INDUCTION-JUDGMENT","left","1","","","","","","","","","","","","","","","","","","","","","","","","","","","","","","","","","","","","",""
"html-keyboard-response","128","1055015","0.0-4.0-1.0-2.35","2","1","oyymtbjummop09d","","null","","<p style=""color:green;""><b>Correct!</b></p>","","null","","","","","","","","","","","","","","","","","","","","","","","","","","","","","","","","","","","","","","","","","",""
"audio-keyboard-response","129","1055819","0.0-4.0-1.0-0.36","2","1","oyymtbjummop09d","","null","","sounds/induction/left/ta_SWS.wav","","null","","","","","","","","","","","","","","","","","","","","","","","","","","","","","","","","","","","","","","","","","",""
"html-button-response","130","1058100","0.0-4.0-1.0-1.36","2","1","oyymtbjummop09d","","2279.8999996185303","","What sound did you hear?","0","","","1","INDUCTION-JUDGMENT","left","0","","","","","","","","","","","","","","","","","","","","","","","","","","","","","","","","","","","","",""
"html-keyboard-response","131","1059104","0.0-4.0-1.0-2.36","2","1","oyymtbjummop09d","","null","","<p style=""color:green;""><b>Correct!</b></p>","","null","","","","","","","","","","","","","","","","","","","","","","","","","","","","","","","","","","","","","","","","","",""
"audio-keyboard-response","132","1059909","0.0-4.0-1.0-0.37","2","1","oyymtbjummop09d","","null","","sounds/induction/left/ru_SWS.wav","","null","","","","","","","","","","","","","","","","","","","","","","","","","","","","","","","","","","","","","","","","","",""
"html-button-response","133","1062815","0.0-4.0-1.0-1.37","2","1","oyymtbjummop09d","","2904.5999999046326","","What sound did you hear?","1","","","0","INDUCTION-JUDGMENT","left","0","","","","","","","","","","","","","","","","","","","","","","","","","","","","","","","","","","","","",""
"html-keyboard-response","134","1063817","0.0-4.0-1.0-2.37","2","1","oyymtbjummop09d","","null","","<p style=""color:red;""><b>Incorrect!</b></p>","","null","","","","","","","","","","","","","","","","","","","","","","","","","","","","","","","","","","","","","","","","","",""
"audio-keyboard-response","135","1064624","0.0-4.0-1.0-0.38","2","1","oyymtbjummop09d","","null","","sounds/induction/right/ko_SWS.wav","","null","","","","","","","","","","","","","","","","","","","","","","","","","","","","","","","","","","","","","","","","","",""
"html-button-response","136","1067260","0.0-4.0-1.0-1.38","2","1","oyymtbjummop09d","","2635.5999999046326","","What sound did you hear?","1","","","0","INDUCTION-JUDGMENT","right","0","","","","","","","","","","","","","","","","","","","","","","","","","","","","","","","","","","","","",""
"html-keyboard-response","137","1068265","0.0-4.0-1.0-2.38","2","1","oyymtbjummop09d","","null","","<p style=""color:red;""><b>Incorrect!</b></p>","","null","","","","","","","","","","","","","","","","","","","","","","","","","","","","","","","","","","","","","","","","","",""
"audio-keyboard-response","138","1069072","0.0-4.0-1.0-0.39","2","1","oyymtbjummop09d","","null","","sounds/induction/right/ru_SWS.wav","","null","","","","","","","","","","","","","","","","","","","","","","","","","","","","","","","","","","","","","","","","","",""
"html-button-response","139","1071697","0.0-4.0-1.0-1.39","2","1","oyymtbjummop09d","","2623.2999997138977","","What sound did you hear?","1","","","1","INDUCTION-JUDGMENT","right","1","","","","","","","","","","","","","","","","","","","","","","","","","","","","","","","","","","","","",""
"html-keyboard-response","140","1072700","0.0-4.0-1.0-2.39","2","1","oyymtbjummop09d","","null","","<p style=""color:green;""><b>Correct!</b></p>","","null","","","","","","","","","","","","","","","","","","","","","","","","","","","","","","","","","","","","","","","","","",""
"audio-keyboard-response","141","1073503","0.0-4.0-1.0-0.40","2","1","oyymtbjummop09d","","null","","sounds/induction/left/fu_SWS.wav","","null","","","","","","","","","","","","","","","","","","","","","","","","","","","","","","","","","","","","","","","","","",""
"html-button-response","142","1076391","0.0-4.0-1.0-1.40","2","1","oyymtbjummop09d","","2886.199999809265","","What sound did you hear?","0","","","0","INDUCTION-JUDGMENT","left","1","","","","","","","","","","","","","","","","","","","","","","","","","","","","","","","","","","","","",""
"html-keyboard-response","143","1077392","0.0-4.0-1.0-2.40","2","1","oyymtbjummop09d","","null","","<p style=""color:red;""><b>Incorrect!</b></p>","","null","","","","","","","","","","","","","","","","","","","","","","","","","","","","","","","","","","","","","","","","","",""
"audio-keyboard-response","144","1078197","0.0-4.0-1.0-0.41","2","1","oyymtbjummop09d","","null","","sounds/induction/right/ti_SWS.wav","","null","","","","","","","","","","","","","","","","","","","","","","","","","","","","","","","","","","","","","","","","","",""
"html-button-response","145","1081058","0.0-4.0-1.0-1.41","2","1","oyymtbjummop09d","","2860.300000190735","","What sound did you hear?","0","","","0","INDUCTION-JUDGMENT","right","1","","","","","","","","","","","","","","","","","","","","","","","","","","","","","","","","","","","","",""
"html-keyboard-response","146","1082063","0.0-4.0-1.0-2.41","2","1","oyymtbjummop09d","","null","","<p style=""color:red;""><b>Incorrect!</b></p>","","null","","","","","","","","","","","","","","","","","","","","","","","","","","","","","","","","","","","","","","","","","",""
"audio-keyboard-response","147","1082869","0.0-4.0-1.0-0.42","2","1","oyymtbjummop09d","","null","","sounds/induction/left/re_SWS.wav","","null","","","","","","","","","","","","","","","","","","","","","","","","","","","","","","","","","","","","","","","","","",""
"html-button-response","148","1084678","0.0-4.0-1.0-1.42","2","1","oyymtbjummop09d","","1808.4000000953674","","What sound did you hear?","1","","","0","INDUCTION-JUDGMENT","left","0","","","","","","","","","","","","","","","","","","","","","","","","","","","","","","","","","","","","",""
"html-keyboard-response","149","1085680","0.0-4.0-1.0-2.42","2","1","oyymtbjummop09d","","null","","<p style=""color:red;""><b>Incorrect!</b></p>","","null","","","","","","","","","","","","","","","","","","","","","","","","","","","","","","","","","","","","","","","","","",""
"audio-keyboard-response","150","1086485","0.0-4.0-1.0-0.43","2","1","oyymtbjummop09d","","null","","sounds/induction/right/fu_SWS.wav","","null","","","","","","","","","","","","","","","","","","","","","","","","","","","","","","","","","","","","","","","","","",""
"html-button-response","151","1088962","0.0-4.0-1.0-1.43","2","1","oyymtbjummop09d","","2475.699999809265","","What sound did you hear?","0","","","1","INDUCTION-JUDGMENT","right","0","","","","","","","","","","","","","","","","","","","","","","","","","","","","","","","","","","","","",""
"html-keyboard-response","152","1089964","0.0-4.0-1.0-2.43","2","1","oyymtbjummop09d","","null","","<p style=""color:green;""><b>Correct!</b></p>","","null","","","","","","","","","","","","","","","","","","","","","","","","","","","","","","","","","","","","","","","","","",""
"audio-keyboard-response","153","1090767","0.0-4.0-1.0-0.44","2","1","oyymtbjummop09d","","null","","sounds/induction/right/ni_SWS.wav","","null","","","","","","","","","","","","","","","","","","","","","","","","","","","","","","","","","","","","","","","","","",""
"html-button-response","154","1093118","0.0-4.0-1.0-1.44","2","1","oyymtbjummop09d","","2349.699999809265","","What sound did you hear?","1","","","0","INDUCTION-JUDGMENT","right","0","","","","","","","","","","","","","","","","","","","","","","","","","","","","","","","","","","","","",""
"html-keyboard-response","155","1094121","0.0-4.0-1.0-2.44","2","1","oyymtbjummop09d","","null","","<p style=""color:red;""><b>Incorrect!</b></p>","","null","","","","","","","","","","","","","","","","","","","","","","","","","","","","","","","","","","","","","","","","","",""
"audio-keyboard-response","156","1094927","0.0-4.0-1.0-0.45","2","1","oyymtbjummop09d","","null","","sounds/induction/right/pu_SWS.wav","","null","","","","","","","","","","","","","","","","","","","","","","","","","","","","","","","","","","","","","","","","","",""
"html-button-response","157","1096924","0.0-4.0-1.0-1.45","2","1","oyymtbjummop09d","","1995.6999998092651","","What sound did you hear?","1","","","1","INDUCTION-JUDGMENT","right","1","","","","","","","","","","","","","","","","","","","","","","","","","","","","","","","","","","","","",""
"html-keyboard-response","158","1097928","0.0-4.0-1.0-2.45","2","1","oyymtbjummop09d","","null","","<p style=""color:green;""><b>Correct!</b></p>","","null","","","","","","","","","","","","","","","","","","","","","","","","","","","","","","","","","","","","","","","","","",""
"audio-keyboard-response","159","1098730","0.0-4.0-1.0-0.46","2","1","oyymtbjummop09d","","null","","sounds/induction/left/ge_SWS.wav","","null","","","","","","","","","","","","","","","","","","","","","","","","","","","","","","","","","","","","","","","","","",""
"html-button-response","160","1101621","0.0-4.0-1.0-1.46","2","1","oyymtbjummop09d","","2890.9000000953674","","What sound did you hear?","0","","","0","INDUCTION-JUDGMENT","left","1","","","","","","","","","","","","","","","","","","","","","","","","","","","","","","","","","","","","",""
"html-keyboard-response","161","1102626","0.0-4.0-1.0-2.46","2","1","oyymtbjummop09d","","null","","<p style=""color:red;""><b>Incorrect!</b></p>","","null","","","","","","","","","","","","","","","","","","","","","","","","","","","","","","","","","","","","","","","","","",""
"audio-keyboard-response","162","1103433","0.0-4.0-1.0-0.47","2","1","oyymtbjummop09d","","null","","sounds/induction/right/ta_SWS.wav","","null","","","","","","","","","","","","","","","","","","","","","","","","","","","","","","","","","","","","","","","","","",""
"html-button-response","163","1105762","0.0-4.0-1.0-1.47","2","1","oyymtbjummop09d","","2326.699999809265","","What sound did you hear?","1","","","1","INDUCTION-JUDGMENT","right","1","","","","","","","","","","","","","","","","","","","","","","","","","","","","","","","","","","","","",""
"html-keyboard-response","164","1106767","0.0-4.0-1.0-2.47","2","1","oyymtbjummop09d","","null","","<p style=""color:green;""><b>Correct!</b></p>","","null","","","","","","","","","","","","","","","","","","","","","","","","","","","","","","","","","","","","","","","","","",""
"html-button-response","165","1236898","0.0-5.0-0.0","2","1","oyymtbjummop09d","","129629.09999990463","","<p>Thank you for your answers.</p><p>You will now listen to similar sounds. The main difference is that the sounds will be longer and will make up complete sentences.</p><p>Please listen carefully to each sentence. After each sentence, you will be asked to type back what you heard to the best of your ability. After you provide your response, you will be given feedback about the correct answer.</p><p>There are 10 sentences in total.","0","","","","","","","","","","","","","","","","","","","","","","","","","","","","","","","","","","","","","","","","","","",""
"audio-keyboard-response","166","1240103","0.0-5.0-1.0-0.0","2","1","oyymtbjummop09d","","null","","sounds/sentences/right/14_06_cfSWS.wav","","null","","","","","","","","","","","","","","","","","","","","","","","","","","","","","","","","","","","","","","","","","",""
"sentence-resp","167","1252354","0.0-5.0-1.0-1.0","2","1","oyymtbjummop09d","","12248","","","","","","","SWS-SENT-RESPONSE","","","{""Q0"":""""}","Bring your problems to the wise chief.","bring,your,problems,wise,chief","","0","0","0","0","0","0","0","","","","","","","","","","","","","","","","","","","","","","","","","",""
"html-keyboard-response","168","1253610","0.0-5.0-1.0-2.0","2","1","oyymtbjummop09d","","null","","","","null","","","","","","","","","","","","","","","","","","","","","","","","","","","","","","","","","","","","","","","","","",""
"audio-keyboard-response","169","1255852","0.0-5.0-1.0-3.0","2","1","oyymtbjummop09d","","null","","sounds/sentences/right/14_06_cfSWS.wav","","null","","","","","","","","","","","","","","","","","","","","","","","","","","","","","","","","","","","","","","","","","",""
"html-keyboard-response","170","1256858","0.0-5.0-1.0-4.0","2","1","oyymtbjummop09d","","null","","","","null","","","","","","","","","","","","","","","","","","","","","","","","","","","","","","","","","","","","","","","","","",""
"html-button-response","171","1260156","0.0-5.0-1.0-5.0","2","1","oyymtbjummop09d","","2794.4000000953674","","<p>Press the button below when you are ready to continue.</p>","0","","","","","","","","","","","","","","","","","","","","","","","","","","","","","","","","","","","","","","","","","","",""
"audio-keyboard-response","172","1263275","0.0-5.0-1.0-0.1","2","1","oyymtbjummop09d","","null","","sounds/sentences/left/14_01_cfSWS.wav","","null","","","","","","","","","","","","","","","","","","","","","","","","","","","","","","","","","","","","","","","","","",""
"sentence-resp","173","1274287","0.0-5.0-1.0-1.1","2","1","oyymtbjummop09d","","11009","","","","","","","SWS-SENT-RESPONSE","","","{""Q0"":""""}","A cramp is no small danger on a swim.","cramp,no,small,danger,swim","","0","0","0","0","0","0","0","","","","","","","","","","","","","","","","","","","","","","","","","",""
"html-keyboard-response","174","1275546","0.0-5.0-1.0-2.1","2","1","oyymtbjummop09d","","null","","","","null","","","","","","","","","","","","","","","","","","","","","","","","","","","","","","","","","","","","","","","","","",""
"audio-keyboard-response","175","1278161","0.0-5.0-1.0-3.1","2","1","oyymtbjummop09d","","null","","sounds/sentences/left/14_01_cfSWS.wav","","null","","","","","","","","","","","","","","","","","","","","","","","","","","","","","","","","","","","","","","","","","",""
"html-keyboard-response","176","1279166","0.0-5.0-1.0-4.1","2","1","oyymtbjummop09d","","null","","","","null","","","","","","","","","","","","","","","","","","","","","","","","","","","","","","","","","","","","","","","","","",""
"html-button-response","177","1282154","0.0-5.0-1.0-5.1","2","1","oyymtbjummop09d","","2482.699999809265","","<p>Press the button below when you are ready to continue.</p>","0","","","","","","","","","","","","","","","","","","","","","","","","","","","","","","","","","","","","","","","","","","",""
"audio-keyboard-response","178","1284742","0.0-5.0-1.0-0.2","2","1","oyymtbjummop09d","","null","","sounds/sentences/left/14_03_cfSWS.wav","","null","","","","","","","","","","","","","","","","","","","","","","","","","","","","","","","","","","","","","","","","","",""
"sentence-resp","179","1292342","0.0-5.0-1.0-1.2","2","1","oyymtbjummop09d","","7598","","","","","","","SWS-SENT-RESPONSE","","","{""Q0"":""""}","Pluck the bright rose without leaves.","pluck,bright,rose,without,leaves","","0","0","0","0","0","0","0","","","","","","","","","","","","","","","","","","","","","","","","","",""
"html-keyboard-response","180","1293600","0.0-5.0-1.0-2.2","2","1","oyymtbjummop09d","","null","","","","null","","","","","","","","","","","","","","","","","","","","","","","","","","","","","","","","","","","","","","","","","",""
"audio-keyboard-response","181","1295686","0.0-5.0-1.0-3.2","2","1","oyymtbjummop09d","","null","","sounds/sentences/left/14_03_cfSWS.wav","","null","","","","","","","","","","","","","","","","","","","","","","","","","","","","","","","","","","","","","","","","","",""
"html-keyboard-response","182","1296688","0.0-5.0-1.0-4.2","2","1","oyymtbjummop09d","","null","","","","null","","","","","","","","","","","","","","","","","","","","","","","","","","","","","","","","","","","","","","","","","",""
"html-button-response","183","1300002","0.0-5.0-1.0-5.2","2","1","oyymtbjummop09d","","2810.4000000953674","","<p>Press the button below when you are ready to continue.</p>","0","","","","","","","","","","","","","","","","","","","","","","","","","","","","","","","","","","","","","","","","","","",""
"audio-keyboard-response","184","1302736","0.0-5.0-1.0-0.3","2","1","oyymtbjummop09d","","null","","sounds/sentences/right/14_09_cfSWS.wav","","null","","","","","","","","","","","","","","","","","","","","","","","","","","","","","","","","","","","","","","","","","",""
"sentence-resp","185","1304637","0.0-5.0-1.0-1.3","2","1","oyymtbjummop09d","","1898","","","","","","","SWS-SENT-RESPONSE","","","{""Q0"":""""}","We frown when events take a bad turn.","frown,events,take,bad,turn","","0","0","0","0","0","0","0","","","","","","","","","","","","","","","","","","","","","","","","","",""
"html-keyboard-response","186","1305894","0.0-5.0-1.0-2.3","2","1","oyymtbjummop09d","","null","","","","null","","","","","","","","","","","","","","","","","","","","","","","","","","","","","","","","","","","","","","","","","",""
"audio-keyboard-response","187","1308123","0.0-5.0-1.0-3.3","2","1","oyymtbjummop09d","","null","","sounds/sentences/right/14_09_cfSWS.wav","","null","","","","","","","","","","","","","","","","","","","","","","","","","","","","","","","","","","","","","","","","","",""
"html-keyboard-response","188","1309126","0.0-5.0-1.0-4.3","2","1","oyymtbjummop09d","","null","","","","null","","","","","","","","","","","","","","","","","","","","","","","","","","","","","","","","","","","","","","","","","",""
"html-button-response","189","1311366","0.0-5.0-1.0-5.3","2","1","oyymtbjummop09d","","1735.8000001907349","","<p>Press the button below when you are ready to continue.</p>","0","","","","","","","","","","","","","","","","","","","","","","","","","","","","","","","","","","","","","","","","","","",""
"audio-keyboard-response","190","1314186","0.0-5.0-1.0-0.4","2","1","oyymtbjummop09d","","null","","sounds/sentences/left/14_02_cfSWS.wav","","null","","","","","","","","","","","","","","","","","","","","","","","","","","","","","","","","","","","","","","","","","",""
"sentence-resp","191","1316305","0.0-5.0-1.0-1.4","2","1","oyymtbjummop09d","","2116","","","","","","","SWS-SENT-RESPONSE","","","{""Q0"":""""}","He said the same phrase thirty times.","said,same,phrase,thirty,times","","0","0","0","0","0","0","0","","","","","","","","","","","","","","","","","","","","","","","","","",""
"html-keyboard-response","192","1317557","0.0-5.0-1.0-2.4","2","1","oyymtbjummop09d","","null","","","","null","","","","","","","","","","","","","","","","","","","","","","","","","","","","","","","","","","","","","","","","","",""
"audio-keyboard-response","193","1319877","0.0-5.0-1.0-3.4","2","1","oyymtbjummop09d","","null","","sounds/sentences/left/14_02_cfSWS.wav","","null","","","","","","","","","","","","","","","","","","","","","","","","","","","","","","","","","","","","","","","","","",""
"html-keyboard-response","194","1320879","0.0-5.0-1.0-4.4","2","1","oyymtbjummop09d","","null","","","","null","","","","","","","","","","","","","","","","","","","","","","","","","","","","","","","","","","","","","","","","","",""
"html-button-response","195","1322504","0.0-5.0-1.0-5.4","2","1","oyymtbjummop09d","","1123.0999999046326","","<p>Press the button below when you are ready to continue.</p>","0","","","","","","","","","","","","","","","","","","","","","","","","","","","","","","","","","","","","","","","","","","",""
"audio-keyboard-response","196","1325258","0.0-5.0-1.0-0.5","2","1","oyymtbjummop09d","","null","","sounds/sentences/right/14_08_cfSWS.wav","","null","","","","","","","","","","","","","","","","","","","","","","","","","","","","","","","","","","","","","","","","","",""
"sentence-resp","197","1326837","0.0-5.0-1.0-1.5","2","1","oyymtbjummop09d","","1576","","","","","","","SWS-SENT-RESPONSE","","","{""Q0"":""""}","Clothes and lodging are free to new men.","clothes,lodging,free,new,men","","0","0","0","0","0","0","0","","","","","","","","","","","","","","","","","","","","","","","","","",""
"html-keyboard-response","198","1328093","0.0-5.0-1.0-2.5","2","1","oyymtbjummop09d","","null","","","","null","","","","","","","","","","","","","","","","","","","","","","","","","","","","","","","","","","","","","","","","","",""
"audio-keyboard-response","199","1330346","0.0-5.0-1.0-3.5","2","1","oyymtbjummop09d","","null","","sounds/sentences/right/14_08_cfSWS.wav","","null","","","","","","","","","","","","","","","","","","","","","","","","","","","","","","","","","","","","","","","","","",""
"html-keyboard-response","200","1331348","0.0-5.0-1.0-4.5","2","1","oyymtbjummop09d","","null","","","","null","","","","","","","","","","","","","","","","","","","","","","","","","","","","","","","","","","","","","","","","","",""
"html-button-response","201","1332709","0.0-5.0-1.0-5.5","2","1","oyymtbjummop09d","","857.9000000953674","","<p>Press the button below when you are ready to continue.</p>","0","","","","","","","","","","","","","","","","","","","","","","","","","","","","","","","","","","","","","","","","","","",""
"audio-keyboard-response","202","1335727","0.0-5.0-1.0-0.6","2","1","oyymtbjummop09d","","null","","sounds/sentences/right/14_10_cfSWS.wav","","null","","","","","","","","","","","","","","","","","","","","","","","","","","","","","","","","","","","","","","","","","",""
"sentence-resp","203","1337568","0.0-5.0-1.0-1.6","2","1","oyymtbjummop09d","","1838","","","","","","","SWS-SENT-RESPONSE","","","{""Q0"":""""}","Port is a strong wine with a smoky taste.","port,strong,wine,smoky,taste","","0","0","0","0","0","0","0","","","","","","","","","","","","","","","","","","","","","","","","","",""
"html-keyboard-response","204","1338825","0.0-5.0-1.0-2.6","2","1","oyymtbjummop09d","","null","","","","null","","","","","","","","","","","","","","","","","","","","","","","","","","","","","","","","","","","","","","","","","",""
"audio-keyboard-response","205","1341343","0.0-5.0-1.0-3.6","2","1","oyymtbjummop09d","","null","","sounds/sentences/right/14_10_cfSWS.wav","","null","","","","","","","","","","","","","","","","","","","","","","","","","","","","","","","","","","","","","","","","","",""
"html-keyboard-response","206","1342345","0.0-5.0-1.0-4.6","2","1","oyymtbjummop09d","","null","","","","null","","","","","","","","","","","","","","","","","","","","","","","","","","","","","","","","","","","","","","","","","",""
"html-button-response","207","1343782","0.0-5.0-1.0-5.6","2","1","oyymtbjummop09d","","935.7000002861023","","<p>Press the button below when you are ready to continue.</p>","0","","","","","","","","","","","","","","","","","","","","","","","","","","","","","","","","","","","","","","","","","","",""
"audio-keyboard-response","208","1346335","0.0-5.0-1.0-0.7","2","1","oyymtbjummop09d","","null","","sounds/sentences/left/14_04_cfSWS.wav","","null","","","","","","","","","","","","","","","","","","","","","","","","","","","","","","","","","","","","","","","","","",""
"sentence-resp","209","1348491","0.0-5.0-1.0-1.7","2","1","oyymtbjummop09d","","2153","","","","","","","SWS-SENT-RESPONSE","","","{""Q0"":""""}","Two plus seven is less than ten.","two,plus,seven,less,ten","","0","0","0","0","0","0","0","","","","","","","","","","","","","","","","","","","","","","","","","",""
"html-keyboard-response","210","1349747","0.0-5.0-1.0-2.7","2","1","oyymtbjummop09d","","null","","","","null","","","","","","","","","","","","","","","","","","","","","","","","","","","","","","","","","","","","","","","","","",""
"audio-keyboard-response","211","1351802","0.0-5.0-1.0-3.7","2","1","oyymtbjummop09d","","null","","sounds/sentences/left/14_04_cfSWS.wav","","null","","","","","","","","","","","","","","","","","","","","","","","","","","","","","","","","","","","","","","","","","",""
"html-keyboard-response","212","1352803","0.0-5.0-1.0-4.7","2","1","oyymtbjummop09d","","null","","","","null","","","","","","","","","","","","","","","","","","","","","","","","","","","","","","","","","","","","","","","","","",""
"html-button-response","213","1354080","0.0-5.0-1.0-5.7","2","1","oyymtbjummop09d","","773.3000001907349","","<p>Press the button below when you are ready to continue.</p>","0","","","","","","","","","","","","","","","","","","","","","","","","","","","","","","","","","","","","","","","","","","",""
"audio-keyboard-response","214","1357071","0.0-5.0-1.0-0.8","2","1","oyymtbjummop09d","","null","","sounds/sentences/left/14_05_cfSWS.wav","","null","","","","","","","","","","","","","","","","","","","","","","","","","","","","","","","","","","","","","","","","","",""
"sentence-resp","215","1358371","0.0-5.0-1.0-1.8","2","1","oyymtbjummop09d","","1297","","","","","","","SWS-SENT-RESPONSE","","","{""Q0"":""""}","The glow deepened in the eyes of the sweet girl.","glow,deepened,eyes,sweet,girl","","0","0","0","0","0","0","0","","","","","","","","","","","","","","","","","","","","","","","","","",""
"html-keyboard-response","216","1359628","0.0-5.0-1.0-2.8","2","1","oyymtbjummop09d","","null","","","","null","","","","","","","","","","","","","","","","","","","","","","","","","","","","","","","","","","","","","","","","","",""
"audio-keyboard-response","217","1362116","0.0-5.0-1.0-3.8","2","1","oyymtbjummop09d","","null","","sounds/sentences/left/14_05_cfSWS.wav","","null","","","","","","","","","","","","","","","","","","","","","","","","","","","","","","","","","","","","","","","","","",""
"html-keyboard-response","218","1363120","0.0-5.0-1.0-4.8","2","1","oyymtbjummop09d","","null","","","","null","","","","","","","","","","","","","","","","","","","","","","","","","","","","","","","","","","","","","","","","","",""
"html-button-response","219","1364563","0.0-5.0-1.0-5.8","2","1","oyymtbjummop09d","","940.3000001907349","","<p>Press the button below when you are ready to continue.</p>","0","","","","","","","","","","","","","","","","","","","","","","","","","","","","","","","","","","","","","","","","","","",""
"audio-keyboard-response","220","1367454","0.0-5.0-1.0-0.9","2","1","oyymtbjummop09d","","null","","sounds/sentences/right/14_07_cfSWS.wav","","null","","","","","","","","","","","","","","","","","","","","","","","","","","","","","","","","","","","","","","","","","",""
"sentence-resp","221","1368616","0.0-5.0-1.0-1.9","2","1","oyymtbjummop09d","","1159","","","","","","","SWS-SENT-RESPONSE","","","{""Q0"":""""}","Write a fond note to the friend you cherish.","write,fond,note,friend,cherish","","0","0","0","0","0","0","0","","","","","","","","","","","","","","","","","","","","","","","","","",""
"html-keyboard-response","222","1369871","0.0-5.0-1.0-2.9","2","1","oyymtbjummop09d","","null","","","","null","","","","","","","","","","","","","","","","","","","","","","","","","","","","","","","","","","","","","","","","","",""
"audio-keyboard-response","223","1372260","0.0-5.0-1.0-3.9","2","1","oyymtbjummop09d","","null","","sounds/sentences/right/14_07_cfSWS.wav","","null","","","","","","","","","","","","","","","","","","","","","","","","","","","","","","","","","","","","","","","","","",""
"html-keyboard-response","224","1373262","0.0-5.0-1.0-4.9","2","1","oyymtbjummop09d","","null","","","","null","","","","","","","","","","","","","","","","","","","","","","","","","","","","","","","","","","","","","","","","","",""
"html-button-response","225","1374925","0.0-5.0-1.0-5.9","2","1","oyymtbjummop09d","","1160.8999996185303","","<p>Press the button below when you are ready to continue.</p>","0","","","","","","","","","","","","","","","","","","","","","","","","","","","","","","","","","","","","","","","","","","",""
"html-keyboard-response","226","1398109","0.0-6.0-0.0","2","1","oyymtbjummop09d","","22681.800000190735","","<p>In this part of the study, you will hear sounds similar to those you just heard.</p><p>Please focus on these sounds, as you may be asked questions about them later.</p><p>Occasionally, the sounds will pause for up to two seconds. When this happens, please press SPACEBAR as quickly as you can.</br>This helps ensure that you are paying attention to the sounds.</p><p>This part of the study will take about 12 minutes to complete, and you will be given the opportunity to take a couple of short breaks every few minutes.</p><p><strong>Press SPACEBAR to begin</strong></p>","","32","","","","","","","","","","","","","","","","","","","","","","","","","","","","","","","","","","","","","","","","","",""
"html-keyboard-response","227","1399112","0.0-6.0-1.0-0.0","2","1","oyymtbjummop09d","","null","","<p style=""font-size: 40px;"">+</p>","","null","","","","","","","","","","","","","","","","","","","","","","","","","","","","","","","","","","","","","","","","","",""
"html-keyboard-response","228","1584118","0.0-6.0-1.0-1.0","2","1","oyymtbjummop09d","","null","","","","null","","","SL-TRAIN","","","","","","","","","","","","","","0","1018.5999999046326","1193.5999999046326","sounds/B/TRAIN/SEQ__10.mp3","3","","","","","","","","","","","","","","","","","","","","",""
"html-button-response","229","1818395","0.0-6.0-1.0-2.0","2","1","oyymtbjummop09d","","234280.40000009537","","<p>You may take a short break if you wish.</p>","0","","","","","","","","","","","","","","","","","","","","","","","","","","","","","","","","","","","","","","","","","","",""
"html-keyboard-response","230","1819398","0.0-6.0-1.0-3.0","2","1","oyymtbjummop09d","","null","","<p style=""font-size: 40px;"">+</p>","","null","","","","","","","","","","","","","","","","","","","","","","","","","","","","","","","","","","","","","","","","","",""
"html-keyboard-response","231","2004429","0.0-6.0-1.0-4.0","2","1","oyymtbjummop09d","","null","","","","null","","","SL-TRAIN","","","","","","","","","","","","","","1","null","1653.7000002861023","sounds/B/TRAIN/SEQ__09.mp3","4","","","","","","","","","","","","","","","","","","","","",""
"html-button-response","232","2068133","0.0-6.0-1.0-5.0","2","1","oyymtbjummop09d","","63701.09999990463","","<p>You may take a short break if you wish.</p>","0","","","","","","","","","","","","","","","","","","","","","","","","","","","","","","","","","","","","","","","","","","",""
"html-keyboard-response","233","2069139","0.0-6.0-1.0-6.0","2","1","oyymtbjummop09d","","null","","<p style=""font-size: 40px;"">+</p>","","null","","","","","","","","","","","","","","","","","","","","","","","","","","","","","","","","","","","","","","","","","",""
"html-keyboard-response","234","2254147","0.0-6.0-1.0-7.0","2","1","oyymtbjummop09d","","null","","","","null","","","SL-TRAIN","","","","","","","","","","","","","","1","null","1717.0999999046326","sounds/B/TRAIN/SEQ__02.mp3","6","","","","","","","","","","","","","","","","","","","","",""
"html-button-response","235","2258777","0.0-6.0-1.0-8.0","2","1","oyymtbjummop09d","","4627.699999809265","","<p>You may take a short break if you wish.</p>","0","","","","","","","","","","","","","","","","","","","","","","","","","","","","","","","","","","","","","","","","","","",""
"html-keyboard-response","236","2259782","0.0-6.0-1.0-9.0","2","1","oyymtbjummop09d","","null","","<p style=""font-size: 40px;"">+</p>","","null","","","","","","","","","","","","","","","","","","","","","","","","","","","","","","","","","","","","","","","","","",""
"html-keyboard-response","237","2444787","0.0-6.0-1.0-10.0","2","1","oyymtbjummop09d","","null","","","","null","","","SL-TRAIN","","","","","","","","","","","","","","1","1623.5999999046326","null","sounds/B/TRAIN/SEQ__11.mp3","8","","","","","","","","","","","","","","","","","","","","",""
"html-button-response","238","2447395","0.0-6.0-1.0-11.0","2","1","oyymtbjummop09d","","2605.5999999046326","","<p>You may take a short break if you wish.</p>","0","","","","","","","","","","","","","","","","","","","","","","","","","","","","","","","","","","","","","","","","","","",""
"html-button-response","239","2482913","0.0-7.0-0.0","2","1","oyymtbjummop09d","","35517.300000190735","","<p>Welcome to the second part of the study. This is a <u>familiarity task</u>.</p><p>You will now hear short sounds and will be asked to rate how familiar they sound to you <b>based on what you heard in the previous part of the study</b>.</p><p>You will rate 12 sounds in total.</p>","0","","","","","","","","","","","","","","","","","","","","","","","","","","","","","","","","","","","","","","","","","","",""
"html-keyboard-response","240","2483917","0.0-7.0-1.0-0.0","2","1","oyymtbjummop09d","","null","","","","null","","","","","","","","","","","","","","","","","","","","","","","","","","","","","","","","","","","","","","","","","",""
"audio-keyboard-response","241","2485310","0.0-7.0-1.0-1.0","2","1","oyymtbjummop09d","","null","","sounds/B/FAM/P001.mp3","","null","","","","","","","","","","","","","","","","","","","","","","","","","","","","","","","","","","","","","","","","","",""
"html-keyboard-response","242","2491473","0.0-7.0-1.0-2.0","2","1","oyymtbjummop09d","","5657.599999904633","","<p>How familiar did this sound to you?</p><p>1&nbsp;&nbsp;&nbsp;&nbsp;&nbsp;&nbsp;&nbsp;&nbsp;&nbsp;&nbsp;&nbsp;&nbsp;&nbsp;&nbsp;&nbsp;&nbsp;&nbsp;&nbsp;&nbsp;2&nbsp;&nbsp;&nbsp;&nbsp;&nbsp;&nbsp;&nbsp;&nbsp;&nbsp;&nbsp;&nbsp;&nbsp;&nbsp;&nbsp;&nbsp;&nbsp;&nbsp;&nbsp;&nbsp;3&nbsp;&nbsp;&nbsp;&nbsp;&nbsp;&nbsp;&nbsp;&nbsp;&nbsp;&nbsp;&nbsp;&nbsp;&nbsp;&nbsp;&nbsp;&nbsp;&nbsp;&nbsp;&nbsp;4</p><p style=""font-size:14px"">Not at all familiar&nbsp;&nbsp;&nbsp;&nbsp;A little familiar&nbsp;&nbsp;&nbsp;Moderately familiar&nbsp;&nbsp;&nbsp;Extremely familiar</p><p>(press the corresponding number on your keyboard)</p>","","51","","","FAM-RESPONSE","","","","","","","","","","","","","","","","","","","sounds/B/FAM/P001.mp3","partword","","","","","","","","","","","","","","","","","","",""
"html-keyboard-response","243","2493477","0.0-7.0-1.0-0.1","2","1","oyymtbjummop09d","","null","","","","null","","","","","","","","","","","","","","","","","","","","","","","","","","","","","","","","","","","","","","","","","",""
"audio-keyboard-response","244","2494419","0.0-7.0-1.0-1.1","2","1","oyymtbjummop09d","","null","","sounds/B/FAM/N001.mp3","","null","","","","","","","","","","","","","","","","","","","","","","","","","","","","","","","","","","","","","","","","","",""
"html-keyboard-response","245","2495766","0.0-7.0-1.0-2.1","2","1","oyymtbjummop09d","","844.1999998092651","","<p>How familiar did this sound to you?</p><p>1&nbsp;&nbsp;&nbsp;&nbsp;&nbsp;&nbsp;&nbsp;&nbsp;&nbsp;&nbsp;&nbsp;&nbsp;&nbsp;&nbsp;&nbsp;&nbsp;&nbsp;&nbsp;&nbsp;2&nbsp;&nbsp;&nbsp;&nbsp;&nbsp;&nbsp;&nbsp;&nbsp;&nbsp;&nbsp;&nbsp;&nbsp;&nbsp;&nbsp;&nbsp;&nbsp;&nbsp;&nbsp;&nbsp;3&nbsp;&nbsp;&nbsp;&nbsp;&nbsp;&nbsp;&nbsp;&nbsp;&nbsp;&nbsp;&nbsp;&nbsp;&nbsp;&nbsp;&nbsp;&nbsp;&nbsp;&nbsp;&nbsp;4</p><p style=""font-size:14px"">Not at all familiar&nbsp;&nbsp;&nbsp;&nbsp;A little familiar&nbsp;&nbsp;&nbsp;Moderately familiar&nbsp;&nbsp;&nbsp;Extremely familiar</p><p>(press the corresponding number on your keyboard)</p>","","50","","","FAM-RESPONSE","","","","","","","","","","","","","","","","","","","sounds/B/FAM/N001.mp3","nonword","","","","","","","","","","","","","","","","","","",""
"html-keyboard-response","246","2497771","0.0-7.0-1.0-0.2","2","1","oyymtbjummop09d","","null","","","","null","","","","","","","","","","","","","","","","","","","","","","","","","","","","","","","","","","","","","","","","","",""
"audio-keyboard-response","247","2498717","0.0-7.0-1.0-1.2","2","1","oyymtbjummop09d","","null","","sounds/B/FAM/P003.mp3","","null","","","","","","","","","","","","","","","","","","","","","","","","","","","","","","","","","","","","","","","","","",""
"html-keyboard-response","248","2499765","0.0-7.0-1.0-2.2","2","1","oyymtbjummop09d","","544.2000002861023","","<p>How familiar did this sound to you?</p><p>1&nbsp;&nbsp;&nbsp;&nbsp;&nbsp;&nbsp;&nbsp;&nbsp;&nbsp;&nbsp;&nbsp;&nbsp;&nbsp;&nbsp;&nbsp;&nbsp;&nbsp;&nbsp;&nbsp;2&nbsp;&nbsp;&nbsp;&nbsp;&nbsp;&nbsp;&nbsp;&nbsp;&nbsp;&nbsp;&nbsp;&nbsp;&nbsp;&nbsp;&nbsp;&nbsp;&nbsp;&nbsp;&nbsp;3&nbsp;&nbsp;&nbsp;&nbsp;&nbsp;&nbsp;&nbsp;&nbsp;&nbsp;&nbsp;&nbsp;&nbsp;&nbsp;&nbsp;&nbsp;&nbsp;&nbsp;&nbsp;&nbsp;4</p><p style=""font-size:14px"">Not at all familiar&nbsp;&nbsp;&nbsp;&nbsp;A little familiar&nbsp;&nbsp;&nbsp;Moderately familiar&nbsp;&nbsp;&nbsp;Extremely familiar</p><p>(press the corresponding number on your keyboard)</p>","","50","","","FAM-RESPONSE","","","","","","","","","","","","","","","","","","","sounds/B/FAM/P003.mp3","partword","","","","","","","","","","","","","","","","","","",""
"html-keyboard-response","249","2501768","0.0-7.0-1.0-0.3","2","1","oyymtbjummop09d","","null","","","","null","","","","","","","","","","","","","","","","","","","","","","","","","","","","","","","","","","","","","","","","","",""
"audio-keyboard-response","250","2502712","0.0-7.0-1.0-1.3","2","1","oyymtbjummop09d","","null","","sounds/B/FAM/N004.mp3","","null","","","","","","","","","","","","","","","","","","","","","","","","","","","","","","","","","","","","","","","","","",""
"html-keyboard-response","251","2503600","0.0-7.0-1.0-2.3","2","1","oyymtbjummop09d","","383.90000009536743","","<p>How familiar did this sound to you?</p><p>1&nbsp;&nbsp;&nbsp;&nbsp;&nbsp;&nbsp;&nbsp;&nbsp;&nbsp;&nbsp;&nbsp;&nbsp;&nbsp;&nbsp;&nbsp;&nbsp;&nbsp;&nbsp;&nbsp;2&nbsp;&nbsp;&nbsp;&nbsp;&nbsp;&nbsp;&nbsp;&nbsp;&nbsp;&nbsp;&nbsp;&nbsp;&nbsp;&nbsp;&nbsp;&nbsp;&nbsp;&nbsp;&nbsp;3&nbsp;&nbsp;&nbsp;&nbsp;&nbsp;&nbsp;&nbsp;&nbsp;&nbsp;&nbsp;&nbsp;&nbsp;&nbsp;&nbsp;&nbsp;&nbsp;&nbsp;&nbsp;&nbsp;4</p><p style=""font-size:14px"">Not at all familiar&nbsp;&nbsp;&nbsp;&nbsp;A little familiar&nbsp;&nbsp;&nbsp;Moderately familiar&nbsp;&nbsp;&nbsp;Extremely familiar</p><p>(press the corresponding number on your keyboard)</p>","","49","","","FAM-RESPONSE","","","","","","","","","","","","","","","","","","","sounds/B/FAM/N004.mp3","nonword","","","","","","","","","","","","","","","","","","",""
"html-keyboard-response","252","2505604","0.0-7.0-1.0-0.4","2","1","oyymtbjummop09d","","null","","","","null","","","","","","","","","","","","","","","","","","","","","","","","","","","","","","","","","","","","","","","","","",""
"audio-keyboard-response","253","2506547","0.0-7.0-1.0-1.4","2","1","oyymtbjummop09d","","null","","sounds/B/FAM/W002.mp3","","null","","","","","","","","","","","","","","","","","","","","","","","","","","","","","","","","","","","","","","","","","",""
"html-keyboard-response","254","2508144","0.0-7.0-1.0-2.4","2","1","oyymtbjummop09d","","1091.6999998092651","","<p>How familiar did this sound to you?</p><p>1&nbsp;&nbsp;&nbsp;&nbsp;&nbsp;&nbsp;&nbsp;&nbsp;&nbsp;&nbsp;&nbsp;&nbsp;&nbsp;&nbsp;&nbsp;&nbsp;&nbsp;&nbsp;&nbsp;2&nbsp;&nbsp;&nbsp;&nbsp;&nbsp;&nbsp;&nbsp;&nbsp;&nbsp;&nbsp;&nbsp;&nbsp;&nbsp;&nbsp;&nbsp;&nbsp;&nbsp;&nbsp;&nbsp;3&nbsp;&nbsp;&nbsp;&nbsp;&nbsp;&nbsp;&nbsp;&nbsp;&nbsp;&nbsp;&nbsp;&nbsp;&nbsp;&nbsp;&nbsp;&nbsp;&nbsp;&nbsp;&nbsp;4</p><p style=""font-size:14px"">Not at all familiar&nbsp;&nbsp;&nbsp;&nbsp;A little familiar&nbsp;&nbsp;&nbsp;Moderately familiar&nbsp;&nbsp;&nbsp;Extremely familiar</p><p>(press the corresponding number on your keyboard)</p>","","51","","","FAM-RESPONSE","","","","","","","","","","","","","","","","","","","sounds/B/FAM/W002.mp3","word","","","","","","","","","","","","","","","","","","",""
"html-keyboard-response","255","2510148","0.0-7.0-1.0-0.5","2","1","oyymtbjummop09d","","null","","","","null","","","","","","","","","","","","","","","","","","","","","","","","","","","","","","","","","","","","","","","","","",""
"audio-keyboard-response","256","2511091","0.0-7.0-1.0-1.5","2","1","oyymtbjummop09d","","null","","sounds/B/FAM/P002.mp3","","null","","","","","","","","","","","","","","","","","","","","","","","","","","","","","","","","","","","","","","","","","",""
"html-keyboard-response","257","2512293","0.0-7.0-1.0-2.5","2","1","oyymtbjummop09d","","695.9000000953674","","<p>How familiar did this sound to you?</p><p>1&nbsp;&nbsp;&nbsp;&nbsp;&nbsp;&nbsp;&nbsp;&nbsp;&nbsp;&nbsp;&nbsp;&nbsp;&nbsp;&nbsp;&nbsp;&nbsp;&nbsp;&nbsp;&nbsp;2&nbsp;&nbsp;&nbsp;&nbsp;&nbsp;&nbsp;&nbsp;&nbsp;&nbsp;&nbsp;&nbsp;&nbsp;&nbsp;&nbsp;&nbsp;&nbsp;&nbsp;&nbsp;&nbsp;3&nbsp;&nbsp;&nbsp;&nbsp;&nbsp;&nbsp;&nbsp;&nbsp;&nbsp;&nbsp;&nbsp;&nbsp;&nbsp;&nbsp;&nbsp;&nbsp;&nbsp;&nbsp;&nbsp;4</p><p style=""font-size:14px"">Not at all familiar&nbsp;&nbsp;&nbsp;&nbsp;A little familiar&nbsp;&nbsp;&nbsp;Moderately familiar&nbsp;&nbsp;&nbsp;Extremely familiar</p><p>(press the corresponding number on your keyboard)</p>","","51","","","FAM-RESPONSE","","","","","","","","","","","","","","","","","","","sounds/B/FAM/P002.mp3","partword","","","","","","","","","","","","","","","","","","",""
"html-keyboard-response","258","2514303","0.0-7.0-1.0-0.6","2","1","oyymtbjummop09d","","null","","","","null","","","","","","","","","","","","","","","","","","","","","","","","","","","","","","","","","","","","","","","","","",""
"audio-keyboard-response","259","2515245","0.0-7.0-1.0-1.6","2","1","oyymtbjummop09d","","null","","sounds/B/FAM/W004.mp3","","null","","","","","","","","","","","","","","","","","","","","","","","","","","","","","","","","","","","","","","","","","",""
"html-keyboard-response","260","2517237","0.0-7.0-1.0-2.6","2","1","oyymtbjummop09d","","1489","","<p>How familiar did this sound to you?</p><p>1&nbsp;&nbsp;&nbsp;&nbsp;&nbsp;&nbsp;&nbsp;&nbsp;&nbsp;&nbsp;&nbsp;&nbsp;&nbsp;&nbsp;&nbsp;&nbsp;&nbsp;&nbsp;&nbsp;2&nbsp;&nbsp;&nbsp;&nbsp;&nbsp;&nbsp;&nbsp;&nbsp;&nbsp;&nbsp;&nbsp;&nbsp;&nbsp;&nbsp;&nbsp;&nbsp;&nbsp;&nbsp;&nbsp;3&nbsp;&nbsp;&nbsp;&nbsp;&nbsp;&nbsp;&nbsp;&nbsp;&nbsp;&nbsp;&nbsp;&nbsp;&nbsp;&nbsp;&nbsp;&nbsp;&nbsp;&nbsp;&nbsp;4</p><p style=""font-size:14px"">Not at all familiar&nbsp;&nbsp;&nbsp;&nbsp;A little familiar&nbsp;&nbsp;&nbsp;Moderately familiar&nbsp;&nbsp;&nbsp;Extremely familiar</p><p>(press the corresponding number on your keyboard)</p>","","50","","","FAM-RESPONSE","","","","","","","","","","","","","","","","","","","sounds/B/FAM/W004.mp3","word","","","","","","","","","","","","","","","","","","",""
"html-keyboard-response","261","2519243","0.0-7.0-1.0-0.7","2","1","oyymtbjummop09d","","null","","","","null","","","","","","","","","","","","","","","","","","","","","","","","","","","","","","","","","","","","","","","","","",""
"audio-keyboard-response","262","2520184","0.0-7.0-1.0-1.7","2","1","oyymtbjummop09d","","null","","sounds/B/FAM/N003.mp3","","null","","","","","","","","","","","","","","","","","","","","","","","","","","","","","","","","","","","","","","","","","",""
"html-keyboard-response","263","2522441","0.0-7.0-1.0-2.7","2","1","oyymtbjummop09d","","1754.0999999046326","","<p>How familiar did this sound to you?</p><p>1&nbsp;&nbsp;&nbsp;&nbsp;&nbsp;&nbsp;&nbsp;&nbsp;&nbsp;&nbsp;&nbsp;&nbsp;&nbsp;&nbsp;&nbsp;&nbsp;&nbsp;&nbsp;&nbsp;2&nbsp;&nbsp;&nbsp;&nbsp;&nbsp;&nbsp;&nbsp;&nbsp;&nbsp;&nbsp;&nbsp;&nbsp;&nbsp;&nbsp;&nbsp;&nbsp;&nbsp;&nbsp;&nbsp;3&nbsp;&nbsp;&nbsp;&nbsp;&nbsp;&nbsp;&nbsp;&nbsp;&nbsp;&nbsp;&nbsp;&nbsp;&nbsp;&nbsp;&nbsp;&nbsp;&nbsp;&nbsp;&nbsp;4</p><p style=""font-size:14px"">Not at all familiar&nbsp;&nbsp;&nbsp;&nbsp;A little familiar&nbsp;&nbsp;&nbsp;Moderately familiar&nbsp;&nbsp;&nbsp;Extremely familiar</p><p>(press the corresponding number on your keyboard)</p>","","50","","","FAM-RESPONSE","","","","","","","","","","","","","","","","","","","sounds/B/FAM/N003.mp3","nonword","","","","","","","","","","","","","","","","","","",""
"html-keyboard-response","264","2524447","0.0-7.0-1.0-0.8","2","1","oyymtbjummop09d","","null","","","","null","","","","","","","","","","","","","","","","","","","","","","","","","","","","","","","","","","","","","","","","","",""
"audio-keyboard-response","265","2525389","0.0-7.0-1.0-1.8","2","1","oyymtbjummop09d","","null","","sounds/B/FAM/W003.mp3","","null","","","","","","","","","","","","","","","","","","","","","","","","","","","","","","","","","","","","","","","","","",""
"html-keyboard-response","266","2527743","0.0-7.0-1.0-2.8","2","1","oyymtbjummop09d","","1851.3000001907349","","<p>How familiar did this sound to you?</p><p>1&nbsp;&nbsp;&nbsp;&nbsp;&nbsp;&nbsp;&nbsp;&nbsp;&nbsp;&nbsp;&nbsp;&nbsp;&nbsp;&nbsp;&nbsp;&nbsp;&nbsp;&nbsp;&nbsp;2&nbsp;&nbsp;&nbsp;&nbsp;&nbsp;&nbsp;&nbsp;&nbsp;&nbsp;&nbsp;&nbsp;&nbsp;&nbsp;&nbsp;&nbsp;&nbsp;&nbsp;&nbsp;&nbsp;3&nbsp;&nbsp;&nbsp;&nbsp;&nbsp;&nbsp;&nbsp;&nbsp;&nbsp;&nbsp;&nbsp;&nbsp;&nbsp;&nbsp;&nbsp;&nbsp;&nbsp;&nbsp;&nbsp;4</p><p style=""font-size:14px"">Not at all familiar&nbsp;&nbsp;&nbsp;&nbsp;A little familiar&nbsp;&nbsp;&nbsp;Moderately familiar&nbsp;&nbsp;&nbsp;Extremely familiar</p><p>(press the corresponding number on your keyboard)</p>","","50","","","FAM-RESPONSE","","","","","","","","","","","","","","","","","","","sounds/B/FAM/W003.mp3","word","","","","","","","","","","","","","","","","","","",""
"html-keyboard-response","267","2529748","0.0-7.0-1.0-0.9","2","1","oyymtbjummop09d","","null","","","","null","","","","","","","","","","","","","","","","","","","","","","","","","","","","","","","","","","","","","","","","","",""
"audio-keyboard-response","268","2530690","0.0-7.0-1.0-1.9","2","1","oyymtbjummop09d","","null","","sounds/B/FAM/P004.mp3","","null","","","","","","","","","","","","","","","","","","","","","","","","","","","","","","","","","","","","","","","","","",""
"html-keyboard-response","269","2531377","0.0-7.0-1.0-2.9","2","1","oyymtbjummop09d","","181.7999997138977","","<p>How familiar did this sound to you?</p><p>1&nbsp;&nbsp;&nbsp;&nbsp;&nbsp;&nbsp;&nbsp;&nbsp;&nbsp;&nbsp;&nbsp;&nbsp;&nbsp;&nbsp;&nbsp;&nbsp;&nbsp;&nbsp;&nbsp;2&nbsp;&nbsp;&nbsp;&nbsp;&nbsp;&nbsp;&nbsp;&nbsp;&nbsp;&nbsp;&nbsp;&nbsp;&nbsp;&nbsp;&nbsp;&nbsp;&nbsp;&nbsp;&nbsp;3&nbsp;&nbsp;&nbsp;&nbsp;&nbsp;&nbsp;&nbsp;&nbsp;&nbsp;&nbsp;&nbsp;&nbsp;&nbsp;&nbsp;&nbsp;&nbsp;&nbsp;&nbsp;&nbsp;4</p><p style=""font-size:14px"">Not at all familiar&nbsp;&nbsp;&nbsp;&nbsp;A little familiar&nbsp;&nbsp;&nbsp;Moderately familiar&nbsp;&nbsp;&nbsp;Extremely familiar</p><p>(press the corresponding number on your keyboard)</p>","","50","","","FAM-RESPONSE","","","","","","","","","","","","","","","","","","","sounds/B/FAM/P004.mp3","partword","","","","","","","","","","","","","","","","","","",""
"html-keyboard-response","270","2533382","0.0-7.0-1.0-0.10","2","1","oyymtbjummop09d","","null","","","","null","","","","","","","","","","","","","","","","","","","","","","","","","","","","","","","","","","","","","","","","","",""
"audio-keyboard-response","271","2534328","0.0-7.0-1.0-1.10","2","1","oyymtbjummop09d","","null","","sounds/B/FAM/W001.mp3","","null","","","","","","","","","","","","","","","","","","","","","","","","","","","","","","","","","","","","","","","","","",""
"html-keyboard-response","272","2534925","0.0-7.0-1.0-2.10","2","1","oyymtbjummop09d","","94.69999980926514","","<p>How familiar did this sound to you?</p><p>1&nbsp;&nbsp;&nbsp;&nbsp;&nbsp;&nbsp;&nbsp;&nbsp;&nbsp;&nbsp;&nbsp;&nbsp;&nbsp;&nbsp;&nbsp;&nbsp;&nbsp;&nbsp;&nbsp;2&nbsp;&nbsp;&nbsp;&nbsp;&nbsp;&nbsp;&nbsp;&nbsp;&nbsp;&nbsp;&nbsp;&nbsp;&nbsp;&nbsp;&nbsp;&nbsp;&nbsp;&nbsp;&nbsp;3&nbsp;&nbsp;&nbsp;&nbsp;&nbsp;&nbsp;&nbsp;&nbsp;&nbsp;&nbsp;&nbsp;&nbsp;&nbsp;&nbsp;&nbsp;&nbsp;&nbsp;&nbsp;&nbsp;4</p><p style=""font-size:14px"">Not at all familiar&nbsp;&nbsp;&nbsp;&nbsp;A little familiar&nbsp;&nbsp;&nbsp;Moderately familiar&nbsp;&nbsp;&nbsp;Extremely familiar</p><p>(press the corresponding number on your keyboard)</p>","","50","","","FAM-RESPONSE","","","","","","","","","","","","","","","","","","","sounds/B/FAM/W001.mp3","word","","","","","","","","","","","","","","","","","","",""
"html-keyboard-response","273","2536936","0.0-7.0-1.0-0.11","2","1","oyymtbjummop09d","","null","","","","null","","","","","","","","","","","","","","","","","","","","","","","","","","","","","","","","","","","","","","","","","",""
"audio-keyboard-response","274","2537880","0.0-7.0-1.0-1.11","2","1","oyymtbjummop09d","","null","","sounds/B/FAM/N002.mp3","","null","","","","","","","","","","","","","","","","","","","","","","","","","","","","","","","","","","","","","","","","","",""
"html-keyboard-response","275","2538411","0.0-7.0-1.0-2.11","2","1","oyymtbjummop09d","","28","","<p>How familiar did this sound to you?</p><p>1&nbsp;&nbsp;&nbsp;&nbsp;&nbsp;&nbsp;&nbsp;&nbsp;&nbsp;&nbsp;&nbsp;&nbsp;&nbsp;&nbsp;&nbsp;&nbsp;&nbsp;&nbsp;&nbsp;2&nbsp;&nbsp;&nbsp;&nbsp;&nbsp;&nbsp;&nbsp;&nbsp;&nbsp;&nbsp;&nbsp;&nbsp;&nbsp;&nbsp;&nbsp;&nbsp;&nbsp;&nbsp;&nbsp;3&nbsp;&nbsp;&nbsp;&nbsp;&nbsp;&nbsp;&nbsp;&nbsp;&nbsp;&nbsp;&nbsp;&nbsp;&nbsp;&nbsp;&nbsp;&nbsp;&nbsp;&nbsp;&nbsp;4</p><p style=""font-size:14px"">Not at all familiar&nbsp;&nbsp;&nbsp;&nbsp;A little familiar&nbsp;&nbsp;&nbsp;Moderately familiar&nbsp;&nbsp;&nbsp;Extremely familiar</p><p>(press the corresponding number on your keyboard)</p>","","49","","","FAM-RESPONSE","","","","","","","","","","","","","","","","","","","sounds/B/FAM/N002.mp3","nonword","","","","","","","","","","","","","","","","","","",""
"html-button-response","276","2550173","0.0-8.0-0.0","2","1","oyymtbjummop09d","","10756.299999713898","","<p>You will now listen to longer sound sequences.</p><p>Each sound sequence will last about 16 seconds.</p><p>On each trial, you will be given a <u>TARGET SOUND</u>. Your task is to listen very carefully for this sound.</p><p>Every time you hear the <u>TARGET SOUND</u>, you will press the <b>SPACEBAR</b> as quickly and accurately as you can.</p>","0","","","","","","","","","","","","","","","","","","","","","","","","","","","","","","","","","","","","","","","","","","",""
"html-button-response","277","2665741","0.0-8.0-1.0","2","1","oyymtbjummop09d","","115315.59999990463","","<p>It is very important that you make your responses as quickly and accurately as possible.</p><p>To help you make your responses, you will be able to listen to the <u>TARGET SOUND</u> at the beginning of each trial.</p><p>There will be 36 total trials.</p><p><b>Note: This is meant to be a difficult task. We simply want you to try your best.</p>","0","","","","","","","","","","","","","","","","","","","","","","","","","","","","","","","","","","","","","","","","","","",""
"html-button-response","278","2668749","0.0-8.0-2.0-0.0","2","1","oyymtbjummop09d","","2750.7000002861023","","<p>Trial 1 of 36</p>","0","","","","","","","","","","","","","","","","","","","","","","","","","TA","sounds/syllables/ta_SWS.wav","1500,5100,9600,13200","3","","","","","","","","","","","","","","",""
"html-keyboard-response","279","2672634","0.0-8.0-2.0-1.0","2","1","oyymtbjummop09d","","3884.300000190735","","","","80","","","","","","","","","","","","","","","","","","","","","","","","TA","","1500,5100,9600,13200","3","","","","","","","","","","","","","","",""
"audio-keyboard-response","280","2673309","0.0-8.0-2.0-2.0-0.0","2","1","oyymtbjummop09d","","null","","sounds/syllables/ta_SWS.wav","","null","","","","","","","","","","","","","","","","","","","","","","","","","","","","","","","","","","","","","","","","","",""
"html-keyboard-response","281","2676585","0.0-8.0-2.0-2.0-1.0","2","1","oyymtbjummop09d","","3274.7999997138977","","<p>To replay the <u>TARGET SOUND</u>, press P.</p> When you are ready to begin, press SPACEBAR.","","80","","","","","","","","","","","","","","","","","","","","","","","","","","","","","","","","","","","","","","","","","",""
"audio-keyboard-response","282","2677388","0.0-8.0-2.0-2.1-0.1","2","1","oyymtbjummop09d","","null","","sounds/syllables/ta_SWS.wav","","null","","","","","","","","","","","","","","","","","","","","","","","","","","","","","","","","","","","","","","","","","",""
"html-keyboard-response","283","2679227","0.0-8.0-2.0-2.1-1.1","2","1","oyymtbjummop09d","","1837.3000001907349","","<p>To replay the <u>TARGET SOUND</u>, press P.</p> When you are ready to begin, press SPACEBAR.","","32","","","","","","","","","","","","","","","","","","","","","","","","","","","","","","","","","","","","","","","","","",""
"audio-keyboard-response","284","2694173","0.0-8.0-2.0-3.0","2","1","oyymtbjummop09d","","2256","","sounds/B/TD/TA_07_TD.mp3","","32","","","TD_SUMMARY","","","","","","","","","","","","","","","","","","","","","TA","","1500,5100,9600,13200","3","1500","5100","9600","13200","753.7000002861023","null","null","null","2253.7000002861023_3640.4000000953674_7809.700000286102_11493.700000286102_12748.900000095367","2","","","","",""
"html-button-response","285","2701267","0.0-8.0-2.0-0.1","2","1","oyymtbjummop09d","","7091.5","","<p>Trial 2 of 36</p>","0","","","","","","","","","","","","","","","","","","","","","","","","","TA","sounds/syllables/ta_SWS.wav","1500,4200,6900,9600","3","","","","","","","","","","","","","","",""
"html-keyboard-response","286","2703676","0.0-8.0-2.0-1.1","2","1","oyymtbjummop09d","","2406.0999999046326","","","","80","","","","","","","","","","","","","","","","","","","","","","","","TA","","1500,4200,6900,9600","3","","","","","","","","","","","","","","",""
"audio-keyboard-response","287","2703980","0.0-8.0-2.0-2.2-0.2","2","1","oyymtbjummop09d","","null","","sounds/syllables/ta_SWS.wav","","null","","","","","","","","","","","","","","","","","","","","","","","","","","","","","","","","","","","","","","","","","",""
"html-keyboard-response","288","2708024","0.0-8.0-2.0-2.2-1.2","2","1","oyymtbjummop09d","","4042.9000000953674","","<p>To replay the <u>TARGET SOUND</u>, press P.</p> When you are ready to begin, press SPACEBAR.","","80","","","","","","","","","","","","","","","","","","","","","","","","","","","","","","","","","","","","","","","","","",""
"audio-keyboard-response","289","2708828","0.0-8.0-2.0-2.3-0.3","2","1","oyymtbjummop09d","","null","","sounds/syllables/ta_SWS.wav","","null","","","","","","","","","","","","","","","","","","","","","","","","","","","","","","","","","","","","","","","","","",""
"html-keyboard-response","290","2710190","0.0-8.0-2.0-2.3-1.3","2","1","oyymtbjummop09d","","1360.5999999046326","","<p>To replay the <u>TARGET SOUND</u>, press P.</p> When you are ready to begin, press SPACEBAR.","","32","","","","","","","","","","","","","","","","","","","","","","","","","","","","","","","","","","","","","","","","","",""
"audio-keyboard-response","291","2725143","0.0-8.0-2.0-3.1","2","1","oyymtbjummop09d","","2181","","sounds/B/TD/TA_04_TD.mp3","","32","","","TD_SUMMARY","","","","","","","","","","","","","","","","","","","","","TA","","1500,4200,6900,9600","3","1500","4200","6900","9600","682.5999999046326","681","1187","1188","_____2182.5999999046326_3647.199999809265_4881_6342.599999904633_8087_10788_14084.900000095367","2","","","","",""
"html-button-response","292","2726784","0.0-8.0-2.0-0.2","2","1","oyymtbjummop09d","","1637.3999996185303","","<p>Trial 3 of 36</p>","0","","","","","","","","","","","","","","","","","","","","","","","","","FE","sounds/syllables/fe_SWS.wav","1500,3300,6000,8700","3","","","","","","","","","","","","","","",""
"html-keyboard-response","293","2728128","0.0-8.0-2.0-1.2","2","1","oyymtbjummop09d","","1342","","","","80","","","","","","","","","","","","","","","","","","","","","","","","FE","","1500,3300,6000,8700","3","","","","","","","","","","","","","","",""
"audio-keyboard-response","294","2728428","0.0-8.0-2.0-2.4-0.4","2","1","oyymtbjummop09d","","null","","sounds/syllables/fe_SWS.wav","","null","","","","","","","","","","","","","","","","","","","","","","","","","","","","","","","","","","","","","","","","","",""
"html-keyboard-response","295","2729316","0.0-8.0-2.0-2.4-1.4","2","1","oyymtbjummop09d","","887.5999999046326","","<p>To replay the <u>TARGET SOUND</u>, press P.</p> When you are ready to begin, press SPACEBAR.","","80","","","","","","","","","","","","","","","","","","","","","","","","","","","","","","","","","","","","","","","","","",""
"audio-keyboard-response","296","2730118","0.0-8.0-2.0-2.5-0.5","2","1","oyymtbjummop09d","","null","","sounds/syllables/fe_SWS.wav","","null","","","","","","","","","","","","","","","","","","","","","","","","","","","","","","","","","","","","","","","","","",""
"html-keyboard-response","297","2730968","0.0-8.0-2.0-2.5-1.5","2","1","oyymtbjummop09d","","848.5","","<p>To replay the <u>TARGET SOUND</u>, press P.</p> When you are ready to begin, press SPACEBAR.","","80","","","","","","","","","","","","","","","","","","","","","","","","","","","","","","","","","","","","","","","","","",""
"audio-keyboard-response","298","2731772","0.0-8.0-2.0-2.6-0.6","2","1","oyymtbjummop09d","","null","","sounds/syllables/fe_SWS.wav","","null","","","","","","","","","","","","","","","","","","","","","","","","","","","","","","","","","","","","","","","","","",""
"html-keyboard-response","299","2732234","0.0-8.0-2.0-2.6-1.6","2","1","oyymtbjummop09d","","461.2999997138977","","<p>To replay the <u>TARGET SOUND</u>, press P.</p> When you are ready to begin, press SPACEBAR.","","32","","","","","","","","","","","","","","","","","","","","","","","","","","","","","","","","","","","","","","","","","",""
"audio-keyboard-response","300","2747180","0.0-8.0-2.0-3.2","2","1","oyymtbjummop09d","","843","","sounds/B/TD/FE_02_TD.mp3","","32","","","TD_SUMMARY","","","","","","","","","","","","","","","","","","","","","FE","","1500,3300,6000,8700","3","1500","3300","6000","8700","731.6000003814697","374.7000002861023","null","430.2000002861023","____________843.6000003814697_2231.6000003814697_3674.7000002861023_9130.200000286102_13385.10000038147","3","","","","",""
"html-button-response","301","2748830","0.0-8.0-2.0-0.3","2","1","oyymtbjummop09d","","1647.1999998092651","","<p>Trial 4 of 36</p>","0","","","","","","","","","","","","","","","","","","","","","","","","","TI","sounds/syllables/ti_SWS.wav","1800,4500,9900,12600","1","","","","","","","","","","","","","","",""
"html-keyboard-response","302","2749737","0.0-8.0-2.0-1.3","2","1","oyymtbjummop09d","","905.3000001907349","","","","80","","","","","","","","","","","","","","","","","","","","","","","","TI","","1800,4500,9900,12600","1","","","","","","","","","","","","","","",""
"audio-keyboard-response","303","2750038","0.0-8.0-2.0-2.7-0.7","2","1","oyymtbjummop09d","","null","","sounds/syllables/ti_SWS.wav","","null","","","","","","","","","","","","","","","","","","","","","","","","","","","","","","","","","","","","","","","","","",""
"html-keyboard-response","304","2750666","0.0-8.0-2.0-2.7-1.7","2","1","oyymtbjummop09d","","626.9000000953674","","<p>To replay the <u>TARGET SOUND</u>, press P.</p> When you are ready to begin, press SPACEBAR.","","80","","","","","","","","","","","","","","","","","","","","","","","","","","","","","","","","","","","","","","","","","",""
"audio-keyboard-response","305","2751473","0.0-8.0-2.0-2.8-0.8","2","1","oyymtbjummop09d","","null","","sounds/syllables/ti_SWS.wav","","null","","","","","","","","","","","","","","","","","","","","","","","","","","","","","","","","","","","","","","","","","",""
"html-keyboard-response","306","2752006","0.0-8.0-2.0-2.8-1.8","2","1","oyymtbjummop09d","","532","","<p>To replay the <u>TARGET SOUND</u>, press P.</p> When you are ready to begin, press SPACEBAR.","","32","","","","","","","","","","","","","","","","","","","","","","","","","","","","","","","","","","","","","","","","","",""
"audio-keyboard-response","307","2766956","0.0-8.0-2.0-3.3","2","1","oyymtbjummop09d","","1749","","sounds/B/TD/TI_06_TD.mp3","","32","","","TD_SUMMARY","","","","","","","","","","","","","","","","","","","","","TI","","1800,4500,9900,12600","1","1800","4500","9900","12600","null","null","null","null","_________________1748.5999999046326_3699_5800.599999904633","2","","","","",""
"html-button-response","308","2768639","0.0-8.0-2.0-0.4","2","1","oyymtbjummop09d","","1680.2999997138977","","<p>Trial 5 of 36</p>","0","","","","","","","","","","","","","","","","","","","","","","","","","ME","sounds/syllables/me_SWS.wav","3000,9300,11100,12900","2","","","","","","","","","","","","","","",""
"html-keyboard-response","309","2769765","0.0-8.0-2.0-1.4","2","1","oyymtbjummop09d","","1124.8000001907349","","","","80","","","","","","","","","","","","","","","","","","","","","","","","ME","","3000,9300,11100,12900","2","","","","","","","","","","","","","","",""
"audio-keyboard-response","310","2770070","0.0-8.0-2.0-2.9-0.9","2","1","oyymtbjummop09d","","null","","sounds/syllables/me_SWS.wav","","null","","","","","","","","","","","","","","","","","","","","","","","","","","","","","","","","","","","","","","","","","",""
"html-keyboard-response","311","2770789","0.0-8.0-2.0-2.9-1.9","2","1","oyymtbjummop09d","","718","","<p>To replay the <u>TARGET SOUND</u>, press P.</p> When you are ready to begin, press SPACEBAR.","","80","","","","","","","","","","","","","","","","","","","","","","","","","","","","","","","","","","","","","","","","","",""
"audio-keyboard-response","312","2771595","0.0-8.0-2.0-2.10-0.10","2","1","oyymtbjummop09d","","null","","sounds/syllables/me_SWS.wav","","null","","","","","","","","","","","","","","","","","","","","","","","","","","","","","","","","","","","","","","","","","",""
"html-keyboard-response","313","2772067","0.0-8.0-2.0-2.10-1.10","2","1","oyymtbjummop09d","","471.09999990463257","","<p>To replay the <u>TARGET SOUND</u>, press P.</p> When you are ready to begin, press SPACEBAR.","","32","","","","","","","","","","","","","","","","","","","","","","","","","","","","","","","","","","","","","","","","","",""
"audio-keyboard-response","314","2787014","0.0-8.0-2.0-3.4","2","1","oyymtbjummop09d","","2923","","sounds/B/TD/ME_05_TD.mp3","","32","","","TD_SUMMARY","","","","","","","","","","","","","","","","","","","","","ME","","3000,9300,11100,12900","2","3000","9300","11100","12900","null","null","523.9000000953674","null","____________________2920.9000000953674_6299.700000286102_8565.300000190735_11623.900000095367","2","","","","",""
"html-button-response","315","2788276","0.0-8.0-2.0-0.5","2","1","oyymtbjummop09d","","1259.0999999046326","","<p>Trial 6 of 36</p>","0","","","","","","","","","","","","","","","","","","","","","","","","","PU","sounds/syllables/pu_SWS.wav","1800,4500,6300,11700","1","","","","","","","","","","","","","","",""
