"trial_type","trial_index","time_elapsed","internal_node_id","counterbalance","lang_instruct","ParticipantID","view_history","rt","url","stimulus","button_pressed","key_press","correctRESP","correct","designation","location","correctanswer","timeouts","pause_rt01","pause_rt02","train_file","numKeyPress","sound","fam_type","SYLLABLE","EXEMPLAR","TD_LOCS","TD_TYPE","TDLOC_01","TDLOC_02","TDLOC_03","TDLOC_04","TD_RT_01","TD_RT_02","TD_RT_03","TD_RT_04","TD_SUBJ_RTs","number_of_plays","responses","slider_start","response","question_order","syllable","syllable_type"
"pavlovia","0","4","0.0-0.0","1","0","ku7e6ahkgc8s7r0","","","","","","","","","","","","","","","","","","","","","","","","","","","","","","","","","","","","","",""
"instructions","1","476459","0.0-1.0","1","0","ku7e6ahkgc8s7r0","[{""page_index"":0,""viewing_time"":468985.7999999523},{""page_index"":1,""viewing_time"":7463}]","476454.2000000477","","","","","","","","","","","","","","","","","","","","","","","","","","","","","","","","","","","",""
"external-html","2","480177","0.0-2.0","1","0","ku7e6ahkgc8s7r0","","3544.2000000476837","consent/consent.html","","","","","","","","","","","","","","","","","","","","","","","","","","","","","","","","","","",""
"html-button-response","3","482479","0.0-3.0-0.0-0.0","1","0","ku7e6ahkgc8s7r0","","2299.2000000476837","","<p>Welcome to the study. You will first complete a short volume calibration and headphone check.</p><p>Please make sure you are in a quiet listening environment, that you are wearing headphones, and that your computer's volume is turned on.<p></p>","0","","","","","","","","","","","","","","","","","","","","","","","","","","","","","","","","",""
"html-button-response","4","484643","0.0-3.0-0.0-1.0","1","0","ku7e6ahkgc8s7r0","","1902.8999999761581","","<p>The volume calibration will be first.</p><p>You will hear a thirty-second noise. Please adjust your computer's volume so that this noise is being presented at a comfortable level.<p></p>","0","","","","","","","","","","","","","","","","","","","","","","","","","","","","","","","","",""
"audio-button-response","5","514906","0.0-3.0-0.0-2.0","1","0","ku7e6ahkgc8s7r0","","null","","audCalib/volumetest.mp3","null","","","","","","","","","","","","","","","","","","","","","","","","","","","","","","","","",""
"html-button-response","6","516640","0.0-3.0-1.0-0.0","1","0","ku7e6ahkgc8s7r0","","1733","","<p>You will now complete a short headphone check.</p><p>On each trial, you will hear three tones. One of these tones will be quieter than the others. Your task is to identify whether the quiet tone occured first, second, or third.</p><p>There are six trials in total.<p></p>","0","","","","","","","","","","","","","","","","","","","","","","","","","","","","","","","","",""
"html-keyboard-response","7","517419","0.0-3.0-1.0-1.0-0.0","1","0","ku7e6ahkgc8s7r0","","null","","<div style=""font-size:60px;"">+</div>","","null","","","","","","","","","","","","","","","","","","","","","","","","","","","","","","","",""
"audio-button-response","8","521830","0.0-3.0-1.0-1.0-1.0","1","0","ku7e6ahkgc8s7r0","","4411","","audCalib/t2_2.mp3","2","","1","0","headphone-test","","","","","","","","","","","","","","","","","","","","","","","","","","","","",""
"html-keyboard-response","9","522608","0.0-3.0-1.0-1.0-0.1","1","0","ku7e6ahkgc8s7r0","","null","","<div style=""font-size:60px;"">+</div>","","null","","","","","","","","","","","","","","","","","","","","","","","","","","","","","","","",""
"audio-button-response","10","526333","0.0-3.0-1.0-1.0-1.1","1","0","ku7e6ahkgc8s7r0","","3720","","audCalib/t2_1.mp3","0","","1","0","headphone-test","","","","","","","","","","","","","","","","","","","","","","","","","","","","",""
"html-keyboard-response","11","527101","0.0-3.0-1.0-1.0-0.2","1","0","ku7e6ahkgc8s7r0","","null","","<div style=""font-size:60px;"">+</div>","","null","","","","","","","","","","","","","","","","","","","","","","","","","","","","","","","",""
"audio-button-response","12","529691","0.0-3.0-1.0-1.0-1.2","1","0","ku7e6ahkgc8s7r0","","2592","","audCalib/t3_2.mp3","1","","2","0","headphone-test","","","","","","","","","","","","","","","","","","","","","","","","","","","","",""
"html-keyboard-response","13","530445","0.0-3.0-1.0-1.0-0.3","1","0","ku7e6ahkgc8s7r0","","null","","<div style=""font-size:60px;"">+</div>","","null","","","","","","","","","","","","","","","","","","","","","","","","","","","","","","","",""
"audio-button-response","14","530871","0.0-3.0-1.0-1.0-1.3","1","0","ku7e6ahkgc8s7r0","","419","","audCalib/t3_1.mp3","1","","2","0","headphone-test","","","","","","","","","","","","","","","","","","","","","","","","","","","","",""
"html-keyboard-response","15","531637","0.0-3.0-1.0-1.0-0.4","1","0","ku7e6ahkgc8s7r0","","null","","<div style=""font-size:60px;"">+</div>","","null","","","","","","","","","","","","","","","","","","","","","","","","","","","","","","","",""
"audio-button-response","16","532359","0.0-3.0-1.0-1.0-1.4","1","0","ku7e6ahkgc8s7r0","","720","","audCalib/t1_1.mp3","0","","0","1","headphone-test","","","","","","","","","","","","","","","","","","","","","","","","","","","","",""
"html-keyboard-response","17","533114","0.0-3.0-1.0-1.0-0.5","1","0","ku7e6ahkgc8s7r0","","null","","<div style=""font-size:60px;"">+</div>","","null","","","","","","","","","","","","","","","","","","","","","","","","","","","","","","","",""
"audio-button-response","18","533453","0.0-3.0-1.0-1.0-1.5","1","0","ku7e6ahkgc8s7r0","","339","","audCalib/t1_2.mp3","2","","0","0","headphone-test","","","","","","","","","","","","","","","","","","","","","","","","","","","","",""
"html-button-response","19","535497","0.0-3.0-2.0","1","0","ku7e6ahkgc8s7r0","","1776.8000000715256","","<p>The volume calibration and headphone check are now complete.</p>","0","","","","","","","","","","","","","","","","","","","","","","","","","","","","","","","","",""
"instructions","20","539008","0.0-4.0-0.0","1","0","ku7e6ahkgc8s7r0","[{""page_index"":0,""viewing_time"":792.1999999284744},{""page_index"":1,""viewing_time"":1764.3999999761581},{""page_index"":2,""viewing_time"":953.5}]","3510.5999999046326","","","","","","","","","","","","","","","","","","","","","","","","","","","","","","","","","","","",""
"audio-keyboard-response","21","539313","0.0-4.0-1.0-0.0","1","0","ku7e6ahkgc8s7r0","","null","","sounds/induction/left_rev/ko_SWS.wav","","null","","","","","","","","","","","","","","","","","","","","","","","","","","","","","","","",""
"html-button-response","22","540756","0.0-4.0-1.0-1.0","1","0","ku7e6ahkgc8s7r0","","1442.1000000238419","","Was the sound coming from the left or the right?","1","","","0","INDUCTION-JUDGMENT","left","0","","","","","","","","","","","","","","","","","","","","","","","","","","",""
"html-keyboard-response","23","541771","0.0-4.0-1.0-2.0","1","0","ku7e6ahkgc8s7r0","","null","","<p style=""color:#690000;""><b>Incorrect!</b></p>","","null","","","","","","","","","","","","","","","","","","","","","","","","","","","","","","","",""
"audio-keyboard-response","24","542563","0.0-4.0-1.0-0.1","1","0","ku7e6ahkgc8s7r0","","null","","sounds/induction/right_rev/re_SWS.wav","","null","","","","","","","","","","","","","","","","","","","","","","","","","","","","","","","",""
"html-button-response","25","543802","0.0-4.0-1.0-1.1","1","0","ku7e6ahkgc8s7r0","","1237.8000000715256","","Was the sound coming from the left or the right?","0","","","0","INDUCTION-JUDGMENT","right","1","","","","","","","","","","","","","","","","","","","","","","","","","","",""
"html-keyboard-response","26","544803","0.0-4.0-1.0-2.1","1","0","ku7e6ahkgc8s7r0","","null","","<p style=""color:#690000;""><b>Incorrect!</b></p>","","null","","","","","","","","","","","","","","","","","","","","","","","","","","","","","","","",""
"audio-keyboard-response","27","545603","0.0-4.0-1.0-0.2","1","0","ku7e6ahkgc8s7r0","","null","","sounds/induction/right_rev/re_SWS.wav","","null","","","","","","","","","","","","","","","","","","","","","","","","","","","","","","","",""
"html-button-response","28","545960","0.0-4.0-1.0-1.2","1","0","ku7e6ahkgc8s7r0","","356.2999999523163","","Was the sound coming from the left or the right?","0","","","0","INDUCTION-JUDGMENT","right","1","","","","","","","","","","","","","","","","","","","","","","","","","","",""
"html-keyboard-response","29","546962","0.0-4.0-1.0-2.2","1","0","ku7e6ahkgc8s7r0","","null","","<p style=""color:#690000;""><b>Incorrect!</b></p>","","null","","","","","","","","","","","","","","","","","","","","","","","","","","","","","","","",""
"audio-keyboard-response","30","547754","0.0-4.0-1.0-0.3","1","0","ku7e6ahkgc8s7r0","","null","","sounds/induction/right_rev/fu_SWS.wav","","null","","","","","","","","","","","","","","","","","","","","","","","","","","","","","","","",""
"html-button-response","31","548091","0.0-4.0-1.0-1.3","1","0","ku7e6ahkgc8s7r0","","335","","Was the sound coming from the left or the right?","1","","","1","INDUCTION-JUDGMENT","right","1","","","","","","","","","","","","","","","","","","","","","","","","","","",""
"html-keyboard-response","32","549094","0.0-4.0-1.0-2.3","1","0","ku7e6ahkgc8s7r0","","null","","<p style=""color:#054d00;""><b>Correct!</b></p>","","null","","","","","","","","","","","","","","","","","","","","","","","","","","","","","","","",""
"audio-keyboard-response","33","549903","0.0-4.0-1.0-0.4","1","0","ku7e6ahkgc8s7r0","","null","","sounds/induction/right_rev/me_SWS.wav","","null","","","","","","","","","","","","","","","","","","","","","","","","","","","","","","","",""
"html-button-response","34","550219","0.0-4.0-1.0-1.4","1","0","ku7e6ahkgc8s7r0","","315","","Was the sound coming from the left or the right?","1","","","1","INDUCTION-JUDGMENT","right","1","","","","","","","","","","","","","","","","","","","","","","","","","","",""
"html-keyboard-response","35","551222","0.0-4.0-1.0-2.4","1","0","ku7e6ahkgc8s7r0","","null","","<p style=""color:#054d00;""><b>Correct!</b></p>","","null","","","","","","","","","","","","","","","","","","","","","","","","","","","","","","","",""
"audio-keyboard-response","36","552033","0.0-4.0-1.0-0.5","1","0","ku7e6ahkgc8s7r0","","null","","sounds/induction/right_rev/fe_SWS.wav","","null","","","","","","","","","","","","","","","","","","","","","","","","","","","","","","","",""
"html-button-response","37","552368","0.0-4.0-1.0-1.5","1","0","ku7e6ahkgc8s7r0","","334.6999999284744","","Was the sound coming from the left or the right?","0","","","0","INDUCTION-JUDGMENT","right","1","","","","","","","","","","","","","","","","","","","","","","","","","","",""
"html-keyboard-response","38","553370","0.0-4.0-1.0-2.5","1","0","ku7e6ahkgc8s7r0","","null","","<p style=""color:#690000;""><b>Incorrect!</b></p>","","null","","","","","","","","","","","","","","","","","","","","","","","","","","","","","","","",""
"audio-keyboard-response","39","554194","0.0-4.0-1.0-0.6","1","0","ku7e6ahkgc8s7r0","","null","","sounds/induction/left_rev/fe_SWS.wav","","null","","","","","","","","","","","","","","","","","","","","","","","","","","","","","","","",""
"html-button-response","40","554702","0.0-4.0-1.0-1.6","1","0","ku7e6ahkgc8s7r0","","507","","Was the sound coming from the left or the right?","0","","","1","INDUCTION-JUDGMENT","left","0","","","","","","","","","","","","","","","","","","","","","","","","","","",""
"html-keyboard-response","41","555716","0.0-4.0-1.0-2.6","1","0","ku7e6ahkgc8s7r0","","null","","<p style=""color:#054d00;""><b>Correct!</b></p>","","null","","","","","","","","","","","","","","","","","","","","","","","","","","","","","","","",""
"audio-keyboard-response","42","556523","0.0-4.0-1.0-0.7","1","0","ku7e6ahkgc8s7r0","","null","","sounds/induction/left_rev/ni_SWS.wav","","null","","","","","","","","","","","","","","","","","","","","","","","","","","","","","","","",""
"html-button-response","43","556715","0.0-4.0-1.0-1.7","1","0","ku7e6ahkgc8s7r0","","191.39999997615814","","Was the sound coming from the left or the right?","1","","","0","INDUCTION-JUDGMENT","left","0","","","","","","","","","","","","","","","","","","","","","","","","","","",""
"html-keyboard-response","44","557730","0.0-4.0-1.0-2.7","1","0","ku7e6ahkgc8s7r0","","null","","<p style=""color:#690000;""><b>Incorrect!</b></p>","","null","","","","","","","","","","","","","","","","","","","","","","","","","","","","","","","",""
"audio-keyboard-response","45","558523","0.0-4.0-1.0-0.8","1","0","ku7e6ahkgc8s7r0","","null","","sounds/induction/left_rev/ge_SWS.wav","","null","","","","","","","","","","","","","","","","","","","","","","","","","","","","","","","",""
"html-button-response","46","558721","0.0-4.0-1.0-1.8","1","0","ku7e6ahkgc8s7r0","","196.39999997615814","","Was the sound coming from the left or the right?","0","","","1","INDUCTION-JUDGMENT","left","0","","","","","","","","","","","","","","","","","","","","","","","","","","",""
"html-keyboard-response","47","559730","0.0-4.0-1.0-2.8","1","0","ku7e6ahkgc8s7r0","","null","","<p style=""color:#054d00;""><b>Correct!</b></p>","","null","","","","","","","","","","","","","","","","","","","","","","","","","","","","","","","",""
"audio-keyboard-response","48","560554","0.0-4.0-1.0-0.9","1","0","ku7e6ahkgc8s7r0","","null","","sounds/induction/left_rev/ge_SWS.wav","","null","","","","","","","","","","","","","","","","","","","","","","","","","","","","","","","",""
"html-button-response","49","561400","0.0-4.0-1.0-1.9","1","0","ku7e6ahkgc8s7r0","","844.5","","Was the sound coming from the left or the right?","0","","","1","INDUCTION-JUDGMENT","left","0","","","","","","","","","","","","","","","","","","","","","","","","","","",""
"html-keyboard-response","50","562414","0.0-4.0-1.0-2.9","1","0","ku7e6ahkgc8s7r0","","null","","<p style=""color:#054d00;""><b>Correct!</b></p>","","null","","","","","","","","","","","","","","","","","","","","","","","","","","","","","","","",""
"audio-keyboard-response","51","563233","0.0-4.0-1.0-0.10","1","0","ku7e6ahkgc8s7r0","","null","","sounds/induction/right_rev/ni_SWS.wav","","null","","","","","","","","","","","","","","","","","","","","","","","","","","","","","","","",""
"html-button-response","52","563638","0.0-4.0-1.0-1.10","1","0","ku7e6ahkgc8s7r0","","404","","Was the sound coming from the left or the right?","0","","","0","INDUCTION-JUDGMENT","right","1","","","","","","","","","","","","","","","","","","","","","","","","","","",""
"html-keyboard-response","53","564640","0.0-4.0-1.0-2.10","1","0","ku7e6ahkgc8s7r0","","null","","<p style=""color:#690000;""><b>Incorrect!</b></p>","","null","","","","","","","","","","","","","","","","","","","","","","","","","","","","","","","",""
"audio-keyboard-response","54","565434","0.0-4.0-1.0-0.11","1","0","ku7e6ahkgc8s7r0","","null","","sounds/induction/left_rev/ti_SWS.wav","","null","","","","","","","","","","","","","","","","","","","","","","","","","","","","","","","",""
"html-button-response","55","565796","0.0-4.0-1.0-1.11","1","0","ku7e6ahkgc8s7r0","","360.5","","Was the sound coming from the left or the right?","1","","","0","INDUCTION-JUDGMENT","left","0","","","","","","","","","","","","","","","","","","","","","","","","","","",""
"html-keyboard-response","56","566797","0.0-4.0-1.0-2.11","1","0","ku7e6ahkgc8s7r0","","null","","<p style=""color:#690000;""><b>Incorrect!</b></p>","","null","","","","","","","","","","","","","","","","","","","","","","","","","","","","","","","",""
"audio-keyboard-response","57","567593","0.0-4.0-1.0-0.12","1","0","ku7e6ahkgc8s7r0","","null","","sounds/induction/left_rev/ti_SWS.wav","","null","","","","","","","","","","","","","","","","","","","","","","","","","","","","","","","",""
"html-button-response","58","567708","0.0-4.0-1.0-1.12","1","0","ku7e6ahkgc8s7r0","","113.70000004768372","","Was the sound coming from the left or the right?","1","","","0","INDUCTION-JUDGMENT","left","0","","","","","","","","","","","","","","","","","","","","","","","","","","",""
"html-keyboard-response","59","568713","0.0-4.0-1.0-2.12","1","0","ku7e6ahkgc8s7r0","","null","","<p style=""color:#690000;""><b>Incorrect!</b></p>","","null","","","","","","","","","","","","","","","","","","","","","","","","","","","","","","","",""
"audio-keyboard-response","60","569524","0.0-4.0-1.0-0.13","1","0","ku7e6ahkgc8s7r0","","null","","sounds/induction/right_rev/ko_SWS.wav","","null","","","","","","","","","","","","","","","","","","","","","","","","","","","","","","","",""
"html-button-response","61","569893","0.0-4.0-1.0-1.13","1","0","ku7e6ahkgc8s7r0","","368.10000002384186","","Was the sound coming from the left or the right?","1","","","1","INDUCTION-JUDGMENT","right","1","","","","","","","","","","","","","","","","","","","","","","","","","","",""
"html-keyboard-response","62","570901","0.0-4.0-1.0-2.13","1","0","ku7e6ahkgc8s7r0","","null","","<p style=""color:#054d00;""><b>Correct!</b></p>","","null","","","","","","","","","","","","","","","","","","","","","","","","","","","","","","","",""
"audio-keyboard-response","63","571704","0.0-4.0-1.0-0.14","1","0","ku7e6ahkgc8s7r0","","null","","sounds/induction/left_rev/ni_SWS.wav","","null","","","","","","","","","","","","","","","","","","","","","","","","","","","","","","","",""
"html-button-response","64","572889","0.0-4.0-1.0-1.14","1","0","ku7e6ahkgc8s7r0","","1182.8000000715256","","Was the sound coming from the left or the right?","1","","","0","INDUCTION-JUDGMENT","left","0","","","","","","","","","","","","","","","","","","","","","","","","","","",""
"html-keyboard-response","65","573902","0.0-4.0-1.0-2.14","1","0","ku7e6ahkgc8s7r0","","null","","<p style=""color:#690000;""><b>Incorrect!</b></p>","","null","","","","","","","","","","","","","","","","","","","","","","","","","","","","","","","",""
"audio-keyboard-response","66","574713","0.0-4.0-1.0-0.15","1","0","ku7e6ahkgc8s7r0","","null","","sounds/induction/right_rev/ti_SWS.wav","","null","","","","","","","","","","","","","","","","","","","","","","","","","","","","","","","",""
"html-button-response","67","575036","0.0-4.0-1.0-1.15","1","0","ku7e6ahkgc8s7r0","","323.3000000715256","","Was the sound coming from the left or the right?","1","","","1","INDUCTION-JUDGMENT","right","1","","","","","","","","","","","","","","","","","","","","","","","","","","",""
"html-keyboard-response","68","576045","0.0-4.0-1.0-2.15","1","0","ku7e6ahkgc8s7r0","","null","","<p style=""color:#054d00;""><b>Correct!</b></p>","","null","","","","","","","","","","","","","","","","","","","","","","","","","","","","","","","",""
"audio-keyboard-response","69","576864","0.0-4.0-1.0-0.16","1","0","ku7e6ahkgc8s7r0","","null","","sounds/induction/left_rev/ko_SWS.wav","","null","","","","","","","","","","","","","","","","","","","","","","","","","","","","","","","",""
"html-button-response","70","577374","0.0-4.0-1.0-1.16","1","0","ku7e6ahkgc8s7r0","","506.2000000476837","","Was the sound coming from the left or the right?","1","","","0","INDUCTION-JUDGMENT","left","0","","","","","","","","","","","","","","","","","","","","","","","","","","",""
"html-keyboard-response","71","578377","0.0-4.0-1.0-2.16","1","0","ku7e6ahkgc8s7r0","","null","","<p style=""color:#690000;""><b>Incorrect!</b></p>","","null","","","","","","","","","","","","","","","","","","","","","","","","","","","","","","","",""
"audio-keyboard-response","72","579184","0.0-4.0-1.0-0.17","1","0","ku7e6ahkgc8s7r0","","null","","sounds/induction/left_rev/ta_SWS.wav","","null","","","","","","","","","","","","","","","","","","","","","","","","","","","","","","","",""
"html-button-response","73","579668","0.0-4.0-1.0-1.17","1","0","ku7e6ahkgc8s7r0","","483.5","","Was the sound coming from the left or the right?","1","","","0","INDUCTION-JUDGMENT","left","0","","","","","","","","","","","","","","","","","","","","","","","","","","",""
"html-keyboard-response","74","580675","0.0-4.0-1.0-2.17","1","0","ku7e6ahkgc8s7r0","","null","","<p style=""color:#690000;""><b>Incorrect!</b></p>","","null","","","","","","","","","","","","","","","","","","","","","","","","","","","","","","","",""
"audio-keyboard-response","75","581484","0.0-4.0-1.0-0.18","1","0","ku7e6ahkgc8s7r0","","null","","sounds/induction/left_rev/su_SWS.wav","","null","","","","","","","","","","","","","","","","","","","","","","","","","","","","","","","",""
"html-button-response","76","581764","0.0-4.0-1.0-1.18","1","0","ku7e6ahkgc8s7r0","","278.10000002384186","","Was the sound coming from the left or the right?","1","","","0","INDUCTION-JUDGMENT","left","0","","","","","","","","","","","","","","","","","","","","","","","","","","",""
"html-keyboard-response","77","582769","0.0-4.0-1.0-2.18","1","0","ku7e6ahkgc8s7r0","","null","","<p style=""color:#690000;""><b>Incorrect!</b></p>","","null","","","","","","","","","","","","","","","","","","","","","","","","","","","","","","","",""
"audio-keyboard-response","78","583584","0.0-4.0-1.0-0.19","1","0","ku7e6ahkgc8s7r0","","null","","sounds/induction/right_rev/pu_SWS.wav","","null","","","","","","","","","","","","","","","","","","","","","","","","","","","","","","","",""
"html-button-response","79","583940","0.0-4.0-1.0-1.19","1","0","ku7e6ahkgc8s7r0","","354.7999999523163","","Was the sound coming from the left or the right?","1","","","1","INDUCTION-JUDGMENT","right","1","","","","","","","","","","","","","","","","","","","","","","","","","","",""
"html-keyboard-response","80","584952","0.0-4.0-1.0-2.19","1","0","ku7e6ahkgc8s7r0","","null","","<p style=""color:#054d00;""><b>Correct!</b></p>","","null","","","","","","","","","","","","","","","","","","","","","","","","","","","","","","","",""
"audio-keyboard-response","81","585764","0.0-4.0-1.0-0.20","1","0","ku7e6ahkgc8s7r0","","null","","sounds/induction/right_rev/ti_SWS.wav","","null","","","","","","","","","","","","","","","","","","","","","","","","","","","","","","","",""
"html-button-response","82","586156","0.0-4.0-1.0-1.20","1","0","ku7e6ahkgc8s7r0","","390.6999999284744","","Was the sound coming from the left or the right?","0","","","0","INDUCTION-JUDGMENT","right","1","","","","","","","","","","","","","","","","","","","","","","","","","","",""
"html-keyboard-response","83","587158","0.0-4.0-1.0-2.20","1","0","ku7e6ahkgc8s7r0","","null","","<p style=""color:#690000;""><b>Incorrect!</b></p>","","null","","","","","","","","","","","","","","","","","","","","","","","","","","","","","","","",""
"audio-keyboard-response","84","587954","0.0-4.0-1.0-0.21","1","0","ku7e6ahkgc8s7r0","","null","","sounds/induction/left_rev/pu_SWS.wav","","null","","","","","","","","","","","","","","","","","","","","","","","","","","","","","","","",""
"html-button-response","85","588424","0.0-4.0-1.0-1.21","1","0","ku7e6ahkgc8s7r0","","468.5","","Was the sound coming from the left or the right?","1","","","0","INDUCTION-JUDGMENT","left","0","","","","","","","","","","","","","","","","","","","","","","","","","","",""
"html-keyboard-response","86","589435","0.0-4.0-1.0-2.21","1","0","ku7e6ahkgc8s7r0","","null","","<p style=""color:#690000;""><b>Incorrect!</b></p>","","null","","","","","","","","","","","","","","","","","","","","","","","","","","","","","","","",""
"audio-keyboard-response","87","590244","0.0-4.0-1.0-0.22","1","0","ku7e6ahkgc8s7r0","","null","","sounds/induction/right_rev/su_SWS.wav","","null","","","","","","","","","","","","","","","","","","","","","","","","","","","","","","","",""
"html-button-response","88","590619","0.0-4.0-1.0-1.22","1","0","ku7e6ahkgc8s7r0","","373.89999997615814","","Was the sound coming from the left or the right?","1","","","1","INDUCTION-JUDGMENT","right","1","","","","","","","","","","","","","","","","","","","","","","","","","","",""
"html-keyboard-response","89","591635","0.0-4.0-1.0-2.22","1","0","ku7e6ahkgc8s7r0","","null","","<p style=""color:#054d00;""><b>Correct!</b></p>","","null","","","","","","","","","","","","","","","","","","","","","","","","","","","","","","","",""
"audio-keyboard-response","90","592445","0.0-4.0-1.0-0.23","1","0","ku7e6ahkgc8s7r0","","null","","sounds/induction/right_rev/ru_SWS.wav","","null","","","","","","","","","","","","","","","","","","","","","","","","","","","","","","","",""
"html-button-response","91","593495","0.0-4.0-1.0-1.23","1","0","ku7e6ahkgc8s7r0","","1047.8999999761581","","Was the sound coming from the left or the right?","1","","","1","INDUCTION-JUDGMENT","right","1","","","","","","","","","","","","","","","","","","","","","","","","","","",""
"html-keyboard-response","92","594504","0.0-4.0-1.0-2.23","1","0","ku7e6ahkgc8s7r0","","null","","<p style=""color:#054d00;""><b>Correct!</b></p>","","null","","","","","","","","","","","","","","","","","","","","","","","","","","","","","","","",""
"audio-keyboard-response","93","595315","0.0-4.0-1.0-0.24","1","0","ku7e6ahkgc8s7r0","","null","","sounds/induction/right_rev/ge_SWS.wav","","null","","","","","","","","","","","","","","","","","","","","","","","","","","","","","","","",""
"html-button-response","94","596119","0.0-4.0-1.0-1.24","1","0","ku7e6ahkgc8s7r0","","802.7999999523163","","Was the sound coming from the left or the right?","1","","","1","INDUCTION-JUDGMENT","right","1","","","","","","","","","","","","","","","","","","","","","","","","","","",""
"html-keyboard-response","95","597123","0.0-4.0-1.0-2.24","1","0","ku7e6ahkgc8s7r0","","null","","<p style=""color:#054d00;""><b>Correct!</b></p>","","null","","","","","","","","","","","","","","","","","","","","","","","","","","","","","","","",""
"audio-keyboard-response","96","597925","0.0-4.0-1.0-0.25","1","0","ku7e6ahkgc8s7r0","","null","","sounds/induction/right_rev/ta_SWS.wav","","null","","","","","","","","","","","","","","","","","","","","","","","","","","","","","","","",""
"html-button-response","97","598368","0.0-4.0-1.0-1.25","1","0","ku7e6ahkgc8s7r0","","441.6999999284744","","Was the sound coming from the left or the right?","1","","","1","INDUCTION-JUDGMENT","right","1","","","","","","","","","","","","","","","","","","","","","","","","","","",""
"html-keyboard-response","98","599372","0.0-4.0-1.0-2.25","1","0","ku7e6ahkgc8s7r0","","null","","<p style=""color:#054d00;""><b>Correct!</b></p>","","null","","","","","","","","","","","","","","","","","","","","","","","","","","","","","","","",""
"audio-keyboard-response","99","600194","0.0-4.0-1.0-0.26","1","0","ku7e6ahkgc8s7r0","","null","","sounds/induction/left_rev/me_SWS.wav","","null","","","","","","","","","","","","","","","","","","","","","","","","","","","","","","","",""
"html-button-response","100","600623","0.0-4.0-1.0-1.26","1","0","ku7e6ahkgc8s7r0","","428","","Was the sound coming from the left or the right?","1","","","0","INDUCTION-JUDGMENT","left","0","","","","","","","","","","","","","","","","","","","","","","","","","","",""
"html-keyboard-response","101","601627","0.0-4.0-1.0-2.26","1","0","ku7e6ahkgc8s7r0","","null","","<p style=""color:#690000;""><b>Incorrect!</b></p>","","null","","","","","","","","","","","","","","","","","","","","","","","","","","","","","","","",""
"audio-keyboard-response","102","602435","0.0-4.0-1.0-0.27","1","0","ku7e6ahkgc8s7r0","","null","","sounds/induction/left_rev/re_SWS.wav","","null","","","","","","","","","","","","","","","","","","","","","","","","","","","","","","","",""
"html-button-response","103","602794","0.0-4.0-1.0-1.27","1","0","ku7e6ahkgc8s7r0","","358","","Was the sound coming from the left or the right?","1","","","0","INDUCTION-JUDGMENT","left","0","","","","","","","","","","","","","","","","","","","","","","","","","","",""
"html-keyboard-response","104","603798","0.0-4.0-1.0-2.27","1","0","ku7e6ahkgc8s7r0","","null","","<p style=""color:#690000;""><b>Incorrect!</b></p>","","null","","","","","","","","","","","","","","","","","","","","","","","","","","","","","","","",""
"audio-keyboard-response","105","604605","0.0-4.0-1.0-0.28","1","0","ku7e6ahkgc8s7r0","","null","","sounds/induction/right_rev/fu_SWS.wav","","null","","","","","","","","","","","","","","","","","","","","","","","","","","","","","","","",""
"html-button-response","106","605113","0.0-4.0-1.0-1.28","1","0","ku7e6ahkgc8s7r0","","507","","Was the sound coming from the left or the right?","1","","","1","INDUCTION-JUDGMENT","right","1","","","","","","","","","","","","","","","","","","","","","","","","","","",""
"html-keyboard-response","107","606117","0.0-4.0-1.0-2.28","1","0","ku7e6ahkgc8s7r0","","null","","<p style=""color:#054d00;""><b>Correct!</b></p>","","null","","","","","","","","","","","","","","","","","","","","","","","","","","","","","","","",""
"audio-keyboard-response","108","606914","0.0-4.0-1.0-0.29","1","0","ku7e6ahkgc8s7r0","","null","","sounds/induction/right_rev/fe_SWS.wav","","null","","","","","","","","","","","","","","","","","","","","","","","","","","","","","","","",""
"html-button-response","109","608319","0.0-4.0-1.0-1.29","1","0","ku7e6ahkgc8s7r0","","1404.6000000238419","","Was the sound coming from the left or the right?","1","","","1","INDUCTION-JUDGMENT","right","1","","","","","","","","","","","","","","","","","","","","","","","","","","",""
"html-keyboard-response","110","609330","0.0-4.0-1.0-2.29","1","0","ku7e6ahkgc8s7r0","","null","","<p style=""color:#054d00;""><b>Correct!</b></p>","","null","","","","","","","","","","","","","","","","","","","","","","","","","","","","","","","",""
"audio-keyboard-response","111","610154","0.0-4.0-1.0-0.30","1","0","ku7e6ahkgc8s7r0","","null","","sounds/induction/left_rev/pu_SWS.wav","","null","","","","","","","","","","","","","","","","","","","","","","","","","","","","","","","",""
"html-button-response","112","610711","0.0-4.0-1.0-1.30","1","0","ku7e6ahkgc8s7r0","","556.5","","Was the sound coming from the left or the right?","1","","","0","INDUCTION-JUDGMENT","left","0","","","","","","","","","","","","","","","","","","","","","","","","","","",""
"html-keyboard-response","113","611718","0.0-4.0-1.0-2.30","1","0","ku7e6ahkgc8s7r0","","null","","<p style=""color:#690000;""><b>Incorrect!</b></p>","","null","","","","","","","","","","","","","","","","","","","","","","","","","","","","","","","",""
"audio-keyboard-response","114","612524","0.0-4.0-1.0-0.31","1","0","ku7e6ahkgc8s7r0","","null","","sounds/induction/right_rev/ge_SWS.wav","","null","","","","","","","","","","","","","","","","","","","","","","","","","","","","","","","",""
"html-button-response","115","612915","0.0-4.0-1.0-1.31","1","0","ku7e6ahkgc8s7r0","","390.5","","Was the sound coming from the left or the right?","1","","","1","INDUCTION-JUDGMENT","right","1","","","","","","","","","","","","","","","","","","","","","","","","","","",""
"html-keyboard-response","116","613920","0.0-4.0-1.0-2.31","1","0","ku7e6ahkgc8s7r0","","null","","<p style=""color:#054d00;""><b>Correct!</b></p>","","null","","","","","","","","","","","","","","","","","","","","","","","","","","","","","","","",""
"audio-keyboard-response","117","614715","0.0-4.0-1.0-0.32","1","0","ku7e6ahkgc8s7r0","","null","","sounds/induction/right_rev/su_SWS.wav","","null","","","","","","","","","","","","","","","","","","","","","","","","","","","","","","","",""
"html-button-response","118","615127","0.0-4.0-1.0-1.32","1","0","ku7e6ahkgc8s7r0","","411.2999999523163","","Was the sound coming from the left or the right?","1","","","1","INDUCTION-JUDGMENT","right","1","","","","","","","","","","","","","","","","","","","","","","","","","","",""
"html-keyboard-response","119","616138","0.0-4.0-1.0-2.32","1","0","ku7e6ahkgc8s7r0","","null","","<p style=""color:#054d00;""><b>Correct!</b></p>","","null","","","","","","","","","","","","","","","","","","","","","","","","","","","","","","","",""
"audio-keyboard-response","120","616953","0.0-4.0-1.0-0.33","1","0","ku7e6ahkgc8s7r0","","null","","sounds/induction/right_rev/ta_SWS.wav","","null","","","","","","","","","","","","","","","","","","","","","","","","","","","","","","","",""
"html-button-response","121","617365","0.0-4.0-1.0-1.33","1","0","ku7e6ahkgc8s7r0","","411.2000000476837","","Was the sound coming from the left or the right?","1","","","1","INDUCTION-JUDGMENT","right","1","","","","","","","","","","","","","","","","","","","","","","","","","","",""
"html-keyboard-response","122","618373","0.0-4.0-1.0-2.33","1","0","ku7e6ahkgc8s7r0","","null","","<p style=""color:#054d00;""><b>Correct!</b></p>","","null","","","","","","","","","","","","","","","","","","","","","","","","","","","","","","","",""
"audio-keyboard-response","123","619185","0.0-4.0-1.0-0.34","1","0","ku7e6ahkgc8s7r0","","null","","sounds/induction/left_rev/re_SWS.wav","","null","","","","","","","","","","","","","","","","","","","","","","","","","","","","","","","",""
"html-button-response","124","619547","0.0-4.0-1.0-1.34","1","0","ku7e6ahkgc8s7r0","","361.10000002384186","","Was the sound coming from the left or the right?","1","","","0","INDUCTION-JUDGMENT","left","0","","","","","","","","","","","","","","","","","","","","","","","","","","",""
"html-keyboard-response","125","620558","0.0-4.0-1.0-2.34","1","0","ku7e6ahkgc8s7r0","","null","","<p style=""color:#690000;""><b>Incorrect!</b></p>","","null","","","","","","","","","","","","","","","","","","","","","","","","","","","","","","","",""
"audio-keyboard-response","126","621355","0.0-4.0-1.0-0.35","1","0","ku7e6ahkgc8s7r0","","null","","sounds/induction/right_rev/pu_SWS.wav","","null","","","","","","","","","","","","","","","","","","","","","","","","","","","","","","","",""
"html-button-response","127","621992","0.0-4.0-1.0-1.35","1","0","ku7e6ahkgc8s7r0","","635.6000000238419","","Was the sound coming from the left or the right?","1","","","1","INDUCTION-JUDGMENT","right","1","","","","","","","","","","","","","","","","","","","","","","","","","","",""
"html-keyboard-response","128","622999","0.0-4.0-1.0-2.35","1","0","ku7e6ahkgc8s7r0","","null","","<p style=""color:#054d00;""><b>Correct!</b></p>","","null","","","","","","","","","","","","","","","","","","","","","","","","","","","","","","","",""
"audio-keyboard-response","129","623804","0.0-4.0-1.0-0.36","1","0","ku7e6ahkgc8s7r0","","null","","sounds/induction/left_rev/ru_SWS.wav","","null","","","","","","","","","","","","","","","","","","","","","","","","","","","","","","","",""
"html-button-response","130","624735","0.0-4.0-1.0-1.36","1","0","ku7e6ahkgc8s7r0","","930.5999999046326","","Was the sound coming from the left or the right?","0","","","1","INDUCTION-JUDGMENT","left","0","","","","","","","","","","","","","","","","","","","","","","","","","","",""
"html-keyboard-response","131","625748","0.0-4.0-1.0-2.36","1","0","ku7e6ahkgc8s7r0","","null","","<p style=""color:#054d00;""><b>Correct!</b></p>","","null","","","","","","","","","","","","","","","","","","","","","","","","","","","","","","","",""
"audio-keyboard-response","132","626554","0.0-4.0-1.0-0.37","1","0","ku7e6ahkgc8s7r0","","null","","sounds/induction/right_rev/ru_SWS.wav","","null","","","","","","","","","","","","","","","","","","","","","","","","","","","","","","","",""
"html-button-response","133","626932","0.0-4.0-1.0-1.37","1","0","ku7e6ahkgc8s7r0","","376.8000000715256","","Was the sound coming from the left or the right?","0","","","0","INDUCTION-JUDGMENT","right","1","","","","","","","","","","","","","","","","","","","","","","","","","","",""
"html-keyboard-response","134","627948","0.0-4.0-1.0-2.37","1","0","ku7e6ahkgc8s7r0","","null","","<p style=""color:#690000;""><b>Incorrect!</b></p>","","null","","","","","","","","","","","","","","","","","","","","","","","","","","","","","","","",""
"audio-keyboard-response","135","628753","0.0-4.0-1.0-0.38","1","0","ku7e6ahkgc8s7r0","","null","","sounds/induction/left_rev/fu_SWS.wav","","null","","","","","","","","","","","","","","","","","","","","","","","","","","","","","","","",""
"html-button-response","136","629132","0.0-4.0-1.0-1.38","1","0","ku7e6ahkgc8s7r0","","378.1999999284744","","Was the sound coming from the left or the right?","1","","","0","INDUCTION-JUDGMENT","left","0","","","","","","","","","","","","","","","","","","","","","","","","","","",""
"html-keyboard-response","137","630148","0.0-4.0-1.0-2.38","1","0","ku7e6ahkgc8s7r0","","null","","<p style=""color:#690000;""><b>Incorrect!</b></p>","","null","","","","","","","","","","","","","","","","","","","","","","","","","","","","","","","",""
"audio-keyboard-response","138","630954","0.0-4.0-1.0-0.39","1","0","ku7e6ahkgc8s7r0","","null","","sounds/induction/right_rev/ko_SWS.wav","","null","","","","","","","","","","","","","","","","","","","","","","","","","","","","","","","",""
"html-button-response","139","631119","0.0-4.0-1.0-1.39","1","0","ku7e6ahkgc8s7r0","","164.59999990463257","","Was the sound coming from the left or the right?","0","","","0","INDUCTION-JUDGMENT","right","1","","","","","","","","","","","","","","","","","","","","","","","","","","",""
"html-keyboard-response","140","632126","0.0-4.0-1.0-2.39","1","0","ku7e6ahkgc8s7r0","","null","","<p style=""color:#690000;""><b>Incorrect!</b></p>","","null","","","","","","","","","","","","","","","","","","","","","","","","","","","","","","","",""
"audio-keyboard-response","141","632924","0.0-4.0-1.0-0.40","1","0","ku7e6ahkgc8s7r0","","null","","sounds/induction/left_rev/su_SWS.wav","","null","","","","","","","","","","","","","","","","","","","","","","","","","","","","","","","",""
"html-button-response","142","633302","0.0-4.0-1.0-1.40","1","0","ku7e6ahkgc8s7r0","","378.10000002384186","","Was the sound coming from the left or the right?","1","","","0","INDUCTION-JUDGMENT","left","0","","","","","","","","","","","","","","","","","","","","","","","","","","",""
"html-keyboard-response","143","634309","0.0-4.0-1.0-2.40","1","0","ku7e6ahkgc8s7r0","","null","","<p style=""color:#690000;""><b>Incorrect!</b></p>","","null","","","","","","","","","","","","","","","","","","","","","","","","","","","","","","","",""
"audio-keyboard-response","144","635123","0.0-4.0-1.0-0.41","1","0","ku7e6ahkgc8s7r0","","null","","sounds/induction/left_rev/fe_SWS.wav","","null","","","","","","","","","","","","","","","","","","","","","","","","","","","","","","","",""
"html-button-response","145","635284","0.0-4.0-1.0-1.41","1","0","ku7e6ahkgc8s7r0","","160.09999990463257","","Was the sound coming from the left or the right?","0","","","1","INDUCTION-JUDGMENT","left","0","","","","","","","","","","","","","","","","","","","","","","","","","","",""
"html-keyboard-response","146","636290","0.0-4.0-1.0-2.41","1","0","ku7e6ahkgc8s7r0","","null","","<p style=""color:#054d00;""><b>Correct!</b></p>","","null","","","","","","","","","","","","","","","","","","","","","","","","","","","","","","","",""
"audio-keyboard-response","147","637114","0.0-4.0-1.0-0.42","1","0","ku7e6ahkgc8s7r0","","null","","sounds/induction/right_rev/me_SWS.wav","","null","","","","","","","","","","","","","","","","","","","","","","","","","","","","","","","",""
"html-button-response","148","637482","0.0-4.0-1.0-1.42","1","0","ku7e6ahkgc8s7r0","","367.39999997615814","","Was the sound coming from the left or the right?","0","","","0","INDUCTION-JUDGMENT","right","1","","","","","","","","","","","","","","","","","","","","","","","","","","",""
"html-keyboard-response","149","638494","0.0-4.0-1.0-2.42","1","0","ku7e6ahkgc8s7r0","","null","","<p style=""color:#690000;""><b>Incorrect!</b></p>","","null","","","","","","","","","","","","","","","","","","","","","","","","","","","","","","","",""
"audio-keyboard-response","150","639315","0.0-4.0-1.0-0.43","1","0","ku7e6ahkgc8s7r0","","null","","sounds/induction/left_rev/me_SWS.wav","","null","","","","","","","","","","","","","","","","","","","","","","","","","","","","","","","",""
"html-button-response","151","639727","0.0-4.0-1.0-1.43","1","0","ku7e6ahkgc8s7r0","","411.2000000476837","","Was the sound coming from the left or the right?","0","","","1","INDUCTION-JUDGMENT","left","0","","","","","","","","","","","","","","","","","","","","","","","","","","",""
"html-keyboard-response","152","640729","0.0-4.0-1.0-2.43","1","0","ku7e6ahkgc8s7r0","","null","","<p style=""color:#054d00;""><b>Correct!</b></p>","","null","","","","","","","","","","","","","","","","","","","","","","","","","","","","","","","",""
"audio-keyboard-response","153","641555","0.0-4.0-1.0-0.44","1","0","ku7e6ahkgc8s7r0","","null","","sounds/induction/left_rev/ru_SWS.wav","","null","","","","","","","","","","","","","","","","","","","","","","","","","","","","","","","",""
"html-button-response","154","641967","0.0-4.0-1.0-1.44","1","0","ku7e6ahkgc8s7r0","","411.2999999523163","","Was the sound coming from the left or the right?","0","","","1","INDUCTION-JUDGMENT","left","0","","","","","","","","","","","","","","","","","","","","","","","","","","",""
"html-keyboard-response","155","642976","0.0-4.0-1.0-2.44","1","0","ku7e6ahkgc8s7r0","","null","","<p style=""color:#054d00;""><b>Correct!</b></p>","","null","","","","","","","","","","","","","","","","","","","","","","","","","","","","","","","",""
"audio-keyboard-response","156","643793","0.0-4.0-1.0-0.45","1","0","ku7e6ahkgc8s7r0","","null","","sounds/induction/right_rev/ni_SWS.wav","","null","","","","","","","","","","","","","","","","","","","","","","","","","","","","","","","",""
"html-button-response","157","644064","0.0-4.0-1.0-1.45","1","0","ku7e6ahkgc8s7r0","","270","","Was the sound coming from the left or the right?","0","","","0","INDUCTION-JUDGMENT","right","1","","","","","","","","","","","","","","","","","","","","","","","","","","",""
"html-keyboard-response","158","645065","0.0-4.0-1.0-2.45","1","0","ku7e6ahkgc8s7r0","","null","","<p style=""color:#690000;""><b>Incorrect!</b></p>","","null","","","","","","","","","","","","","","","","","","","","","","","","","","","","","","","",""
"audio-keyboard-response","159","645875","0.0-4.0-1.0-0.46","1","0","ku7e6ahkgc8s7r0","","null","","sounds/induction/left_rev/fu_SWS.wav","","null","","","","","","","","","","","","","","","","","","","","","","","","","","","","","","","",""
"html-button-response","160","646270","0.0-4.0-1.0-1.46","1","0","ku7e6ahkgc8s7r0","","394.2000000476837","","Was the sound coming from the left or the right?","1","","","0","INDUCTION-JUDGMENT","left","0","","","","","","","","","","","","","","","","","","","","","","","","","","",""
"html-keyboard-response","161","647283","0.0-4.0-1.0-2.46","1","0","ku7e6ahkgc8s7r0","","null","","<p style=""color:#690000;""><b>Incorrect!</b></p>","","null","","","","","","","","","","","","","","","","","","","","","","","","","","","","","","","",""
"audio-keyboard-response","162","648085","0.0-4.0-1.0-0.47","1","0","ku7e6ahkgc8s7r0","","null","","sounds/induction/left_rev/ta_SWS.wav","","null","","","","","","","","","","","","","","","","","","","","","","","","","","","","","","","",""
"html-button-response","163","648795","0.0-4.0-1.0-1.47","1","0","ku7e6ahkgc8s7r0","","709","","Was the sound coming from the left or the right?","0","","","1","INDUCTION-JUDGMENT","left","0","","","","","","","","","","","","","","","","","","","","","","","","","","",""
"html-keyboard-response","164","649808","0.0-4.0-1.0-2.47","1","0","ku7e6ahkgc8s7r0","","null","","<p style=""color:#054d00;""><b>Correct!</b></p>","","null","","","","","","","","","","","","","","","","","","","","","","","","","","","","","","","",""
"html-button-response","165","652526","0.0-5.0-0.0","1","0","ku7e6ahkgc8s7r0","","2216.600000023842","","<p>Thank you for your answers.</p><p>You will now listen to similar sounds. The main difference is that the sounds will be longer.</p><p>Just as before, you will be asked to judge whether the sound was coming from the left or the right.</p><p>There are 10 of these longer sounds in total.","0","","","","","","","","","","","","","","","","","","","","","","","","","","","","","","","","",""
"audio-keyboard-response","166","655654","0.0-5.0-1.0-0.0","1","0","ku7e6ahkgc8s7r0","","null","","sounds/sentences/left_rev/14_01_cfSWS.wav","","null","","","","","","","","","","","","","","","","","","","","","","","","","","","","","","","",""
"html-button-response","167","657054","0.0-5.0-1.0-1.0","1","0","ku7e6ahkgc8s7r0","","1399.5","","Was the sound coming from the left or the right?","1","","","0","INDUCTION-JUDGMENT","left","0","","","","","","","","","","","","","","","","","","","","","","","","","","",""
"html-keyboard-response","168","658055","0.0-5.0-1.0-2.0","1","0","ku7e6ahkgc8s7r0","","null","","<p style=""color:#690000;""><b>Incorrect!</b></p>","","null","","","","","","","","","","","","","","","","","","","","","","","","","","","","","","","",""
"html-button-response","169","659112","0.0-5.0-1.0-3.0","1","0","ku7e6ahkgc8s7r0","","554.5","","<p>Press the button below when you are ready to continue.</p>","0","","","","","","","","","","","","","","","","","","","","","","","","","","","","","","","","",""
"audio-keyboard-response","170","662003","0.0-5.0-1.0-0.1","1","0","ku7e6ahkgc8s7r0","","null","","sounds/sentences/right_rev/14_07_cfSWS.wav","","null","","","","","","","","","","","","","","","","","","","","","","","","","","","","","","","",""
"html-button-response","171","662712","0.0-5.0-1.0-1.1","1","0","ku7e6ahkgc8s7r0","","707.7000000476837","","Was the sound coming from the left or the right?","0","","","0","INDUCTION-JUDGMENT","right","1","","","","","","","","","","","","","","","","","","","","","","","","","","",""
"html-keyboard-response","172","663724","0.0-5.0-1.0-2.1","1","0","ku7e6ahkgc8s7r0","","null","","<p style=""color:#690000;""><b>Incorrect!</b></p>","","null","","","","","","","","","","","","","","","","","","","","","","","","","","","","","","","",""
"html-button-response","173","665081","0.0-5.0-1.0-3.1","1","0","ku7e6ahkgc8s7r0","","845.3999999761581","","<p>Press the button below when you are ready to continue.</p>","0","","","","","","","","","","","","","","","","","","","","","","","","","","","","","","","","",""
"audio-keyboard-response","174","667664","0.0-5.0-1.0-0.2","1","0","ku7e6ahkgc8s7r0","","null","","sounds/sentences/left_rev/14_03_cfSWS.wav","","null","","","","","","","","","","","","","","","","","","","","","","","","","","","","","","","",""
"html-button-response","175","669394","0.0-5.0-1.0-1.2","1","0","ku7e6ahkgc8s7r0","","1729.5","","Was the sound coming from the left or the right?","1","","","0","INDUCTION-JUDGMENT","left","0","","","","","","","","","","","","","","","","","","","","","","","","","","",""
"html-keyboard-response","176","670405","0.0-5.0-1.0-2.2","1","0","ku7e6ahkgc8s7r0","","null","","<p style=""color:#690000;""><b>Incorrect!</b></p>","","null","","","","","","","","","","","","","","","","","","","","","","","","","","","","","","","",""
"html-button-response","177","671955","0.0-5.0-1.0-3.2","1","0","ku7e6ahkgc8s7r0","","1048","","<p>Press the button below when you are ready to continue.</p>","0","","","","","","","","","","","","","","","","","","","","","","","","","","","","","","","","",""
"audio-keyboard-response","178","674725","0.0-5.0-1.0-0.3","1","0","ku7e6ahkgc8s7r0","","null","","sounds/sentences/right_rev/14_08_cfSWS.wav","","null","","","","","","","","","","","","","","","","","","","","","","","","","","","","","","","",""
"html-button-response","179","675407","0.0-5.0-1.0-1.3","1","0","ku7e6ahkgc8s7r0","","681.0999999046326","","Was the sound coming from the left or the right?","0","","","0","INDUCTION-JUDGMENT","right","1","","","","","","","","","","","","","","","","","","","","","","","","","","",""
"html-keyboard-response","180","676412","0.0-5.0-1.0-2.3","1","0","ku7e6ahkgc8s7r0","","null","","<p style=""color:#690000;""><b>Incorrect!</b></p>","","null","","","","","","","","","","","","","","","","","","","","","","","","","","","","","","","",""
"html-button-response","181","677724","0.0-5.0-1.0-3.3","1","0","ku7e6ahkgc8s7r0","","811.2000000476837","","<p>Press the button below when you are ready to continue.</p>","0","","","","","","","","","","","","","","","","","","","","","","","","","","","","","","","","",""
"audio-keyboard-response","182","680464","0.0-5.0-1.0-0.4","1","0","ku7e6ahkgc8s7r0","","null","","sounds/sentences/right_rev/14_09_cfSWS.wav","","null","","","","","","","","","","","","","","","","","","","","","","","","","","","","","","","",""
"html-button-response","183","681395","0.0-5.0-1.0-1.4","1","0","ku7e6ahkgc8s7r0","","930.2000000476837","","Was the sound coming from the left or the right?","1","","","1","INDUCTION-JUDGMENT","right","1","","","","","","","","","","","","","","","","","","","","","","","","","","",""
"html-keyboard-response","184","682404","0.0-5.0-1.0-2.4","1","0","ku7e6ahkgc8s7r0","","null","","<p style=""color:#054d00;""><b>Correct!</b></p>","","null","","","","","","","","","","","","","","","","","","","","","","","","","","","","","","","",""
"html-button-response","185","683494","0.0-5.0-1.0-3.4","1","0","ku7e6ahkgc8s7r0","","575.6000000238419","","<p>Press the button below when you are ready to continue.</p>","0","","","","","","","","","","","","","","","","","","","","","","","","","","","","","","","","",""
"audio-keyboard-response","186","686495","0.0-5.0-1.0-0.5","1","0","ku7e6ahkgc8s7r0","","null","","sounds/sentences/left_rev/14_05_cfSWS.wav","","null","","","","","","","","","","","","","","","","","","","","","","","","","","","","","","","",""
"html-button-response","187","687082","0.0-5.0-1.0-1.5","1","0","ku7e6ahkgc8s7r0","","583.7999999523163","","Was the sound coming from the left or the right?","1","","","0","INDUCTION-JUDGMENT","left","0","","","","","","","","","","","","","","","","","","","","","","","","","","",""
"html-keyboard-response","188","688088","0.0-5.0-1.0-2.5","1","0","ku7e6ahkgc8s7r0","","null","","<p style=""color:#690000;""><b>Incorrect!</b></p>","","null","","","","","","","","","","","","","","","","","","","","","","","","","","","","","","","",""
"html-button-response","189","689135","0.0-5.0-1.0-3.5","1","0","ku7e6ahkgc8s7r0","","532.5","","<p>Press the button below when you are ready to continue.</p>","0","","","","","","","","","","","","","","","","","","","","","","","","","","","","","","","","",""
"audio-keyboard-response","190","691895","0.0-5.0-1.0-0.6","1","0","ku7e6ahkgc8s7r0","","null","","sounds/sentences/right_rev/14_06_cfSWS.wav","","null","","","","","","","","","","","","","","","","","","","","","","","","","","","","","","","",""
"html-button-response","191","692534","0.0-5.0-1.0-1.6","1","0","ku7e6ahkgc8s7r0","","637.1000000238419","","Was the sound coming from the left or the right?","0","","","0","INDUCTION-JUDGMENT","right","1","","","","","","","","","","","","","","","","","","","","","","","","","","",""
"html-keyboard-response","192","693544","0.0-5.0-1.0-2.6","1","0","ku7e6ahkgc8s7r0","","null","","<p style=""color:#690000;""><b>Incorrect!</b></p>","","null","","","","","","","","","","","","","","","","","","","","","","","","","","","","","","","",""
"html-button-response","193","694464","0.0-5.0-1.0-3.6","1","0","ku7e6ahkgc8s7r0","","417.7000000476837","","<p>Press the button below when you are ready to continue.</p>","0","","","","","","","","","","","","","","","","","","","","","","","","","","","","","","","","",""
"audio-keyboard-response","194","697285","0.0-5.0-1.0-0.7","1","0","ku7e6ahkgc8s7r0","","null","","sounds/sentences/left_rev/14_02_cfSWS.wav","","null","","","","","","","","","","","","","","","","","","","","","","","","","","","","","","","",""
"html-button-response","195","697747","0.0-5.0-1.0-1.7","1","0","ku7e6ahkgc8s7r0","","461.39999997615814","","Was the sound coming from the left or the right?","1","","","0","INDUCTION-JUDGMENT","left","0","","","","","","","","","","","","","","","","","","","","","","","","","","",""
"html-keyboard-response","196","698749","0.0-5.0-1.0-2.7","1","0","ku7e6ahkgc8s7r0","","null","","<p style=""color:#690000;""><b>Incorrect!</b></p>","","null","","","","","","","","","","","","","","","","","","","","","","","","","","","","","","","",""
"html-button-response","197","699796","0.0-5.0-1.0-3.7","1","0","ku7e6ahkgc8s7r0","","529.6000000238419","","<p>Press the button below when you are ready to continue.</p>","0","","","","","","","","","","","","","","","","","","","","","","","","","","","","","","","","",""
"audio-keyboard-response","198","702365","0.0-5.0-1.0-0.8","1","0","ku7e6ahkgc8s7r0","","null","","sounds/sentences/left_rev/14_04_cfSWS.wav","","null","","","","","","","","","","","","","","","","","","","","","","","","","","","","","","","",""
"html-button-response","199","703079","0.0-5.0-1.0-1.8","1","0","ku7e6ahkgc8s7r0","","712.5999999046326","","Was the sound coming from the left or the right?","0","","","1","INDUCTION-JUDGMENT","left","0","","","","","","","","","","","","","","","","","","","","","","","","","","",""
"html-keyboard-response","200","704091","0.0-5.0-1.0-2.8","1","0","ku7e6ahkgc8s7r0","","null","","<p style=""color:#054d00;""><b>Correct!</b></p>","","null","","","","","","","","","","","","","","","","","","","","","","","","","","","","","","","",""
"html-button-response","201","705192","0.0-5.0-1.0-3.8","1","0","ku7e6ahkgc8s7r0","","583.7000000476837","","<p>Press the button below when you are ready to continue.</p>","0","","","","","","","","","","","","","","","","","","","","","","","","","","","","","","","","",""
"audio-keyboard-response","202","708214","0.0-5.0-1.0-0.9","1","0","ku7e6ahkgc8s7r0","","null","","sounds/sentences/right_rev/14_10_cfSWS.wav","","null","","","","","","","","","","","","","","","","","","","","","","","","","","","","","","","",""
"html-button-response","203","709982","0.0-5.0-1.0-1.9","1","0","ku7e6ahkgc8s7r0","","1768.2000000476837","","Was the sound coming from the left or the right?","0","","","0","INDUCTION-JUDGMENT","right","1","","","","","","","","","","","","","","","","","","","","","","","","","","",""
"html-keyboard-response","204","710984","0.0-5.0-1.0-2.9","1","0","ku7e6ahkgc8s7r0","","null","","<p style=""color:#690000;""><b>Incorrect!</b></p>","","null","","","","","","","","","","","","","","","","","","","","","","","","","","","","","","","",""
"html-button-response","205","711975","0.0-5.0-1.0-3.9","1","0","ku7e6ahkgc8s7r0","","475.5","","<p>Press the button below when you are ready to continue.</p>","0","","","","","","","","","","","","","","","","","","","","","","","","","","","","","","","","",""
"html-keyboard-response","206","713637","0.0-6.0-0.0","1","0","ku7e6ahkgc8s7r0","","1154.7000000476837","","<p>In this part of the study, you will hear sounds similar to those you just heard.</p><p>Please focus on these sounds, as you may be asked questions about them later.</p><p>Occasionally, the sounds will pause for up to two seconds. When this happens, please press SPACEBAR as quickly as you can.</br>This helps ensure that you are paying attention to the sounds.</p><p>This part of the study will take about 12 minutes to complete, and you will be given the opportunity to take a couple of short breaks every few minutes.</p><p><strong>Press SPACEBAR to begin</strong></p>","","32","","","","","","","","","","","","","","","","","","","","","","","","","","","","","","","",""
"html-keyboard-response","207","714639","0.0-6.0-1.0-0.0","1","0","ku7e6ahkgc8s7r0","","null","","<p style=""font-size: 40px;"">+</p>","","null","","","","","","","","","","","","","","","","","","","","","","","","","","","","","","","",""
"html-keyboard-response","208","899642","0.0-6.0-1.0-1.0","1","0","ku7e6ahkgc8s7r0","","null","","","","null","","","SL-TRAIN","","","2","null","null","sounds/A/TRAIN/SEQ__03.mp3","6","","","","","","","","","","","","","","","","","","","","","",""
"html-button-response","209","908542","0.0-6.0-1.0-2.0","1","0","ku7e6ahkgc8s7r0","","8899.399999976158","","<p>You may take a short break if you wish.</p>","0","","","","","","","","","","","","","","","","","","","","","","","","","","","","","","","","",""
"html-keyboard-response","210","909544","0.0-6.0-1.0-3.0","1","0","ku7e6ahkgc8s7r0","","null","","<p style=""font-size: 40px;"">+</p>","","null","","","","","","","","","","","","","","","","","","","","","","","","","","","","","","","",""
"html-keyboard-response","211","1094550","0.0-6.0-1.0-4.0","1","0","ku7e6ahkgc8s7r0","","null","","","","null","","","SL-TRAIN","","","2","null","null","sounds/A/TRAIN/SEQ__06.mp3","306","","","","","","","","","","","","","","","","","","","","","",""
"html-button-response","212","1098833","0.0-6.0-1.0-5.0","1","0","ku7e6ahkgc8s7r0","","4281.600000023842","","<p>You may take a short break if you wish.</p>","0","","","","","","","","","","","","","","","","","","","","","","","","","","","","","","","","",""
"html-keyboard-response","213","1099836","0.0-6.0-1.0-6.0","1","0","ku7e6ahkgc8s7r0","","null","","<p style=""font-size: 40px;"">+</p>","","null","","","","","","","","","","","","","","","","","","","","","","","","","","","","","","","",""
"html-keyboard-response","214","1284838","0.0-6.0-1.0-7.0","1","0","ku7e6ahkgc8s7r0","","null","","","","null","","","SL-TRAIN","","","2","null","null","sounds/A/TRAIN/SEQ__07.mp3","15","","","","","","","","","","","","","","","","","","","","","",""
"html-button-response","215","1319862","0.0-6.0-1.0-8.0","1","0","ku7e6ahkgc8s7r0","","35022.5","","<p>You may take a short break if you wish.</p>","0","","","","","","","","","","","","","","","","","","","","","","","","","","","","","","","","",""
"html-keyboard-response","216","1320867","0.0-6.0-1.0-9.0","1","0","ku7e6ahkgc8s7r0","","null","","<p style=""font-size: 40px;"">+</p>","","null","","","","","","","","","","","","","","","","","","","","","","","","","","","","","","","",""
"html-keyboard-response","217","1505869","0.0-6.0-1.0-10.0","1","0","ku7e6ahkgc8s7r0","","null","","","","null","","","SL-TRAIN","","","1","1609.8000000715256","null","sounds/A/TRAIN/SEQ__11.mp3","1360","","","","","","","","","","","","","","","","","","","","","",""
"html-button-response","218","1532639","0.0-6.0-1.0-11.0","1","0","ku7e6ahkgc8s7r0","","26769.400000095367","","<p>You may take a short break if you wish.</p>","0","","","","","","","","","","","","","","","","","","","","","","","","","","","","","","","","",""
"html-button-response","219","3675313","0.0-7.0-0.0","1","0","ku7e6ahkgc8s7r0","","2142674","","<p>Welcome to the second part of the study. This is a <u>familiarity task</u>.</p><p>You will now hear short sounds and will be asked to rate how familiar they sound to you <b>based on what you heard in the previous part of the study</b>.</p><p>You will rate 12 sounds in total.</p>","0","","","","","","","","","","","","","","","","","","","","","","","","","","","","","","","","",""
"html-keyboard-response","220","3676315","0.0-7.0-1.0-0.0","1","0","ku7e6ahkgc8s7r0","","null","","","","null","","","","","","","","","","","","","","","","","","","","","","","","","","","","","","","",""
"audio-keyboard-response","221","3677339","0.0-7.0-1.0-1.0","1","0","ku7e6ahkgc8s7r0","","null","","sounds/A/FAM/P003.mp3","","null","","","","","","","","","","","","","","","","","","","","","","","","","","","","","","","",""
"html-keyboard-response","222","3679320","0.0-7.0-1.0-2.0","1","0","ku7e6ahkgc8s7r0","","1478.1999999284744","","<p>How familiar did this sound to you?</p><p>1&nbsp;&nbsp;&nbsp;&nbsp;&nbsp;&nbsp;&nbsp;&nbsp;&nbsp;&nbsp;&nbsp;&nbsp;&nbsp;&nbsp;&nbsp;&nbsp;&nbsp;&nbsp;&nbsp;2&nbsp;&nbsp;&nbsp;&nbsp;&nbsp;&nbsp;&nbsp;&nbsp;&nbsp;&nbsp;&nbsp;&nbsp;&nbsp;&nbsp;&nbsp;&nbsp;&nbsp;&nbsp;&nbsp;3&nbsp;&nbsp;&nbsp;&nbsp;&nbsp;&nbsp;&nbsp;&nbsp;&nbsp;&nbsp;&nbsp;&nbsp;&nbsp;&nbsp;&nbsp;&nbsp;&nbsp;&nbsp;&nbsp;4</p><p style=""font-size:14px"">Not at all familiar&nbsp;&nbsp;&nbsp;&nbsp;A little familiar&nbsp;&nbsp;&nbsp;Moderately familiar&nbsp;&nbsp;&nbsp;Extremely familiar</p><p>(press the corresponding number on your keyboard)</p>","","50","","","FAM-RESPONSE","","","","","","","","sounds/A/FAM/P003.mp3","partword","","","","","","","","","","","","","","","","","","","",""
"html-keyboard-response","223","3681334","0.0-7.0-1.0-0.1","1","0","ku7e6ahkgc8s7r0","","null","","","","null","","","","","","","","","","","","","","","","","","","","","","","","","","","","","","","",""
"audio-keyboard-response","224","3682269","0.0-7.0-1.0-1.1","1","0","ku7e6ahkgc8s7r0","","null","","sounds/A/FAM/N002.mp3","","null","","","","","","","","","","","","","","","","","","","","","","","","","","","","","","","",""
"html-keyboard-response","225","3683237","0.0-7.0-1.0-2.1","1","0","ku7e6ahkgc8s7r0","","465.6999999284744","","<p>How familiar did this sound to you?</p><p>1&nbsp;&nbsp;&nbsp;&nbsp;&nbsp;&nbsp;&nbsp;&nbsp;&nbsp;&nbsp;&nbsp;&nbsp;&nbsp;&nbsp;&nbsp;&nbsp;&nbsp;&nbsp;&nbsp;2&nbsp;&nbsp;&nbsp;&nbsp;&nbsp;&nbsp;&nbsp;&nbsp;&nbsp;&nbsp;&nbsp;&nbsp;&nbsp;&nbsp;&nbsp;&nbsp;&nbsp;&nbsp;&nbsp;3&nbsp;&nbsp;&nbsp;&nbsp;&nbsp;&nbsp;&nbsp;&nbsp;&nbsp;&nbsp;&nbsp;&nbsp;&nbsp;&nbsp;&nbsp;&nbsp;&nbsp;&nbsp;&nbsp;4</p><p style=""font-size:14px"">Not at all familiar&nbsp;&nbsp;&nbsp;&nbsp;A little familiar&nbsp;&nbsp;&nbsp;Moderately familiar&nbsp;&nbsp;&nbsp;Extremely familiar</p><p>(press the corresponding number on your keyboard)</p>","","49","","","FAM-RESPONSE","","","","","","","","sounds/A/FAM/N002.mp3","nonword","","","","","","","","","","","","","","","","","","","",""
"html-keyboard-response","226","3685262","0.0-7.0-1.0-0.2","1","0","ku7e6ahkgc8s7r0","","null","","","","null","","","","","","","","","","","","","","","","","","","","","","","","","","","","","","","",""
"audio-keyboard-response","227","3686209","0.0-7.0-1.0-1.2","1","0","ku7e6ahkgc8s7r0","","null","","sounds/A/FAM/P004.mp3","","null","","","","","","","","","","","","","","","","","","","","","","","","","","","","","","","",""
"html-keyboard-response","228","3687005","0.0-7.0-1.0-2.2","1","0","ku7e6ahkgc8s7r0","","288.10000002384186","","<p>How familiar did this sound to you?</p><p>1&nbsp;&nbsp;&nbsp;&nbsp;&nbsp;&nbsp;&nbsp;&nbsp;&nbsp;&nbsp;&nbsp;&nbsp;&nbsp;&nbsp;&nbsp;&nbsp;&nbsp;&nbsp;&nbsp;2&nbsp;&nbsp;&nbsp;&nbsp;&nbsp;&nbsp;&nbsp;&nbsp;&nbsp;&nbsp;&nbsp;&nbsp;&nbsp;&nbsp;&nbsp;&nbsp;&nbsp;&nbsp;&nbsp;3&nbsp;&nbsp;&nbsp;&nbsp;&nbsp;&nbsp;&nbsp;&nbsp;&nbsp;&nbsp;&nbsp;&nbsp;&nbsp;&nbsp;&nbsp;&nbsp;&nbsp;&nbsp;&nbsp;4</p><p style=""font-size:14px"">Not at all familiar&nbsp;&nbsp;&nbsp;&nbsp;A little familiar&nbsp;&nbsp;&nbsp;Moderately familiar&nbsp;&nbsp;&nbsp;Extremely familiar</p><p>(press the corresponding number on your keyboard)</p>","","51","","","FAM-RESPONSE","","","","","","","","sounds/A/FAM/P004.mp3","partword","","","","","","","","","","","","","","","","","","","",""
"html-keyboard-response","229","3689024","0.0-7.0-1.0-0.3","1","0","ku7e6ahkgc8s7r0","","null","","","","null","","","","","","","","","","","","","","","","","","","","","","","","","","","","","","","",""
"audio-keyboard-response","230","3689969","0.0-7.0-1.0-1.3","1","0","ku7e6ahkgc8s7r0","","null","","sounds/A/FAM/N003.mp3","","null","","","","","","","","","","","","","","","","","","","","","","","","","","","","","","","",""
"html-keyboard-response","231","3690780","0.0-7.0-1.0-2.3","1","0","ku7e6ahkgc8s7r0","","306.5","","<p>How familiar did this sound to you?</p><p>1&nbsp;&nbsp;&nbsp;&nbsp;&nbsp;&nbsp;&nbsp;&nbsp;&nbsp;&nbsp;&nbsp;&nbsp;&nbsp;&nbsp;&nbsp;&nbsp;&nbsp;&nbsp;&nbsp;2&nbsp;&nbsp;&nbsp;&nbsp;&nbsp;&nbsp;&nbsp;&nbsp;&nbsp;&nbsp;&nbsp;&nbsp;&nbsp;&nbsp;&nbsp;&nbsp;&nbsp;&nbsp;&nbsp;3&nbsp;&nbsp;&nbsp;&nbsp;&nbsp;&nbsp;&nbsp;&nbsp;&nbsp;&nbsp;&nbsp;&nbsp;&nbsp;&nbsp;&nbsp;&nbsp;&nbsp;&nbsp;&nbsp;4</p><p style=""font-size:14px"">Not at all familiar&nbsp;&nbsp;&nbsp;&nbsp;A little familiar&nbsp;&nbsp;&nbsp;Moderately familiar&nbsp;&nbsp;&nbsp;Extremely familiar</p><p>(press the corresponding number on your keyboard)</p>","","52","","","FAM-RESPONSE","","","","","","","","sounds/A/FAM/N003.mp3","nonword","","","","","","","","","","","","","","","","","","","",""
"html-keyboard-response","232","3692808","0.0-7.0-1.0-0.4","1","0","ku7e6ahkgc8s7r0","","null","","","","null","","","","","","","","","","","","","","","","","","","","","","","","","","","","","","","",""
"audio-keyboard-response","233","3693749","0.0-7.0-1.0-1.4","1","0","ku7e6ahkgc8s7r0","","null","","sounds/A/FAM/W003.mp3","","null","","","","","","","","","","","","","","","","","","","","","","","","","","","","","","","",""
"html-keyboard-response","234","3694299","0.0-7.0-1.0-2.4","1","0","ku7e6ahkgc8s7r0","","43.5","","<p>How familiar did this sound to you?</p><p>1&nbsp;&nbsp;&nbsp;&nbsp;&nbsp;&nbsp;&nbsp;&nbsp;&nbsp;&nbsp;&nbsp;&nbsp;&nbsp;&nbsp;&nbsp;&nbsp;&nbsp;&nbsp;&nbsp;2&nbsp;&nbsp;&nbsp;&nbsp;&nbsp;&nbsp;&nbsp;&nbsp;&nbsp;&nbsp;&nbsp;&nbsp;&nbsp;&nbsp;&nbsp;&nbsp;&nbsp;&nbsp;&nbsp;3&nbsp;&nbsp;&nbsp;&nbsp;&nbsp;&nbsp;&nbsp;&nbsp;&nbsp;&nbsp;&nbsp;&nbsp;&nbsp;&nbsp;&nbsp;&nbsp;&nbsp;&nbsp;&nbsp;4</p><p style=""font-size:14px"">Not at all familiar&nbsp;&nbsp;&nbsp;&nbsp;A little familiar&nbsp;&nbsp;&nbsp;Moderately familiar&nbsp;&nbsp;&nbsp;Extremely familiar</p><p>(press the corresponding number on your keyboard)</p>","","50","","","FAM-RESPONSE","","","","","","","","sounds/A/FAM/W003.mp3","word","","","","","","","","","","","","","","","","","","","",""
"html-keyboard-response","235","3696316","0.0-7.0-1.0-0.5","1","0","ku7e6ahkgc8s7r0","","null","","","","null","","","","","","","","","","","","","","","","","","","","","","","","","","","","","","","",""
"audio-keyboard-response","236","3697259","0.0-7.0-1.0-1.5","1","0","ku7e6ahkgc8s7r0","","null","","sounds/A/FAM/P002.mp3","","null","","","","","","","","","","","","","","","","","","","","","","","","","","","","","","","",""
"html-keyboard-response","237","3697960","0.0-7.0-1.0-2.5","1","0","ku7e6ahkgc8s7r0","","191.59999990463257","","<p>How familiar did this sound to you?</p><p>1&nbsp;&nbsp;&nbsp;&nbsp;&nbsp;&nbsp;&nbsp;&nbsp;&nbsp;&nbsp;&nbsp;&nbsp;&nbsp;&nbsp;&nbsp;&nbsp;&nbsp;&nbsp;&nbsp;2&nbsp;&nbsp;&nbsp;&nbsp;&nbsp;&nbsp;&nbsp;&nbsp;&nbsp;&nbsp;&nbsp;&nbsp;&nbsp;&nbsp;&nbsp;&nbsp;&nbsp;&nbsp;&nbsp;3&nbsp;&nbsp;&nbsp;&nbsp;&nbsp;&nbsp;&nbsp;&nbsp;&nbsp;&nbsp;&nbsp;&nbsp;&nbsp;&nbsp;&nbsp;&nbsp;&nbsp;&nbsp;&nbsp;4</p><p style=""font-size:14px"">Not at all familiar&nbsp;&nbsp;&nbsp;&nbsp;A little familiar&nbsp;&nbsp;&nbsp;Moderately familiar&nbsp;&nbsp;&nbsp;Extremely familiar</p><p>(press the corresponding number on your keyboard)</p>","","51","","","FAM-RESPONSE","","","","","","","","sounds/A/FAM/P002.mp3","partword","","","","","","","","","","","","","","","","","","","",""
"html-keyboard-response","238","3699984","0.0-7.0-1.0-0.6","1","0","ku7e6ahkgc8s7r0","","null","","","","null","","","","","","","","","","","","","","","","","","","","","","","","","","","","","","","",""
"audio-keyboard-response","239","3700929","0.0-7.0-1.0-1.6","1","0","ku7e6ahkgc8s7r0","","null","","sounds/A/FAM/N004.mp3","","null","","","","","","","","","","","","","","","","","","","","","","","","","","","","","","","",""
"html-keyboard-response","240","3701480","0.0-7.0-1.0-2.6","1","0","ku7e6ahkgc8s7r0","","41.89999997615814","","<p>How familiar did this sound to you?</p><p>1&nbsp;&nbsp;&nbsp;&nbsp;&nbsp;&nbsp;&nbsp;&nbsp;&nbsp;&nbsp;&nbsp;&nbsp;&nbsp;&nbsp;&nbsp;&nbsp;&nbsp;&nbsp;&nbsp;2&nbsp;&nbsp;&nbsp;&nbsp;&nbsp;&nbsp;&nbsp;&nbsp;&nbsp;&nbsp;&nbsp;&nbsp;&nbsp;&nbsp;&nbsp;&nbsp;&nbsp;&nbsp;&nbsp;3&nbsp;&nbsp;&nbsp;&nbsp;&nbsp;&nbsp;&nbsp;&nbsp;&nbsp;&nbsp;&nbsp;&nbsp;&nbsp;&nbsp;&nbsp;&nbsp;&nbsp;&nbsp;&nbsp;4</p><p style=""font-size:14px"">Not at all familiar&nbsp;&nbsp;&nbsp;&nbsp;A little familiar&nbsp;&nbsp;&nbsp;Moderately familiar&nbsp;&nbsp;&nbsp;Extremely familiar</p><p>(press the corresponding number on your keyboard)</p>","","49","","","FAM-RESPONSE","","","","","","","","sounds/A/FAM/N004.mp3","nonword","","","","","","","","","","","","","","","","","","","",""
"html-keyboard-response","241","3703496","0.0-7.0-1.0-0.7","1","0","ku7e6ahkgc8s7r0","","null","","","","null","","","","","","","","","","","","","","","","","","","","","","","","","","","","","","","",""
"audio-keyboard-response","242","3704449","0.0-7.0-1.0-1.7","1","0","ku7e6ahkgc8s7r0","","null","","sounds/A/FAM/N001.mp3","","null","","","","","","","","","","","","","","","","","","","","","","","","","","","","","","","",""
"html-keyboard-response","243","3705030","0.0-7.0-1.0-2.7","1","0","ku7e6ahkgc8s7r0","","66.59999990463257","","<p>How familiar did this sound to you?</p><p>1&nbsp;&nbsp;&nbsp;&nbsp;&nbsp;&nbsp;&nbsp;&nbsp;&nbsp;&nbsp;&nbsp;&nbsp;&nbsp;&nbsp;&nbsp;&nbsp;&nbsp;&nbsp;&nbsp;2&nbsp;&nbsp;&nbsp;&nbsp;&nbsp;&nbsp;&nbsp;&nbsp;&nbsp;&nbsp;&nbsp;&nbsp;&nbsp;&nbsp;&nbsp;&nbsp;&nbsp;&nbsp;&nbsp;3&nbsp;&nbsp;&nbsp;&nbsp;&nbsp;&nbsp;&nbsp;&nbsp;&nbsp;&nbsp;&nbsp;&nbsp;&nbsp;&nbsp;&nbsp;&nbsp;&nbsp;&nbsp;&nbsp;4</p><p style=""font-size:14px"">Not at all familiar&nbsp;&nbsp;&nbsp;&nbsp;A little familiar&nbsp;&nbsp;&nbsp;Moderately familiar&nbsp;&nbsp;&nbsp;Extremely familiar</p><p>(press the corresponding number on your keyboard)</p>","","52","","","FAM-RESPONSE","","","","","","","","sounds/A/FAM/N001.mp3","nonword","","","","","","","","","","","","","","","","","","","",""
"html-keyboard-response","244","3707048","0.0-7.0-1.0-0.8","1","0","ku7e6ahkgc8s7r0","","null","","","","null","","","","","","","","","","","","","","","","","","","","","","","","","","","","","","","",""
"audio-keyboard-response","245","3707989","0.0-7.0-1.0-1.8","1","0","ku7e6ahkgc8s7r0","","null","","sounds/A/FAM/W001.mp3","","null","","","","","","","","","","","","","","","","","","","","","","","","","","","","","","","",""
"html-keyboard-response","246","3708672","0.0-7.0-1.0-2.8","1","0","ku7e6ahkgc8s7r0","","175","","<p>How familiar did this sound to you?</p><p>1&nbsp;&nbsp;&nbsp;&nbsp;&nbsp;&nbsp;&nbsp;&nbsp;&nbsp;&nbsp;&nbsp;&nbsp;&nbsp;&nbsp;&nbsp;&nbsp;&nbsp;&nbsp;&nbsp;2&nbsp;&nbsp;&nbsp;&nbsp;&nbsp;&nbsp;&nbsp;&nbsp;&nbsp;&nbsp;&nbsp;&nbsp;&nbsp;&nbsp;&nbsp;&nbsp;&nbsp;&nbsp;&nbsp;3&nbsp;&nbsp;&nbsp;&nbsp;&nbsp;&nbsp;&nbsp;&nbsp;&nbsp;&nbsp;&nbsp;&nbsp;&nbsp;&nbsp;&nbsp;&nbsp;&nbsp;&nbsp;&nbsp;4</p><p style=""font-size:14px"">Not at all familiar&nbsp;&nbsp;&nbsp;&nbsp;A little familiar&nbsp;&nbsp;&nbsp;Moderately familiar&nbsp;&nbsp;&nbsp;Extremely familiar</p><p>(press the corresponding number on your keyboard)</p>","","52","","","FAM-RESPONSE","","","","","","","","sounds/A/FAM/W001.mp3","word","","","","","","","","","","","","","","","","","","","",""
"html-keyboard-response","247","3710696","0.0-7.0-1.0-0.9","1","0","ku7e6ahkgc8s7r0","","null","","","","null","","","","","","","","","","","","","","","","","","","","","","","","","","","","","","","",""
"audio-keyboard-response","248","3711628","0.0-7.0-1.0-1.9","1","0","ku7e6ahkgc8s7r0","","null","","sounds/A/FAM/W004.mp3","","null","","","","","","","","","","","","","","","","","","","","","","","","","","","","","","","",""
"html-keyboard-response","249","3712411","0.0-7.0-1.0-2.9","1","0","ku7e6ahkgc8s7r0","","276.7000000476837","","<p>How familiar did this sound to you?</p><p>1&nbsp;&nbsp;&nbsp;&nbsp;&nbsp;&nbsp;&nbsp;&nbsp;&nbsp;&nbsp;&nbsp;&nbsp;&nbsp;&nbsp;&nbsp;&nbsp;&nbsp;&nbsp;&nbsp;2&nbsp;&nbsp;&nbsp;&nbsp;&nbsp;&nbsp;&nbsp;&nbsp;&nbsp;&nbsp;&nbsp;&nbsp;&nbsp;&nbsp;&nbsp;&nbsp;&nbsp;&nbsp;&nbsp;3&nbsp;&nbsp;&nbsp;&nbsp;&nbsp;&nbsp;&nbsp;&nbsp;&nbsp;&nbsp;&nbsp;&nbsp;&nbsp;&nbsp;&nbsp;&nbsp;&nbsp;&nbsp;&nbsp;4</p><p style=""font-size:14px"">Not at all familiar&nbsp;&nbsp;&nbsp;&nbsp;A little familiar&nbsp;&nbsp;&nbsp;Moderately familiar&nbsp;&nbsp;&nbsp;Extremely familiar</p><p>(press the corresponding number on your keyboard)</p>","","51","","","FAM-RESPONSE","","","","","","","","sounds/A/FAM/W004.mp3","word","","","","","","","","","","","","","","","","","","","",""
"html-keyboard-response","250","3714426","0.0-7.0-1.0-0.10","1","0","ku7e6ahkgc8s7r0","","null","","","","null","","","","","","","","","","","","","","","","","","","","","","","","","","","","","","","",""
"audio-keyboard-response","251","3715369","0.0-7.0-1.0-1.10","1","0","ku7e6ahkgc8s7r0","","null","","sounds/A/FAM/P001.mp3","","null","","","","","","","","","","","","","","","","","","","","","","","","","","","","","","","",""
"html-keyboard-response","252","3716352","0.0-7.0-1.0-2.10","1","0","ku7e6ahkgc8s7r0","","474.6999999284744","","<p>How familiar did this sound to you?</p><p>1&nbsp;&nbsp;&nbsp;&nbsp;&nbsp;&nbsp;&nbsp;&nbsp;&nbsp;&nbsp;&nbsp;&nbsp;&nbsp;&nbsp;&nbsp;&nbsp;&nbsp;&nbsp;&nbsp;2&nbsp;&nbsp;&nbsp;&nbsp;&nbsp;&nbsp;&nbsp;&nbsp;&nbsp;&nbsp;&nbsp;&nbsp;&nbsp;&nbsp;&nbsp;&nbsp;&nbsp;&nbsp;&nbsp;3&nbsp;&nbsp;&nbsp;&nbsp;&nbsp;&nbsp;&nbsp;&nbsp;&nbsp;&nbsp;&nbsp;&nbsp;&nbsp;&nbsp;&nbsp;&nbsp;&nbsp;&nbsp;&nbsp;4</p><p style=""font-size:14px"">Not at all familiar&nbsp;&nbsp;&nbsp;&nbsp;A little familiar&nbsp;&nbsp;&nbsp;Moderately familiar&nbsp;&nbsp;&nbsp;Extremely familiar</p><p>(press the corresponding number on your keyboard)</p>","","50","","","FAM-RESPONSE","","","","","","","","sounds/A/FAM/P001.mp3","partword","","","","","","","","","","","","","","","","","","","",""
"html-keyboard-response","253","3718374","0.0-7.0-1.0-0.11","1","0","ku7e6ahkgc8s7r0","","null","","","","null","","","","","","","","","","","","","","","","","","","","","","","","","","","","","","","",""
"audio-keyboard-response","254","3719309","0.0-7.0-1.0-1.11","1","0","ku7e6ahkgc8s7r0","","null","","sounds/A/FAM/W002.mp3","","null","","","","","","","","","","","","","","","","","","","","","","","","","","","","","","","",""
"html-keyboard-response","255","3720144","0.0-7.0-1.0-2.11","1","0","ku7e6ahkgc8s7r0","","333.6999999284744","","<p>How familiar did this sound to you?</p><p>1&nbsp;&nbsp;&nbsp;&nbsp;&nbsp;&nbsp;&nbsp;&nbsp;&nbsp;&nbsp;&nbsp;&nbsp;&nbsp;&nbsp;&nbsp;&nbsp;&nbsp;&nbsp;&nbsp;2&nbsp;&nbsp;&nbsp;&nbsp;&nbsp;&nbsp;&nbsp;&nbsp;&nbsp;&nbsp;&nbsp;&nbsp;&nbsp;&nbsp;&nbsp;&nbsp;&nbsp;&nbsp;&nbsp;3&nbsp;&nbsp;&nbsp;&nbsp;&nbsp;&nbsp;&nbsp;&nbsp;&nbsp;&nbsp;&nbsp;&nbsp;&nbsp;&nbsp;&nbsp;&nbsp;&nbsp;&nbsp;&nbsp;4</p><p style=""font-size:14px"">Not at all familiar&nbsp;&nbsp;&nbsp;&nbsp;A little familiar&nbsp;&nbsp;&nbsp;Moderately familiar&nbsp;&nbsp;&nbsp;Extremely familiar</p><p>(press the corresponding number on your keyboard)</p>","","51","","","FAM-RESPONSE","","","","","","","","sounds/A/FAM/W002.mp3","word","","","","","","","","","","","","","","","","","","","",""
"html-button-response","256","3729389","0.0-8.0-0.0","1","0","ku7e6ahkgc8s7r0","","8229.100000023842","","<p>You will now listen to longer sound sequences.</p><p>Each sound sequence will last about 16 seconds.</p><p>On each trial, you will be given a <u>TARGET SOUND</u>. Your task is to listen very carefully for this sound.</p><p>Every time you hear the <u>TARGET SOUND</u>, you will press the <b>SPACEBAR</b> as quickly and accurately as you can.</p>","0","","","","","","","","","","","","","","","","","","","","","","","","","","","","","","","","",""
"html-button-response","257","3735947","0.0-8.0-1.0","1","0","ku7e6ahkgc8s7r0","","6296.300000071526","","<p>It is very important that you make your responses as quickly and accurately as possible.</p><p>To help you make your responses, you will be able to listen to the <u>TARGET SOUND</u> at the beginning of each trial.</p><p>There will be 36 total trials.</p><p><b>Note: This is meant to be a difficult task. We simply want you to try your best.</p>","0","","","","","","","","","","","","","","","","","","","","","","","","","","","","","","","","",""
"html-button-response","258","3737412","0.0-8.0-2.0-0.0","1","0","ku7e6ahkgc8s7r0","","1208","","<p>Trial 1 of 36</p>","0","","","","","","","","","","","","","","ME","sounds/syllables/me_SWS.wav","3300,5100,8700,12300","3","","","","","","","","","","","","","","","",""
"html-keyboard-response","259","3740103","0.0-8.0-2.0-1.0","1","0","ku7e6ahkgc8s7r0","","2689.1999999284744","","","","80","","","","","","","","","","","","","ME","","3300,5100,8700,12300","3","","","","","","","","","","","","","","","",""
"audio-keyboard-response","260","3740410","0.0-8.0-2.0-2.0-0.0","1","0","ku7e6ahkgc8s7r0","","null","","sounds/syllables/me_SWS.wav","","null","","","","","","","","","","","","","","","","","","","","","","","","","","","","","","","",""
"html-keyboard-response","261","3741812","0.0-8.0-2.0-2.0-1.0","1","0","ku7e6ahkgc8s7r0","","1401.2000000476837","","<p>To replay the <u>TARGET SOUND</u>, press P.</p> When you are ready to begin, press SPACEBAR.","","80","","","","","","","","","","","","","","","","","","","","","","","","","","","","","","","",""
"audio-keyboard-response","262","3742619","0.0-8.0-2.0-2.1-0.1","1","0","ku7e6ahkgc8s7r0","","null","","sounds/syllables/me_SWS.wav","","null","","","","","","","","","","","","","","","","","","","","","","","","","","","","","","","",""
"html-keyboard-response","263","3742964","0.0-8.0-2.0-2.1-1.1","1","0","ku7e6ahkgc8s7r0","","344.89999997615814","","<p>To replay the <u>TARGET SOUND</u>, press P.</p> When you are ready to begin, press SPACEBAR.","","32","","","","","","","","","","","","","","","","","","","","","","","","","","","","","","","",""
"audio-keyboard-response","264","3757920","0.0-8.0-2.0-3.0","1","0","ku7e6ahkgc8s7r0","","7549","","sounds/A/TD/ME_03_TD.mp3","","80","","","TD_SUMMARY","","","","","","","","","","ME","","3300,5100,8700,12300","3","3300","5100","8700","12300","null","null","null","null","","2","","","","","",""
"html-button-response","265","3759745","0.0-8.0-2.0-0.1","1","0","ku7e6ahkgc8s7r0","","1820.7999999523163","","<p>Trial 2 of 36</p>","0","","","","","","","","","","","","","","TA","sounds/syllables/ta_SWS.wav","900,3600,5400,9900","1","","","","","","","","","","","","","","","",""
"html-keyboard-response","266","3761022","0.0-8.0-2.0-1.1","1","0","ku7e6ahkgc8s7r0","","1276.5999999046326","","","","80","","","","","","","","","","","","","TA","","900,3600,5400,9900","1","","","","","","","","","","","","","","","",""
"audio-keyboard-response","267","3761330","0.0-8.0-2.0-2.2-0.2","1","0","ku7e6ahkgc8s7r0","","null","","sounds/syllables/ta_SWS.wav","","null","","","","","","","","","","","","","","","","","","","","","","","","","","","","","","","",""
"html-keyboard-response","268","3762455","0.0-8.0-2.0-2.2-1.2","1","0","ku7e6ahkgc8s7r0","","1124.3000000715256","","<p>To replay the <u>TARGET SOUND</u>, press P.</p> When you are ready to begin, press SPACEBAR.","","80","","","","","","","","","","","","","","","","","","","","","","","","","","","","","","","",""
"audio-keyboard-response","269","3763258","0.0-8.0-2.0-2.3-0.3","1","0","ku7e6ahkgc8s7r0","","null","","sounds/syllables/ta_SWS.wav","","null","","","","","","","","","","","","","","","","","","","","","","","","","","","","","","","",""
"html-keyboard-response","270","3763622","0.0-8.0-2.0-2.3-1.3","1","0","ku7e6ahkgc8s7r0","","362.90000009536743","","<p>To replay the <u>TARGET SOUND</u>, press P.</p> When you are ready to begin, press SPACEBAR.","","32","","","","","","","","","","","","","","","","","","","","","","","","","","","","","","","",""
"audio-keyboard-response","271","3778570","0.0-8.0-2.0-3.1","1","0","ku7e6ahkgc8s7r0","","1091","","sounds/A/TD/TA_03_TD.mp3","","80","","","TD_SUMMARY","","","","","","","","","","TA","","900,3600,5400,9900","1","900","3600","5400","9900","null","null","null","null","","2","","","","","",""
"html-button-response","272","3780205","0.0-8.0-2.0-0.2","1","0","ku7e6ahkgc8s7r0","","1632.3999999761581","","<p>Trial 3 of 36</p>","0","","","","","","","","","","","","","","SU","sounds/syllables/su_SWS.wav","1500,3300,7800,9600","3","","","","","","","","","","","","","","","",""
"html-keyboard-response","273","3781457","0.0-8.0-2.0-1.2","1","0","ku7e6ahkgc8s7r0","","1250.8999999761581","","","","80","","","","","","","","","","","","","SU","","1500,3300,7800,9600","3","","","","","","","","","","","","","","","",""
"audio-keyboard-response","274","3781750","0.0-8.0-2.0-2.4-0.4","1","0","ku7e6ahkgc8s7r0","","null","","sounds/syllables/su_SWS.wav","","null","","","","","","","","","","","","","","","","","","","","","","","","","","","","","","","",""
"html-keyboard-response","275","3782845","0.0-8.0-2.0-2.4-1.4","1","0","ku7e6ahkgc8s7r0","","1094.5999999046326","","<p>To replay the <u>TARGET SOUND</u>, press P.</p> When you are ready to begin, press SPACEBAR.","","80","","","","","","","","","","","","","","","","","","","","","","","","","","","","","","","",""
"audio-keyboard-response","276","3783659","0.0-8.0-2.0-2.5-0.5","1","0","ku7e6ahkgc8s7r0","","null","","sounds/syllables/su_SWS.wav","","null","","","","","","","","","","","","","","","","","","","","","","","","","","","","","","","",""
"html-keyboard-response","277","3784211","0.0-8.0-2.0-2.5-1.5","1","0","ku7e6ahkgc8s7r0","","551.8000000715256","","<p>To replay the <u>TARGET SOUND</u>, press P.</p> When you are ready to begin, press SPACEBAR.","","32","","","","","","","","","","","","","","","","","","","","","","","","","","","","","","","",""
"audio-keyboard-response","278","3799158","0.0-8.0-2.0-3.2","1","0","ku7e6ahkgc8s7r0","","1640","","sounds/A/TD/SU_09_TD.mp3","","80","","","TD_SUMMARY","","","","","","","","","","SU","","1500,3300,7800,9600","3","1500","3300","7800","9600","null","null","null","null","","2","","","","","",""
"html-button-response","279","3800289","0.0-8.0-2.0-0.3","1","0","ku7e6ahkgc8s7r0","","1129.7999999523163","","<p>Trial 4 of 36</p>","0","","","","","","","","","","","","","","RE","sounds/syllables/re_SWS.wav","900,2700,4500,12600","1","","","","","","","","","","","","","","","",""
"html-keyboard-response","280","3801693","0.0-8.0-2.0-1.3","1","0","ku7e6ahkgc8s7r0","","1403.4000000953674","","","","80","","","","","","","","","","","","","RE","","900,2700,4500,12600","1","","","","","","","","","","","","","","","",""
"audio-keyboard-response","281","3801988","0.0-8.0-2.0-2.6-0.6","1","0","ku7e6ahkgc8s7r0","","null","","sounds/syllables/re_SWS.wav","","null","","","","","","","","","","","","","","","","","","","","","","","","","","","","","","","",""
"html-keyboard-response","282","3802798","0.0-8.0-2.0-2.6-1.6","1","0","ku7e6ahkgc8s7r0","","809.6000000238419","","<p>To replay the <u>TARGET SOUND</u>, press P.</p> When you are ready to begin, press SPACEBAR.","","32","","","","","","","","","","","","","","","","","","","","","","","","","","","","","","","",""
"audio-keyboard-response","283","3817759","0.0-8.0-2.0-3.3","1","0","ku7e6ahkgc8s7r0","","768","","sounds/A/TD/RE_10_TD.mp3","","80","","","TD_SUMMARY","","","","","","","","","","RE","","900,2700,4500,12600","1","900","2700","4500","12600","null","null","null","null","","1","","","","","",""
"html-button-response","284","3819201","0.0-8.0-2.0-0.4","1","0","ku7e6ahkgc8s7r0","","1441.1000000238419","","<p>Trial 5 of 36</p>","0","","","","","","","","","","","","","","SU","sounds/syllables/su_SWS.wav","5100,6900,9600,13200","3","","","","","","","","","","","","","","","",""
"html-keyboard-response","285","3820857","0.0-8.0-2.0-1.4","1","0","ku7e6ahkgc8s7r0","","1655.4000000953674","","","","80","","","","","","","","","","","","","SU","","5100,6900,9600,13200","3","","","","","","","","","","","","","","","",""
"audio-keyboard-response","286","3821149","0.0-8.0-2.0-2.7-0.7","1","0","ku7e6ahkgc8s7r0","","null","","sounds/syllables/su_SWS.wav","","null","","","","","","","","","","","","","","","","","","","","","","","","","","","","","","","",""
"html-keyboard-response","287","3821491","0.0-8.0-2.0-2.7-1.7","1","0","ku7e6ahkgc8s7r0","","341","","<p>To replay the <u>TARGET SOUND</u>, press P.</p> When you are ready to begin, press SPACEBAR.","","32","","","","","","","","","","","","","","","","","","","","","","","","","","","","","","","",""
"audio-keyboard-response","288","3836440","0.0-8.0-2.0-3.4","1","0","ku7e6ahkgc8s7r0","","1299","","sounds/A/TD/SU_04_TD.mp3","","32","","","TD_SUMMARY","","","","","","","","","","SU","","5100,6900,9600,13200","3","5100","6900","9600","13200","null","null","null","null","1297.7000000476837_2374_2664.2000000476837_2888.2999999523163","1","","","","","",""
"html-button-response","289","3837905","0.0-8.0-2.0-0.5","1","0","ku7e6ahkgc8s7r0","","1462","","<p>Trial 6 of 36</p>","0","","","","","","","","","","","","","","ME","sounds/syllables/me_SWS.wav","1500,6000,10500,12300","3","","","","","","","","","","","","","","","",""
"html-keyboard-response","290","3839087","0.0-8.0-2.0-1.5","1","0","ku7e6ahkgc8s7r0","","1180.9000000953674","","","","80","","","","","","","","","","","","","ME","","1500,6000,10500,12300","3","","","","","","","","","","","","","","","",""
"audio-keyboard-response","291","3839379","0.0-8.0-2.0-2.8-0.8","1","0","ku7e6ahkgc8s7r0","","null","","sounds/syllables/me_SWS.wav","","null","","","","","","","","","","","","","","","","","","","","","","","","","","","","","","","",""
"html-keyboard-response","292","3839931","0.0-8.0-2.0-2.8-1.8","1","0","ku7e6ahkgc8s7r0","","551.9000000953674","","<p>To replay the <u>TARGET SOUND</u>, press P.</p> When you are ready to begin, press SPACEBAR.","","32","","","","","","","","","","","","","","","","","","","","","","","","","","","","","","","",""
"audio-keyboard-response","293","3854880","0.0-8.0-2.0-3.5","1","0","ku7e6ahkgc8s7r0","","3269","","sounds/A/TD/ME_01_TD.mp3","","80","","","TD_SUMMARY","","","","","","","","","","ME","","1500,6000,10500,12300","3","1500","6000","10500","12300","null","null","null","null","","1","","","","","",""
"html-button-response","294","3856073","0.0-8.0-2.0-0.6","1","0","ku7e6ahkgc8s7r0","","1190.2000000476837","","<p>Trial 7 of 36</p>","0","","","","","","","","","","","","","","GE","sounds/syllables/ge_SWS.wav","3900,5700,7500,9300","2","","","","","","","","","","","","","","","",""
"html-keyboard-response","295","3857147","0.0-8.0-2.0-1.6","1","0","ku7e6ahkgc8s7r0","","1072.7000000476837","","","","80","","","","","","","","","","","","","GE","","3900,5700,7500,9300","2","","","","","","","","","","","","","","","",""
"audio-keyboard-response","296","3857449","0.0-8.0-2.0-2.9-0.9","1","0","ku7e6ahkgc8s7r0","","null","","sounds/syllables/ge_SWS.wav","","null","","","","","","","","","","","","","","","","","","","","","","","","","","","","","","","",""
"html-keyboard-response","297","3858134","0.0-8.0-2.0-2.9-1.9","1","0","ku7e6ahkgc8s7r0","","684.2000000476837","","<p>To replay the <u>TARGET SOUND</u>, press P.</p> When you are ready to begin, press SPACEBAR.","","32","","","","","","","","","","","","","","","","","","","","","","","","","","","","","","","",""
"audio-keyboard-response","298","3873088","0.0-8.0-2.0-3.6","1","0","ku7e6ahkgc8s7r0","","1440","","sounds/A/TD/GE_04_TD.mp3","","80","","","TD_SUMMARY","","","","","","","","","","GE","","3900,5700,7500,9300","2","3900","5700","7500","9300","null","null","null","null","____2280.5_2499.3000000715256_2766.9000000953674","1","","","","","",""
"html-button-response","299","3876364","0.0-8.0-2.0-0.7","1","0","ku7e6ahkgc8s7r0","","3274.7999999523163","","<p>Trial 8 of 36</p>","0","","","","","","","","","","","","","","RE","sounds/syllables/re_SWS.wav","900,6300,9900,11700","1","","","","","","","","","","","","","","","",""
"html-keyboard-response","300","3877478","0.0-8.0-2.0-1.7","1","0","ku7e6ahkgc8s7r0","","1113.4000000953674","","","","80","","","","","","","","","","","","","RE","","900,6300,9900,11700","1","","","","","","","","","","","","","","","",""
"audio-keyboard-response","301","3877779","0.0-8.0-2.0-2.10-0.10","1","0","ku7e6ahkgc8s7r0","","null","","sounds/syllables/re_SWS.wav","","null","","","","","","","","","","","","","","","","","","","","","","","","","","","","","","","",""
"html-keyboard-response","302","3878061","0.0-8.0-2.0-2.10-1.10","1","0","ku7e6ahkgc8s7r0","","280.7999999523163","","<p>To replay the <u>TARGET SOUND</u>, press P.</p> When you are ready to begin, press SPACEBAR.","","32","","","","","","","","","","","","","","","","","","","","","","","","","","","","","","","",""
"audio-keyboard-response","303","3893019","0.0-8.0-2.0-3.7","1","0","ku7e6ahkgc8s7r0","","3320","","sounds/A/TD/RE_08_TD.mp3","","80","","","TD_SUMMARY","","","","","","","","","","RE","","900,6300,9900,11700","1","900","6300","9900","11700","null","null","null","null","_______3881","1","","","","","",""
"html-button-response","304","3894243","0.0-8.0-2.0-0.8","1","0","ku7e6ahkgc8s7r0","","1220.1000000238419","","<p>Trial 9 of 36</p>","0","","","","","","","","","","","","","","FU","sounds/syllables/fu_SWS.wav","2100,3900,7500,12000","2","","","","","","","","","","","","","","","",""
"html-keyboard-response","305","3895006","0.0-8.0-2.0-1.8","1","0","ku7e6ahkgc8s7r0","","761.7999999523163","","","","80","","","","","","","","","","","","","FU","","2100,3900,7500,12000","2","","","","","","","","","","","","","","","",""
"audio-keyboard-response","306","3895299","0.0-8.0-2.0-2.11-0.11","1","0","ku7e6ahkgc8s7r0","","null","","sounds/syllables/fu_SWS.wav","","null","","","","","","","","","","","","","","","","","","","","","","","","","","","","","","","",""
"html-keyboard-response","307","3895434","0.0-8.0-2.0-2.11-1.11","1","0","ku7e6ahkgc8s7r0","","134.20000004768372","","<p>To replay the <u>TARGET SOUND</u>, press P.</p> When you are ready to begin, press SPACEBAR.","","32","","","","","","","","","","","","","","","","","","","","","","","","","","","","","","","",""
"audio-keyboard-response","308","3910399","0.0-8.0-2.0-3.8","1","0","ku7e6ahkgc8s7r0","","3989","","sounds/A/TD/FU_07_TD.mp3","","32","","","TD_SUMMARY","","","","","","","","","","FU","","2100,3900,7500,12000","2","2100","3900","7500","12000","null","null","null","null","________3992.399999976158","1","","","","","",""
"html-button-response","309","3911950","0.0-8.0-2.0-0.9","1","0","ku7e6ahkgc8s7r0","","1548","","<p>Trial 10 of 36</p>","0","","","","","","","","","","","","","","PU","sounds/syllables/pu_SWS.wav","4800,7500,9300,12900","2","","","","","","","","","","","","","","","",""
"html-keyboard-response","310","3912915","0.0-8.0-2.0-1.9","1","0","ku7e6ahkgc8s7r0","","964.3000000715256","","","","80","","","","","","","","","","","","","PU","","4800,7500,9300,12900","2","","","","","","","","","","","","","","","",""
"audio-keyboard-response","311","3913219","0.0-8.0-2.0-2.12-0.12","1","0","ku7e6ahkgc8s7r0","","null","","sounds/syllables/pu_SWS.wav","","null","","","","","","","","","","","","","","","","","","","","","","","","","","","","","","","",""
"html-keyboard-response","312","3913421","0.0-8.0-2.0-2.12-1.12","1","0","ku7e6ahkgc8s7r0","","200.80000007152557","","<p>To replay the <u>TARGET SOUND</u>, press P.</p> When you are ready to begin, press SPACEBAR.","","32","","","","","","","","","","","","","","","","","","","","","","","","","","","","","","","",""
"audio-keyboard-response","313","3928369","0.0-8.0-2.0-3.9","1","0","ku7e6ahkgc8s7r0","","2851","","sounds/A/TD/PU_05_TD.mp3","","32","","","TD_SUMMARY","","","","","","","","","","PU","","4800,7500,9300,12900","2","4800","7500","9300","12900","null","null","null","null","_________2845.0999999046326_2969.5999999046326","1","","","","","",""
"html-button-response","314","3929158","0.0-8.0-2.0-0.10","1","0","ku7e6ahkgc8s7r0","","785.6000000238419","","<p>Trial 11 of 36</p>","0","","","","","","","","","","","","","","ME","sounds/syllables/me_SWS.wav","1500,5100,7800,12300","3","","","","","","","","","","","","","","","",""
"html-keyboard-response","315","3930039","0.0-8.0-2.0-1.10","1","0","ku7e6ahkgc8s7r0","","879.1000000238419","","","","80","","","","","","","","","","","","","ME","","1500,5100,7800,12300","3","","","","","","","","","","","","","","","",""
"audio-keyboard-response","316","3930340","0.0-8.0-2.0-2.13-0.13","1","0","ku7e6ahkgc8s7r0","","null","","sounds/syllables/me_SWS.wav","","null","","","","","","","","","","","","","","","","","","","","","","","","","","","","","","","",""
"html-keyboard-response","317","3930382","0.0-8.0-2.0-2.13-1.13","1","0","ku7e6ahkgc8s7r0","","41.700000047683716","","<p>To replay the <u>TARGET SOUND</u>, press P.</p> When you are ready to begin, press SPACEBAR.","","32","","","","","","","","","","","","","","","","","","","","","","","","","","","","","","","",""
"audio-keyboard-response","318","3945340","0.0-8.0-2.0-3.10","1","0","ku7e6ahkgc8s7r0","","9581","","sounds/A/TD/ME_10_TD.mp3","","80","","","TD_SUMMARY","","","","","","","","","","ME","","1500,5100,7800,12300","3","1500","5100","7800","12300","null","null","null","null","___________10161.100000023842","1","","","","","",""
"html-button-response","319","3946594","0.0-8.0-2.0-0.11","1","0","ku7e6ahkgc8s7r0","","1250.5","","<p>Trial 12 of 36</p>","0","","","","","","","","","","","","","","PU","sounds/syllables/pu_SWS.wav","1200,5700,7500,9300","2","","","","","","","","","","","","","","","",""
"html-keyboard-response","320","3947429","0.0-8.0-2.0-1.11","1","0","ku7e6ahkgc8s7r0","","834.5","","","","80","","","","","","","","","","","","","PU","","1200,5700,7500,9300","2","","","","","","","","","","","","","","","",""
"audio-keyboard-response","321","3947739","0.0-8.0-2.0-2.14-0.14","1","0","ku7e6ahkgc8s7r0","","null","","sounds/syllables/pu_SWS.wav","","null","","","","","","","","","","","","","","","","","","","","","","","","","","","","","","","",""
"html-keyboard-response","322","3948228","0.0-8.0-2.0-2.14-1.14","1","0","ku7e6ahkgc8s7r0","","488.60000002384186","","<p>To replay the <u>TARGET SOUND</u>, press P.</p> When you are ready to begin, press SPACEBAR.","","32","","","","","","","","","","","","","","","","","","","","","","","","","","","","","","","",""
"audio-keyboard-response","323","3963179","0.0-8.0-2.0-3.11","1","0","ku7e6ahkgc8s7r0","","629","","sounds/A/TD/PU_04_TD.mp3","","32","","","TD_SUMMARY","","","","","","","","","","PU","","1200,5700,7500,9300","2","1200","5700","7500","9300","318.60000002384186","null","null","null","____________630.6000000238419_805.5_1518.6000000238419","1","","","","","",""
"html-button-response","324","3964212","0.0-8.0-2.0-0.12","1","0","ku7e6ahkgc8s7r0","","1031.3999999761581","","<p>Trial 13 of 36</p>","0","","","","","","","","","","","","","","TI","sounds/syllables/ti_SWS.wav","1200,5700,9300,12000","2","","","","","","","","","","","","","","","",""
"html-keyboard-response","325","3964793","0.0-8.0-2.0-1.12","1","0","ku7e6ahkgc8s7r0","","580.3000000715256","","","","80","","","","","","","","","","","","","TI","","1200,5700,9300,12000","2","","","","","","","","","","","","","","","",""
"audio-keyboard-response","326","3965100","0.0-8.0-2.0-2.15-0.15","1","0","ku7e6ahkgc8s7r0","","null","","sounds/syllables/ti_SWS.wav","","null","","","","","","","","","","","","","","","","","","","","","","","","","","","","","","","",""
"html-keyboard-response","327","3965176","0.0-8.0-2.0-2.15-1.15","1","0","ku7e6ahkgc8s7r0","","75.29999995231628","","<p>To replay the <u>TARGET SOUND</u>, press P.</p> When you are ready to begin, press SPACEBAR.","","32","","","","","","","","","","","","","","","","","","","","","","","","","","","","","","","",""
"audio-keyboard-response","328","3980129","0.0-8.0-2.0-3.12","1","0","ku7e6ahkgc8s7r0","","null","","sounds/A/TD/TI_07_TD.mp3","","null","","","TD_SUMMARY","","","","","","","","","","TI","","1200,5700,9300,12000","2","1200","5700","9300","12000","null","null","null","null","","1","","","","","",""
"html-button-response","329","3980953","0.0-8.0-2.0-0.13","1","0","ku7e6ahkgc8s7r0","","822.6000000238419","","<p>Trial 14 of 36</p>","0","","","","","","","","","","","","","","NI","sounds/syllables/ni_SWS.wav","2400,6900,8700,12300","3","","","","","","","","","","","","","","","",""
"html-keyboard-response","330","3981576","0.0-8.0-2.0-1.13","1","0","ku7e6ahkgc8s7r0","","621.3999999761581","","","","80","","","","","","","","","","","","","NI","","2400,6900,8700,12300","3","","","","","","","","","","","","","","","",""
"audio-keyboard-response","331","3981870","0.0-8.0-2.0-2.16-0.16","1","0","ku7e6ahkgc8s7r0","","null","","sounds/syllables/ni_SWS.wav","","null","","","","","","","","","","","","","","","","","","","","","","","","","","","","","","","",""
"html-keyboard-response","332","3982011","0.0-8.0-2.0-2.16-1.16","1","0","ku7e6ahkgc8s7r0","","139.5","","<p>To replay the <u>TARGET SOUND</u>, press P.</p> When you are ready to begin, press SPACEBAR.","","32","","","","","","","","","","","","","","","","","","","","","","","","","","","","","","","",""
"audio-keyboard-response","333","3996968","0.0-8.0-2.0-3.13","1","0","ku7e6ahkgc8s7r0","","2661","","sounds/A/TD/NI_04_TD.mp3","","80","","","TD_SUMMARY","","","","","","","","","","NI","","2400,6900,8700,12300","3","2400","6900","8700","12300","null","null","null","null","_______________3672.600000023842_3843_4473.199999928474_4675.799999952316_4853.600000023842_5001.100000023842_5165.100000023842_5366.600000023842_6473.100000023842","1","","","","","",""
"html-button-response","334","4000932","0.0-8.0-2.0-0.14","1","0","ku7e6ahkgc8s7r0","","3963.2999999523163","","<p>Trial 15 of 36</p>","0","","","","","","","","","","","","","","SU","sounds/syllables/su_SWS.wav","1500,3300,7800,12300","3","","","","","","","","","","","","","","","",""
"html-keyboard-response","335","4001471","0.0-8.0-2.0-1.14","1","0","ku7e6ahkgc8s7r0","","537.7999999523163","","","","80","","","","","","","","","","","","","SU","","1500,3300,7800,12300","3","","","","","","","","","","","","","","","",""
"audio-keyboard-response","336","4001779","0.0-8.0-2.0-2.17-0.17","1","0","ku7e6ahkgc8s7r0","","null","","sounds/syllables/su_SWS.wav","","null","","","","","","","","","","","","","","","","","","","","","","","","","","","","","","","",""
"html-keyboard-response","337","4002063","0.0-8.0-2.0-2.17-1.17","1","0","ku7e6ahkgc8s7r0","","284.10000002384186","","<p>To replay the <u>TARGET SOUND</u>, press P.</p> When you are ready to begin, press SPACEBAR.","","32","","","","","","","","","","","","","","","","","","","","","","","","","","","","","","","",""
"audio-keyboard-response","338","4017009","0.0-8.0-2.0-3.14","1","0","ku7e6ahkgc8s7r0","","40","","sounds/A/TD/SU_02_TD.mp3","","32","","","TD_SUMMARY","","","","","","","","","","SU","","1500,3300,7800,12300","3","1500","3300","7800","12300","null","null","null","null","________________________35.200000047683716_696.5_1672.2999999523163_2770.7000000476837_2974_3148.2000000476837_3314.2000000476837","1","","","","","",""
"html-button-response","339","4018343","0.0-8.0-2.0-0.15","1","0","ku7e6ahkgc8s7r0","","1330.3999999761581","","<p>Trial 16 of 36</p>","0","","","","","","","","","","","","","","RU","sounds/syllables/ru_SWS.wav","900,5400,7200,12600","1","","","","","","","","","","","","","","","",""
"html-keyboard-response","340","4019125","0.0-8.0-2.0-1.15","1","0","ku7e6ahkgc8s7r0","","780.1999999284744","","","","80","","","","","","","","","","","","","RU","","900,5400,7200,12600","1","","","","","","","","","","","","","","","",""
"audio-keyboard-response","341","4019418","0.0-8.0-2.0-2.18-0.18","1","0","ku7e6ahkgc8s7r0","","null","","sounds/syllables/ru_SWS.wav","","null","","","","","","","","","","","","","","","","","","","","","","","","","","","","","","","",""
"html-keyboard-response","342","4019516","0.0-8.0-2.0-2.18-1.18","1","0","ku7e6ahkgc8s7r0","","98","","<p>To replay the <u>TARGET SOUND</u>, press P.</p> When you are ready to begin, press SPACEBAR.","","32","","","","","","","","","","","","","","","","","","","","","","","","","","","","","","","",""
