"trial_type","trial_index","time_elapsed","internal_node_id","counterbalance","lang_instruct","ParticipantID","view_history","rt","url","stimulus","button_pressed","key_press","correctRESP","correct","designation","location","correctanswer","responses","sentence","keywords","typed_resp","keyword1_acc","keyword2_acc","keyword3_acc","keyword4_acc","keyword5_acc","total_acc","prop_acc","timeouts","pause_rt01","pause_rt02","train_file","numKeyPress","sound","fam_type","SYLLABLE","EXEMPLAR","TD_LOCS","TD_TYPE","TDLOC_01","TDLOC_02","TDLOC_03","TDLOC_04","TD_RT_01","TD_RT_02","TD_RT_03","TD_RT_04","TD_SUBJ_RTs","number_of_plays","slider_start","response","question_order","syllable","syllable_type"
"pavlovia","0","1","0.0-0.0","3","1","3cpxzw9zgyrkhnu","","","","","","","","","","","","","","","","","","","","","","","","","","","","","","","","","","","","","","","","","","","","","","","",""
"instructions","1","6724","0.0-1.0","3","1","3cpxzw9zgyrkhnu","[{""page_index"":0,""viewing_time"":2110},{""page_index"":1,""viewing_time"":4607}]","6723","","","","","","","","","","","","","","","","","","","","","","","","","","","","","","","","","","","","","","","","","","","","","",""
"external-html","2","10390","0.0-2.0","3","1","3cpxzw9zgyrkhnu","","3664","consent/consent.html","","","","","","","","","","","","","","","","","","","","","","","","","","","","","","","","","","","","","","","","","","","","",""
"html-button-response","3","11857","0.0-3.0-0.0-0.0","3","1","3cpxzw9zgyrkhnu","","1466","","<p>Welcome to the study. You will first complete a short volume calibration and headphone check.</p><p>Please make sure you are in a quiet listening environment, that you are wearing headphones, and that your computer's volume is turned on.<p></p>","0","","","","","","","","","","","","","","","","","","","","","","","","","","","","","","","","","","","","","","","","","","",""
"html-button-response","4","13341","0.0-3.0-0.0-1.0","3","1","3cpxzw9zgyrkhnu","","1231.9999999999964","","<p>The volume calibration will be first.</p><p>You will hear a thirty-second noise. Please adjust your computer's volume so that this noise is being presented at a comfortable level.<p></p>","0","","","","","","","","","","","","","","","","","","","","","","","","","","","","","","","","","","","","","","","","","","",""
"audio-button-response","5","15526","0.0-3.0-0.0-2.0","3","1","3cpxzw9zgyrkhnu","","1931","","audCalib/volumetest.mp3","0","","","","","","","","","","","","","","","","","","","","","","","","","","","","","","","","","","","","","","","","","","",""
"html-button-response","6","16540","0.0-3.0-1.0-0.0","3","1","3cpxzw9zgyrkhnu","","1013","","<p>You will now complete a short headphone check.</p><p>On each trial, you will hear three tones. One of these tones will be quieter than the others. Your task is to identify whether the quiet tone occured first, second, or third.</p><p>There are six trials in total.<p></p>","0","","","","","","","","","","","","","","","","","","","","","","","","","","","","","","","","","","","","","","","","","","",""
"html-keyboard-response","7","17294","0.0-3.0-1.0-1.0-0.0","3","1","3cpxzw9zgyrkhnu","","null","","<div style=""font-size:60px;"">+</div>","","null","","","","","","","","","","","","","","","","","","","","","","","","","","","","","","","","","","","","","","","","","",""
"audio-button-response","8","21656","0.0-3.0-1.0-1.0-1.0","3","1","3cpxzw9zgyrkhnu","","4363","","audCalib/t1_2.mp3","0","","0","1","headphone-test","","","","","","","","","","","","","","","","","","","","","","","","","","","","","","","","","","","","","","",""
"html-keyboard-response","9","22409","0.0-3.0-1.0-1.0-0.1","3","1","3cpxzw9zgyrkhnu","","null","","<div style=""font-size:60px;"">+</div>","","null","","","","","","","","","","","","","","","","","","","","","","","","","","","","","","","","","","","","","","","","","",""
"audio-button-response","10","26882","0.0-3.0-1.0-1.0-1.1","3","1","3cpxzw9zgyrkhnu","","4469","","audCalib/t1_1.mp3","0","","0","1","headphone-test","","","","","","","","","","","","","","","","","","","","","","","","","","","","","","","","","","","","","","",""
"html-keyboard-response","11","27635","0.0-3.0-1.0-1.0-0.2","3","1","3cpxzw9zgyrkhnu","","null","","<div style=""font-size:60px;"">+</div>","","null","","","","","","","","","","","","","","","","","","","","","","","","","","","","","","","","","","","","","","","","","",""
"audio-button-response","12","31579","0.0-3.0-1.0-1.0-1.2","3","1","3cpxzw9zgyrkhnu","","3936","","audCalib/t2_2.mp3","1","","1","1","headphone-test","","","","","","","","","","","","","","","","","","","","","","","","","","","","","","","","","","","","","","",""
"html-keyboard-response","13","32332","0.0-3.0-1.0-1.0-0.3","3","1","3cpxzw9zgyrkhnu","","null","","<div style=""font-size:60px;"">+</div>","","null","","","","","","","","","","","","","","","","","","","","","","","","","","","","","","","","","","","","","","","","","",""
"audio-button-response","14","36169","0.0-3.0-1.0-1.0-1.3","3","1","3cpxzw9zgyrkhnu","","3840","","audCalib/t3_1.mp3","2","","2","1","headphone-test","","","","","","","","","","","","","","","","","","","","","","","","","","","","","","","","","","","","","","",""
"html-keyboard-response","15","36923","0.0-3.0-1.0-1.0-0.4","3","1","3cpxzw9zgyrkhnu","","null","","<div style=""font-size:60px;"">+</div>","","null","","","","","","","","","","","","","","","","","","","","","","","","","","","","","","","","","","","","","","","","","",""
"audio-button-response","16","40881","0.0-3.0-1.0-1.0-1.4","3","1","3cpxzw9zgyrkhnu","","3957","","audCalib/t3_2.mp3","2","","2","1","headphone-test","","","","","","","","","","","","","","","","","","","","","","","","","","","","","","","","","","","","","","",""
"html-keyboard-response","17","41634","0.0-3.0-1.0-1.0-0.5","3","1","3cpxzw9zgyrkhnu","","null","","<div style=""font-size:60px;"">+</div>","","null","","","","","","","","","","","","","","","","","","","","","","","","","","","","","","","","","","","","","","","","","",""
"audio-button-response","18","45344","0.0-3.0-1.0-1.0-1.5","3","1","3cpxzw9zgyrkhnu","","3712","","audCalib/t2_1.mp3","1","","1","1","headphone-test","","","","","","","","","","","","","","","","","","","","","","","","","","","","","","","","","","","","","","",""
"html-button-response","19","46966","0.0-3.0-2.0","3","1","3cpxzw9zgyrkhnu","","1370","","<p>The volume calibration and headphone check are now complete.</p>","0","","","","","","","","","","","","","","","","","","","","","","","","","","","","","","","","","","","","","","","","","","",""
"instructions","20","79456","0.0-4.0-0.0","3","1","3cpxzw9zgyrkhnu","[{""page_index"":0,""viewing_time"":1232},{""page_index"":1,""viewing_time"":29697.000000000015},{""page_index"":2,""viewing_time"":1559.9999999999854}]","32489","","","","","","","","","","","","","","","","","","","","","","","","","","","","","","","","","","","","","","","","","","","","","",""
"audio-keyboard-response","21","79762","0.0-4.0-1.0-0.0","3","1","3cpxzw9zgyrkhnu","","null","","sounds/induction/right/me_SWS.wav","","null","","","","","","","","","","","","","","","","","","","","","","","","","","","","","","","","","","","","","","","","","",""
"html-button-response","22","83073","0.0-4.0-1.0-1.0","3","1","3cpxzw9zgyrkhnu","","3310","","What sound did you hear?","0","","","1","INDUCTION-JUDGMENT","right","0","","","","","","","","","","","","","","","","","","","","","","","","","","","","","","","","","","","","",""
"html-keyboard-response","23","84076","0.0-4.0-1.0-2.0","3","1","3cpxzw9zgyrkhnu","","null","","<p style=""color:green;""><b>Correct!</b></p>","","null","","","","","","","","","","","","","","","","","","","","","","","","","","","","","","","","","","","","","","","","","",""
"audio-keyboard-response","24","84881","0.0-4.0-1.0-0.1","3","1","3cpxzw9zgyrkhnu","","null","","sounds/induction/left/ru_SWS.wav","","null","","","","","","","","","","","","","","","","","","","","","","","","","","","","","","","","","","","","","","","","","",""
"html-button-response","25","86035","0.0-4.0-1.0-1.1","3","1","3cpxzw9zgyrkhnu","","1152","","What sound did you hear?","0","","","1","INDUCTION-JUDGMENT","left","0","","","","","","","","","","","","","","","","","","","","","","","","","","","","","","","","","","","","",""
"html-keyboard-response","26","87038","0.0-4.0-1.0-2.1","3","1","3cpxzw9zgyrkhnu","","null","","<p style=""color:green;""><b>Correct!</b></p>","","null","","","","","","","","","","","","","","","","","","","","","","","","","","","","","","","","","","","","","","","","","",""
"audio-keyboard-response","27","87846","0.0-4.0-1.0-0.2","3","1","3cpxzw9zgyrkhnu","","null","","sounds/induction/left/ta_SWS.wav","","null","","","","","","","","","","","","","","","","","","","","","","","","","","","","","","","","","","","","","","","","","",""
"html-button-response","28","89107","0.0-4.0-1.0-1.2","3","1","3cpxzw9zgyrkhnu","","1259","","What sound did you hear?","0","","","1","INDUCTION-JUDGMENT","left","0","","","","","","","","","","","","","","","","","","","","","","","","","","","","","","","","","","","","",""
"html-keyboard-response","29","90108","0.0-4.0-1.0-2.2","3","1","3cpxzw9zgyrkhnu","","null","","<p style=""color:green;""><b>Correct!</b></p>","","null","","","","","","","","","","","","","","","","","","","","","","","","","","","","","","","","","","","","","","","","","",""
"audio-keyboard-response","30","90918","0.0-4.0-1.0-0.3","3","1","3cpxzw9zgyrkhnu","","null","","sounds/induction/left/ge_SWS.wav","","null","","","","","","","","","","","","","","","","","","","","","","","","","","","","","","","","","","","","","","","","","",""
"html-button-response","31","92150","0.0-4.0-1.0-1.3","3","1","3cpxzw9zgyrkhnu","","1230.9999999999854","","What sound did you hear?","1","","","1","INDUCTION-JUDGMENT","left","1","","","","","","","","","","","","","","","","","","","","","","","","","","","","","","","","","","","","",""
"html-keyboard-response","32","93153","0.0-4.0-1.0-2.3","3","1","3cpxzw9zgyrkhnu","","null","","<p style=""color:green;""><b>Correct!</b></p>","","null","","","","","","","","","","","","","","","","","","","","","","","","","","","","","","","","","","","","","","","","","",""
"audio-keyboard-response","33","93958","0.0-4.0-1.0-0.4","3","1","3cpxzw9zgyrkhnu","","null","","sounds/induction/right/su_SWS.wav","","null","","","","","","","","","","","","","","","","","","","","","","","","","","","","","","","","","","","","","","","","","",""
"html-button-response","34","96052","0.0-4.0-1.0-1.4","3","1","3cpxzw9zgyrkhnu","","2092","","What sound did you hear?","0","","","0","INDUCTION-JUDGMENT","right","1","","","","","","","","","","","","","","","","","","","","","","","","","","","","","","","","","","","","",""
"html-keyboard-response","35","97054","0.0-4.0-1.0-2.4","3","1","3cpxzw9zgyrkhnu","","null","","<p style=""color:red;""><b>Incorrect!</b></p>","","null","","","","","","","","","","","","","","","","","","","","","","","","","","","","","","","","","","","","","","","","","",""
"audio-keyboard-response","36","97862","0.0-4.0-1.0-0.5","3","1","3cpxzw9zgyrkhnu","","null","","sounds/induction/left/fe_SWS.wav","","null","","","","","","","","","","","","","","","","","","","","","","","","","","","","","","","","","","","","","","","","","",""
"html-button-response","37","99424","0.0-4.0-1.0-1.5","3","1","3cpxzw9zgyrkhnu","","1560","","What sound did you hear?","0","","","0","INDUCTION-JUDGMENT","left","1","","","","","","","","","","","","","","","","","","","","","","","","","","","","","","","","","","","","",""
"html-keyboard-response","38","100426","0.0-4.0-1.0-2.5","3","1","3cpxzw9zgyrkhnu","","null","","<p style=""color:red;""><b>Incorrect!</b></p>","","null","","","","","","","","","","","","","","","","","","","","","","","","","","","","","","","","","","","","","","","","","",""
"audio-keyboard-response","39","101233","0.0-4.0-1.0-0.6","3","1","3cpxzw9zgyrkhnu","","null","","sounds/induction/right/ti_SWS.wav","","null","","","","","","","","","","","","","","","","","","","","","","","","","","","","","","","","","","","","","","","","","",""
"html-button-response","40","102968","0.0-4.0-1.0-1.6","3","1","3cpxzw9zgyrkhnu","","1734","","What sound did you hear?","1","","","1","INDUCTION-JUDGMENT","right","1","","","","","","","","","","","","","","","","","","","","","","","","","","","","","","","","","","","","",""
"html-keyboard-response","41","103970","0.0-4.0-1.0-2.6","3","1","3cpxzw9zgyrkhnu","","null","","<p style=""color:green;""><b>Correct!</b></p>","","null","","","","","","","","","","","","","","","","","","","","","","","","","","","","","","","","","","","","","","","","","",""
"audio-keyboard-response","42","104774","0.0-4.0-1.0-0.7","3","1","3cpxzw9zgyrkhnu","","null","","sounds/induction/left/su_SWS.wav","","null","","","","","","","","","","","","","","","","","","","","","","","","","","","","","","","","","","","","","","","","","",""
"html-button-response","43","107048","0.0-4.0-1.0-1.7","3","1","3cpxzw9zgyrkhnu","","2273","","What sound did you hear?","0","","","1","INDUCTION-JUDGMENT","left","0","","","","","","","","","","","","","","","","","","","","","","","","","","","","","","","","","","","","",""
"html-keyboard-response","44","108051","0.0-4.0-1.0-2.7","3","1","3cpxzw9zgyrkhnu","","null","","<p style=""color:green;""><b>Correct!</b></p>","","null","","","","","","","","","","","","","","","","","","","","","","","","","","","","","","","","","","","","","","","","","",""
"audio-keyboard-response","45","108859","0.0-4.0-1.0-0.8","3","1","3cpxzw9zgyrkhnu","","null","","sounds/induction/left/fu_SWS.wav","","null","","","","","","","","","","","","","","","","","","","","","","","","","","","","","","","","","","","","","","","","","",""
"html-button-response","46","110139","0.0-4.0-1.0-1.8","3","1","3cpxzw9zgyrkhnu","","1278.0000000000146","","What sound did you hear?","1","","","1","INDUCTION-JUDGMENT","left","1","","","","","","","","","","","","","","","","","","","","","","","","","","","","","","","","","","","","",""
"html-keyboard-response","47","111140","0.0-4.0-1.0-2.8","3","1","3cpxzw9zgyrkhnu","","null","","<p style=""color:green;""><b>Correct!</b></p>","","null","","","","","","","","","","","","","","","","","","","","","","","","","","","","","","","","","","","","","","","","","",""
"audio-keyboard-response","48","111942","0.0-4.0-1.0-0.9","3","1","3cpxzw9zgyrkhnu","","null","","sounds/induction/right/ko_SWS.wav","","null","","","","","","","","","","","","","","","","","","","","","","","","","","","","","","","","","","","","","","","","","",""
"html-button-response","49","114114","0.0-4.0-1.0-1.9","3","1","3cpxzw9zgyrkhnu","","2171","","What sound did you hear?","0","","","1","INDUCTION-JUDGMENT","right","0","","","","","","","","","","","","","","","","","","","","","","","","","","","","","","","","","","","","",""
"html-keyboard-response","50","115116","0.0-4.0-1.0-2.9","3","1","3cpxzw9zgyrkhnu","","null","","<p style=""color:green;""><b>Correct!</b></p>","","null","","","","","","","","","","","","","","","","","","","","","","","","","","","","","","","","","","","","","","","","","",""
"audio-keyboard-response","51","115920","0.0-4.0-1.0-0.10","3","1","3cpxzw9zgyrkhnu","","null","","sounds/induction/left/fe_SWS.wav","","null","","","","","","","","","","","","","","","","","","","","","","","","","","","","","","","","","","","","","","","","","",""
"html-button-response","52","118502","0.0-4.0-1.0-1.10","3","1","3cpxzw9zgyrkhnu","","2579.9999999999854","","What sound did you hear?","1","","","1","INDUCTION-JUDGMENT","left","1","","","","","","","","","","","","","","","","","","","","","","","","","","","","","","","","","","","","",""
"html-keyboard-response","53","119504","0.0-4.0-1.0-2.10","3","1","3cpxzw9zgyrkhnu","","null","","<p style=""color:green;""><b>Correct!</b></p>","","null","","","","","","","","","","","","","","","","","","","","","","","","","","","","","","","","","","","","","","","","","",""
"audio-keyboard-response","54","120315","0.0-4.0-1.0-0.11","3","1","3cpxzw9zgyrkhnu","","null","","sounds/induction/left/ge_SWS.wav","","null","","","","","","","","","","","","","","","","","","","","","","","","","","","","","","","","","","","","","","","","","",""
"html-button-response","55","121852","0.0-4.0-1.0-1.11","3","1","3cpxzw9zgyrkhnu","","1536","","What sound did you hear?","1","","","1","INDUCTION-JUDGMENT","left","1","","","","","","","","","","","","","","","","","","","","","","","","","","","","","","","","","","","","",""
"html-keyboard-response","56","122854","0.0-4.0-1.0-2.11","3","1","3cpxzw9zgyrkhnu","","null","","<p style=""color:green;""><b>Correct!</b></p>","","null","","","","","","","","","","","","","","","","","","","","","","","","","","","","","","","","","","","","","","","","","",""
"audio-keyboard-response","57","123664","0.0-4.0-1.0-0.12","3","1","3cpxzw9zgyrkhnu","","null","","sounds/induction/right/fe_SWS.wav","","null","","","","","","","","","","","","","","","","","","","","","","","","","","","","","","","","","","","","","","","","","",""
"html-button-response","58","125673","0.0-4.0-1.0-1.12","3","1","3cpxzw9zgyrkhnu","","2006.9999999999854","","What sound did you hear?","0","","","1","INDUCTION-JUDGMENT","right","0","","","","","","","","","","","","","","","","","","","","","","","","","","","","","","","","","","","","",""
"html-keyboard-response","59","126675","0.0-4.0-1.0-2.12","3","1","3cpxzw9zgyrkhnu","","null","","<p style=""color:green;""><b>Correct!</b></p>","","null","","","","","","","","","","","","","","","","","","","","","","","","","","","","","","","","","","","","","","","","","",""
"audio-keyboard-response","60","127482","0.0-4.0-1.0-0.13","3","1","3cpxzw9zgyrkhnu","","null","","sounds/induction/left/pu_SWS.wav","","null","","","","","","","","","","","","","","","","","","","","","","","","","","","","","","","","","","","","","","","","","",""
"html-button-response","61","128910","0.0-4.0-1.0-1.13","3","1","3cpxzw9zgyrkhnu","","1427","","What sound did you hear?","0","","","1","INDUCTION-JUDGMENT","left","0","","","","","","","","","","","","","","","","","","","","","","","","","","","","","","","","","","","","",""
"html-keyboard-response","62","129912","0.0-4.0-1.0-2.13","3","1","3cpxzw9zgyrkhnu","","null","","<p style=""color:green;""><b>Correct!</b></p>","","null","","","","","","","","","","","","","","","","","","","","","","","","","","","","","","","","","","","","","","","","","",""
"audio-keyboard-response","63","130715","0.0-4.0-1.0-0.14","3","1","3cpxzw9zgyrkhnu","","null","","sounds/induction/right/ko_SWS.wav","","null","","","","","","","","","","","","","","","","","","","","","","","","","","","","","","","","","","","","","","","","","",""
"html-button-response","64","132306","0.0-4.0-1.0-1.14","3","1","3cpxzw9zgyrkhnu","","1590","","What sound did you hear?","0","","","1","INDUCTION-JUDGMENT","right","0","","","","","","","","","","","","","","","","","","","","","","","","","","","","","","","","","","","","",""
"html-keyboard-response","65","133307","0.0-4.0-1.0-2.14","3","1","3cpxzw9zgyrkhnu","","null","","<p style=""color:green;""><b>Correct!</b></p>","","null","","","","","","","","","","","","","","","","","","","","","","","","","","","","","","","","","","","","","","","","","",""
"audio-keyboard-response","66","134117","0.0-4.0-1.0-0.15","3","1","3cpxzw9zgyrkhnu","","null","","sounds/induction/right/ni_SWS.wav","","null","","","","","","","","","","","","","","","","","","","","","","","","","","","","","","","","","","","","","","","","","",""
"html-button-response","67","136072","0.0-4.0-1.0-1.15","3","1","3cpxzw9zgyrkhnu","","1954","","What sound did you hear?","0","","","1","INDUCTION-JUDGMENT","right","0","","","","","","","","","","","","","","","","","","","","","","","","","","","","","","","","","","","","",""
"html-keyboard-response","68","137075","0.0-4.0-1.0-2.15","3","1","3cpxzw9zgyrkhnu","","null","","<p style=""color:green;""><b>Correct!</b></p>","","null","","","","","","","","","","","","","","","","","","","","","","","","","","","","","","","","","","","","","","","","","",""
"audio-keyboard-response","69","137883","0.0-4.0-1.0-0.16","3","1","3cpxzw9zgyrkhnu","","null","","sounds/induction/right/pu_SWS.wav","","null","","","","","","","","","","","","","","","","","","","","","","","","","","","","","","","","","","","","","","","","","",""
"html-button-response","70","139473","0.0-4.0-1.0-1.16","3","1","3cpxzw9zgyrkhnu","","1589","","What sound did you hear?","1","","","1","INDUCTION-JUDGMENT","right","1","","","","","","","","","","","","","","","","","","","","","","","","","","","","","","","","","","","","",""
"html-keyboard-response","71","140475","0.0-4.0-1.0-2.16","3","1","3cpxzw9zgyrkhnu","","null","","<p style=""color:green;""><b>Correct!</b></p>","","null","","","","","","","","","","","","","","","","","","","","","","","","","","","","","","","","","","","","","","","","","",""
"audio-keyboard-response","72","141285","0.0-4.0-1.0-0.17","3","1","3cpxzw9zgyrkhnu","","null","","sounds/induction/right/re_SWS.wav","","null","","","","","","","","","","","","","","","","","","","","","","","","","","","","","","","","","","","","","","","","","",""
"html-button-response","73","142870","0.0-4.0-1.0-1.17","3","1","3cpxzw9zgyrkhnu","","1584","","What sound did you hear?","1","","","1","INDUCTION-JUDGMENT","right","1","","","","","","","","","","","","","","","","","","","","","","","","","","","","","","","","","","","","",""
"html-keyboard-response","74","143872","0.0-4.0-1.0-2.17","3","1","3cpxzw9zgyrkhnu","","null","","<p style=""color:green;""><b>Correct!</b></p>","","null","","","","","","","","","","","","","","","","","","","","","","","","","","","","","","","","","","","","","","","","","",""
"audio-keyboard-response","75","144677","0.0-4.0-1.0-0.18","3","1","3cpxzw9zgyrkhnu","","null","","sounds/induction/left/ru_SWS.wav","","null","","","","","","","","","","","","","","","","","","","","","","","","","","","","","","","","","","","","","","","","","",""
"html-button-response","76","146374","0.0-4.0-1.0-1.18","3","1","3cpxzw9zgyrkhnu","","1696","","What sound did you hear?","0","","","1","INDUCTION-JUDGMENT","left","0","","","","","","","","","","","","","","","","","","","","","","","","","","","","","","","","","","","","",""
"html-keyboard-response","77","147376","0.0-4.0-1.0-2.18","3","1","3cpxzw9zgyrkhnu","","null","","<p style=""color:green;""><b>Correct!</b></p>","","null","","","","","","","","","","","","","","","","","","","","","","","","","","","","","","","","","","","","","","","","","",""
"audio-keyboard-response","78","148186","0.0-4.0-1.0-0.19","3","1","3cpxzw9zgyrkhnu","","null","","sounds/induction/left/ni_SWS.wav","","null","","","","","","","","","","","","","","","","","","","","","","","","","","","","","","","","","","","","","","","","","",""
"html-button-response","79","149951","0.0-4.0-1.0-1.19","3","1","3cpxzw9zgyrkhnu","","1765","","What sound did you hear?","1","","","1","INDUCTION-JUDGMENT","left","1","","","","","","","","","","","","","","","","","","","","","","","","","","","","","","","","","","","","",""
"html-keyboard-response","80","150954","0.0-4.0-1.0-2.19","3","1","3cpxzw9zgyrkhnu","","null","","<p style=""color:green;""><b>Correct!</b></p>","","null","","","","","","","","","","","","","","","","","","","","","","","","","","","","","","","","","","","","","","","","","",""
"audio-keyboard-response","81","151759","0.0-4.0-1.0-0.20","3","1","3cpxzw9zgyrkhnu","","null","","sounds/induction/left/su_SWS.wav","","null","","","","","","","","","","","","","","","","","","","","","","","","","","","","","","","","","","","","","","","","","",""
"html-button-response","82","154389","0.0-4.0-1.0-1.20","3","1","3cpxzw9zgyrkhnu","","2628","","What sound did you hear?","0","","","1","INDUCTION-JUDGMENT","left","0","","","","","","","","","","","","","","","","","","","","","","","","","","","","","","","","","","","","",""
"html-keyboard-response","83","155390","0.0-4.0-1.0-2.20","3","1","3cpxzw9zgyrkhnu","","null","","<p style=""color:green;""><b>Correct!</b></p>","","null","","","","","","","","","","","","","","","","","","","","","","","","","","","","","","","","","","","","","","","","","",""
"audio-keyboard-response","84","156196","0.0-4.0-1.0-0.21","3","1","3cpxzw9zgyrkhnu","","null","","sounds/induction/right/ru_SWS.wav","","null","","","","","","","","","","","","","","","","","","","","","","","","","","","","","","","","","","","","","","","","","",""
"html-button-response","85","157317","0.0-4.0-1.0-1.21","3","1","3cpxzw9zgyrkhnu","","1119","","What sound did you hear?","1","","","1","INDUCTION-JUDGMENT","right","1","","","","","","","","","","","","","","","","","","","","","","","","","","","","","","","","","","","","",""
"html-keyboard-response","86","158319","0.0-4.0-1.0-2.21","3","1","3cpxzw9zgyrkhnu","","null","","<p style=""color:green;""><b>Correct!</b></p>","","null","","","","","","","","","","","","","","","","","","","","","","","","","","","","","","","","","","","","","","","","","",""
"audio-keyboard-response","87","159130","0.0-4.0-1.0-0.22","3","1","3cpxzw9zgyrkhnu","","null","","sounds/induction/left/ko_SWS.wav","","null","","","","","","","","","","","","","","","","","","","","","","","","","","","","","","","","","","","","","","","","","",""
"html-button-response","88","160836","0.0-4.0-1.0-1.22","3","1","3cpxzw9zgyrkhnu","","1705","","What sound did you hear?","1","","","1","INDUCTION-JUDGMENT","left","1","","","","","","","","","","","","","","","","","","","","","","","","","","","","","","","","","","","","",""
"html-keyboard-response","89","161838","0.0-4.0-1.0-2.22","3","1","3cpxzw9zgyrkhnu","","null","","<p style=""color:green;""><b>Correct!</b></p>","","null","","","","","","","","","","","","","","","","","","","","","","","","","","","","","","","","","","","","","","","","","",""
"audio-keyboard-response","90","162639","0.0-4.0-1.0-0.23","3","1","3cpxzw9zgyrkhnu","","null","","sounds/induction/right/fu_SWS.wav","","null","","","","","","","","","","","","","","","","","","","","","","","","","","","","","","","","","","","","","","","","","",""
"html-button-response","91","164066","0.0-4.0-1.0-1.23","3","1","3cpxzw9zgyrkhnu","","1425","","What sound did you hear?","0","","","1","INDUCTION-JUDGMENT","right","0","","","","","","","","","","","","","","","","","","","","","","","","","","","","","","","","","","","","",""
"html-keyboard-response","92","165068","0.0-4.0-1.0-2.23","3","1","3cpxzw9zgyrkhnu","","null","","<p style=""color:green;""><b>Correct!</b></p>","","null","","","","","","","","","","","","","","","","","","","","","","","","","","","","","","","","","","","","","","","","","",""
"audio-keyboard-response","93","165871","0.0-4.0-1.0-0.24","3","1","3cpxzw9zgyrkhnu","","null","","sounds/induction/right/su_SWS.wav","","null","","","","","","","","","","","","","","","","","","","","","","","","","","","","","","","","","","","","","","","","","",""
"html-button-response","94","167844","0.0-4.0-1.0-1.24","3","1","3cpxzw9zgyrkhnu","","1972","","What sound did you hear?","0","","","0","INDUCTION-JUDGMENT","right","1","","","","","","","","","","","","","","","","","","","","","","","","","","","","","","","","","","","","",""
"html-keyboard-response","95","168847","0.0-4.0-1.0-2.24","3","1","3cpxzw9zgyrkhnu","","null","","<p style=""color:red;""><b>Incorrect!</b></p>","","null","","","","","","","","","","","","","","","","","","","","","","","","","","","","","","","","","","","","","","","","","",""
"audio-keyboard-response","96","169657","0.0-4.0-1.0-0.25","3","1","3cpxzw9zgyrkhnu","","null","","sounds/induction/left/ti_SWS.wav","","null","","","","","","","","","","","","","","","","","","","","","","","","","","","","","","","","","","","","","","","","","",""
"html-button-response","97","170710","0.0-4.0-1.0-1.25","3","1","3cpxzw9zgyrkhnu","","1052.000000000029","","What sound did you hear?","0","","","1","INDUCTION-JUDGMENT","left","0","","","","","","","","","","","","","","","","","","","","","","","","","","","","","","","","","","","","",""
"html-keyboard-response","98","171713","0.0-4.0-1.0-2.25","3","1","3cpxzw9zgyrkhnu","","null","","<p style=""color:green;""><b>Correct!</b></p>","","null","","","","","","","","","","","","","","","","","","","","","","","","","","","","","","","","","","","","","","","","","",""
"audio-keyboard-response","99","172516","0.0-4.0-1.0-0.26","3","1","3cpxzw9zgyrkhnu","","null","","sounds/induction/right/ta_SWS.wav","","null","","","","","","","","","","","","","","","","","","","","","","","","","","","","","","","","","","","","","","","","","",""
"html-button-response","100","173695","0.0-4.0-1.0-1.26","3","1","3cpxzw9zgyrkhnu","","1178","","What sound did you hear?","1","","","1","INDUCTION-JUDGMENT","right","1","","","","","","","","","","","","","","","","","","","","","","","","","","","","","","","","","","","","",""
"html-keyboard-response","101","174697","0.0-4.0-1.0-2.26","3","1","3cpxzw9zgyrkhnu","","null","","<p style=""color:green;""><b>Correct!</b></p>","","null","","","","","","","","","","","","","","","","","","","","","","","","","","","","","","","","","","","","","","","","","",""
"audio-keyboard-response","102","175503","0.0-4.0-1.0-0.27","3","1","3cpxzw9zgyrkhnu","","null","","sounds/induction/left/ko_SWS.wav","","null","","","","","","","","","","","","","","","","","","","","","","","","","","","","","","","","","","","","","","","","","",""
"html-button-response","103","177328","0.0-4.0-1.0-1.27","3","1","3cpxzw9zgyrkhnu","","1824","","What sound did you hear?","1","","","1","INDUCTION-JUDGMENT","left","1","","","","","","","","","","","","","","","","","","","","","","","","","","","","","","","","","","","","",""
"html-keyboard-response","104","178329","0.0-4.0-1.0-2.27","3","1","3cpxzw9zgyrkhnu","","null","","<p style=""color:green;""><b>Correct!</b></p>","","null","","","","","","","","","","","","","","","","","","","","","","","","","","","","","","","","","","","","","","","","","",""
"audio-keyboard-response","105","179140","0.0-4.0-1.0-0.28","3","1","3cpxzw9zgyrkhnu","","null","","sounds/induction/left/re_SWS.wav","","null","","","","","","","","","","","","","","","","","","","","","","","","","","","","","","","","","","","","","","","","","",""
"html-button-response","106","180102","0.0-4.0-1.0-1.28","3","1","3cpxzw9zgyrkhnu","","961","","What sound did you hear?","0","","","1","INDUCTION-JUDGMENT","left","0","","","","","","","","","","","","","","","","","","","","","","","","","","","","","","","","","","","","",""
"html-keyboard-response","107","181104","0.0-4.0-1.0-2.28","3","1","3cpxzw9zgyrkhnu","","null","","<p style=""color:green;""><b>Correct!</b></p>","","null","","","","","","","","","","","","","","","","","","","","","","","","","","","","","","","","","","","","","","","","","",""
"audio-keyboard-response","108","181913","0.0-4.0-1.0-0.29","3","1","3cpxzw9zgyrkhnu","","null","","sounds/induction/right/re_SWS.wav","","null","","","","","","","","","","","","","","","","","","","","","","","","","","","","","","","","","","","","","","","","","",""
"html-button-response","109","182853","0.0-4.0-1.0-1.29","3","1","3cpxzw9zgyrkhnu","","940","","What sound did you hear?","1","","","1","INDUCTION-JUDGMENT","right","1","","","","","","","","","","","","","","","","","","","","","","","","","","","","","","","","","","","","",""
"html-keyboard-response","110","183855","0.0-4.0-1.0-2.29","3","1","3cpxzw9zgyrkhnu","","null","","<p style=""color:green;""><b>Correct!</b></p>","","null","","","","","","","","","","","","","","","","","","","","","","","","","","","","","","","","","","","","","","","","","",""
"audio-keyboard-response","111","184665","0.0-4.0-1.0-0.30","3","1","3cpxzw9zgyrkhnu","","null","","sounds/induction/left/ni_SWS.wav","","null","","","","","","","","","","","","","","","","","","","","","","","","","","","","","","","","","","","","","","","","","",""
"html-button-response","112","185795","0.0-4.0-1.0-1.30","3","1","3cpxzw9zgyrkhnu","","1129","","What sound did you hear?","1","","","1","INDUCTION-JUDGMENT","left","1","","","","","","","","","","","","","","","","","","","","","","","","","","","","","","","","","","","","",""
"html-keyboard-response","113","186797","0.0-4.0-1.0-2.30","3","1","3cpxzw9zgyrkhnu","","null","","<p style=""color:green;""><b>Correct!</b></p>","","null","","","","","","","","","","","","","","","","","","","","","","","","","","","","","","","","","","","","","","","","","",""
"audio-keyboard-response","114","187598","0.0-4.0-1.0-0.31","3","1","3cpxzw9zgyrkhnu","","null","","sounds/induction/right/ge_SWS.wav","","null","","","","","","","","","","","","","","","","","","","","","","","","","","","","","","","","","","","","","","","","","",""
"html-button-response","115","188700","0.0-4.0-1.0-1.31","3","1","3cpxzw9zgyrkhnu","","1100","","What sound did you hear?","1","","","0","INDUCTION-JUDGMENT","right","0","","","","","","","","","","","","","","","","","","","","","","","","","","","","","","","","","","","","",""
"html-keyboard-response","116","189702","0.0-4.0-1.0-2.31","3","1","3cpxzw9zgyrkhnu","","null","","<p style=""color:red;""><b>Incorrect!</b></p>","","null","","","","","","","","","","","","","","","","","","","","","","","","","","","","","","","","","","","","","","","","","",""
"audio-keyboard-response","117","190510","0.0-4.0-1.0-0.32","3","1","3cpxzw9zgyrkhnu","","null","","sounds/induction/left/me_SWS.wav","","null","","","","","","","","","","","","","","","","","","","","","","","","","","","","","","","","","","","","","","","","","",""
"html-button-response","118","192602","0.0-4.0-1.0-1.32","3","1","3cpxzw9zgyrkhnu","","2091","","What sound did you hear?","1","","","1","INDUCTION-JUDGMENT","left","1","","","","","","","","","","","","","","","","","","","","","","","","","","","","","","","","","","","","",""
"html-keyboard-response","119","193603","0.0-4.0-1.0-2.32","3","1","3cpxzw9zgyrkhnu","","null","","<p style=""color:green;""><b>Correct!</b></p>","","null","","","","","","","","","","","","","","","","","","","","","","","","","","","","","","","","","","","","","","","","","",""
"audio-keyboard-response","120","194414","0.0-4.0-1.0-0.33","3","1","3cpxzw9zgyrkhnu","","null","","sounds/induction/right/me_SWS.wav","","null","","","","","","","","","","","","","","","","","","","","","","","","","","","","","","","","","","","","","","","","","",""
"html-button-response","121","196292","0.0-4.0-1.0-1.33","3","1","3cpxzw9zgyrkhnu","","1878","","What sound did you hear?","0","","","1","INDUCTION-JUDGMENT","right","0","","","","","","","","","","","","","","","","","","","","","","","","","","","","","","","","","","","","",""
"html-keyboard-response","122","197294","0.0-4.0-1.0-2.33","3","1","3cpxzw9zgyrkhnu","","null","","<p style=""color:green;""><b>Correct!</b></p>","","null","","","","","","","","","","","","","","","","","","","","","","","","","","","","","","","","","","","","","","","","","",""
"audio-keyboard-response","123","198104","0.0-4.0-1.0-0.34","3","1","3cpxzw9zgyrkhnu","","null","","sounds/induction/left/ti_SWS.wav","","null","","","","","","","","","","","","","","","","","","","","","","","","","","","","","","","","","","","","","","","","","",""
"html-button-response","124","199328","0.0-4.0-1.0-1.34","3","1","3cpxzw9zgyrkhnu","","1222","","What sound did you hear?","0","","","1","INDUCTION-JUDGMENT","left","0","","","","","","","","","","","","","","","","","","","","","","","","","","","","","","","","","","","","",""
"html-keyboard-response","125","200330","0.0-4.0-1.0-2.34","3","1","3cpxzw9zgyrkhnu","","null","","<p style=""color:green;""><b>Correct!</b></p>","","null","","","","","","","","","","","","","","","","","","","","","","","","","","","","","","","","","","","","","","","","","",""
"audio-keyboard-response","126","201134","0.0-4.0-1.0-0.35","3","1","3cpxzw9zgyrkhnu","","null","","sounds/induction/left/fu_SWS.wav","","null","","","","","","","","","","","","","","","","","","","","","","","","","","","","","","","","","","","","","","","","","",""
"html-button-response","127","202416","0.0-4.0-1.0-1.35","3","1","3cpxzw9zgyrkhnu","","1282","","What sound did you hear?","1","","","1","INDUCTION-JUDGMENT","left","1","","","","","","","","","","","","","","","","","","","","","","","","","","","","","","","","","","","","",""
"html-keyboard-response","128","203418","0.0-4.0-1.0-2.35","3","1","3cpxzw9zgyrkhnu","","null","","<p style=""color:green;""><b>Correct!</b></p>","","null","","","","","","","","","","","","","","","","","","","","","","","","","","","","","","","","","","","","","","","","","",""
"audio-keyboard-response","129","204227","0.0-4.0-1.0-0.36","3","1","3cpxzw9zgyrkhnu","","null","","sounds/induction/right/pu_SWS.wav","","null","","","","","","","","","","","","","","","","","","","","","","","","","","","","","","","","","","","","","","","","","",""
"html-button-response","130","205563","0.0-4.0-1.0-1.36","3","1","3cpxzw9zgyrkhnu","","1335","","What sound did you hear?","1","","","1","INDUCTION-JUDGMENT","right","1","","","","","","","","","","","","","","","","","","","","","","","","","","","","","","","","","","","","",""
"html-keyboard-response","131","206565","0.0-4.0-1.0-2.36","3","1","3cpxzw9zgyrkhnu","","null","","<p style=""color:green;""><b>Correct!</b></p>","","null","","","","","","","","","","","","","","","","","","","","","","","","","","","","","","","","","","","","","","","","","",""
"audio-keyboard-response","132","207373","0.0-4.0-1.0-0.37","3","1","3cpxzw9zgyrkhnu","","null","","sounds/induction/left/me_SWS.wav","","null","","","","","","","","","","","","","","","","","","","","","","","","","","","","","","","","","","","","","","","","","",""
"html-button-response","133","210060","0.0-4.0-1.0-1.37","3","1","3cpxzw9zgyrkhnu","","2685","","What sound did you hear?","1","","","1","INDUCTION-JUDGMENT","left","1","","","","","","","","","","","","","","","","","","","","","","","","","","","","","","","","","","","","",""
"html-keyboard-response","134","211063","0.0-4.0-1.0-2.37","3","1","3cpxzw9zgyrkhnu","","null","","<p style=""color:green;""><b>Correct!</b></p>","","null","","","","","","","","","","","","","","","","","","","","","","","","","","","","","","","","","","","","","","","","","",""
"audio-keyboard-response","135","211875","0.0-4.0-1.0-0.38","3","1","3cpxzw9zgyrkhnu","","null","","sounds/induction/right/ru_SWS.wav","","null","","","","","","","","","","","","","","","","","","","","","","","","","","","","","","","","","","","","","","","","","",""
"html-button-response","136","212875","0.0-4.0-1.0-1.38","3","1","3cpxzw9zgyrkhnu","","998.9999999999709","","What sound did you hear?","1","","","1","INDUCTION-JUDGMENT","right","1","","","","","","","","","","","","","","","","","","","","","","","","","","","","","","","","","","","","",""
"html-keyboard-response","137","213877","0.0-4.0-1.0-2.38","3","1","3cpxzw9zgyrkhnu","","null","","<p style=""color:green;""><b>Correct!</b></p>","","null","","","","","","","","","","","","","","","","","","","","","","","","","","","","","","","","","","","","","","","","","",""
"audio-keyboard-response","138","214680","0.0-4.0-1.0-0.39","3","1","3cpxzw9zgyrkhnu","","null","","sounds/induction/left/ta_SWS.wav","","null","","","","","","","","","","","","","","","","","","","","","","","","","","","","","","","","","","","","","","","","","",""
"html-button-response","139","215624","0.0-4.0-1.0-1.39","3","1","3cpxzw9zgyrkhnu","","944","","What sound did you hear?","0","","","1","INDUCTION-JUDGMENT","left","0","","","","","","","","","","","","","","","","","","","","","","","","","","","","","","","","","","","","",""
"html-keyboard-response","140","216626","0.0-4.0-1.0-2.39","3","1","3cpxzw9zgyrkhnu","","null","","<p style=""color:green;""><b>Correct!</b></p>","","null","","","","","","","","","","","","","","","","","","","","","","","","","","","","","","","","","","","","","","","","","",""
"audio-keyboard-response","141","217432","0.0-4.0-1.0-0.40","3","1","3cpxzw9zgyrkhnu","","null","","sounds/induction/right/fe_SWS.wav","","null","","","","","","","","","","","","","","","","","","","","","","","","","","","","","","","","","","","","","","","","","",""
"html-button-response","142","219113","0.0-4.0-1.0-1.40","3","1","3cpxzw9zgyrkhnu","","1680.000000000029","","What sound did you hear?","0","","","1","INDUCTION-JUDGMENT","right","0","","","","","","","","","","","","","","","","","","","","","","","","","","","","","","","","","","","","",""
"html-keyboard-response","143","220116","0.0-4.0-1.0-2.40","3","1","3cpxzw9zgyrkhnu","","null","","<p style=""color:green;""><b>Correct!</b></p>","","null","","","","","","","","","","","","","","","","","","","","","","","","","","","","","","","","","","","","","","","","","",""
"audio-keyboard-response","144","220920","0.0-4.0-1.0-0.41","3","1","3cpxzw9zgyrkhnu","","null","","sounds/induction/right/ni_SWS.wav","","null","","","","","","","","","","","","","","","","","","","","","","","","","","","","","","","","","","","","","","","","","",""
"html-button-response","145","221999","0.0-4.0-1.0-1.41","3","1","3cpxzw9zgyrkhnu","","1078","","What sound did you hear?","0","","","1","INDUCTION-JUDGMENT","right","0","","","","","","","","","","","","","","","","","","","","","","","","","","","","","","","","","","","","",""
"html-keyboard-response","146","223000","0.0-4.0-1.0-2.41","3","1","3cpxzw9zgyrkhnu","","null","","<p style=""color:green;""><b>Correct!</b></p>","","null","","","","","","","","","","","","","","","","","","","","","","","","","","","","","","","","","","","","","","","","","",""
"audio-keyboard-response","147","223800","0.0-4.0-1.0-0.42","3","1","3cpxzw9zgyrkhnu","","null","","sounds/induction/left/re_SWS.wav","","null","","","","","","","","","","","","","","","","","","","","","","","","","","","","","","","","","","","","","","","","","",""
"html-button-response","148","225083","0.0-4.0-1.0-1.42","3","1","3cpxzw9zgyrkhnu","","1282.000000000029","","What sound did you hear?","0","","","1","INDUCTION-JUDGMENT","left","0","","","","","","","","","","","","","","","","","","","","","","","","","","","","","","","","","","","","",""
"html-keyboard-response","149","226085","0.0-4.0-1.0-2.42","3","1","3cpxzw9zgyrkhnu","","null","","<p style=""color:green;""><b>Correct!</b></p>","","null","","","","","","","","","","","","","","","","","","","","","","","","","","","","","","","","","","","","","","","","","",""
"audio-keyboard-response","150","226893","0.0-4.0-1.0-0.43","3","1","3cpxzw9zgyrkhnu","","null","","sounds/induction/right/fu_SWS.wav","","null","","","","","","","","","","","","","","","","","","","","","","","","","","","","","","","","","","","","","","","","","",""
"html-button-response","151","228109","0.0-4.0-1.0-1.43","3","1","3cpxzw9zgyrkhnu","","1214.999999999971","","What sound did you hear?","0","","","1","INDUCTION-JUDGMENT","right","0","","","","","","","","","","","","","","","","","","","","","","","","","","","","","","","","","","","","",""
"html-keyboard-response","152","229111","0.0-4.0-1.0-2.43","3","1","3cpxzw9zgyrkhnu","","null","","<p style=""color:green;""><b>Correct!</b></p>","","null","","","","","","","","","","","","","","","","","","","","","","","","","","","","","","","","","","","","","","","","","",""
"audio-keyboard-response","153","229922","0.0-4.0-1.0-0.44","3","1","3cpxzw9zgyrkhnu","","null","","sounds/induction/right/ge_SWS.wav","","null","","","","","","","","","","","","","","","","","","","","","","","","","","","","","","","","","","","","","","","","","",""
"html-button-response","154","233179","0.0-4.0-1.0-1.44","3","1","3cpxzw9zgyrkhnu","","3256","","What sound did you hear?","0","","","1","INDUCTION-JUDGMENT","right","0","","","","","","","","","","","","","","","","","","","","","","","","","","","","","","","","","","","","",""
"html-keyboard-response","155","234182","0.0-4.0-1.0-2.44","3","1","3cpxzw9zgyrkhnu","","null","","<p style=""color:green;""><b>Correct!</b></p>","","null","","","","","","","","","","","","","","","","","","","","","","","","","","","","","","","","","","","","","","","","","",""
"audio-keyboard-response","156","234989","0.0-4.0-1.0-0.45","3","1","3cpxzw9zgyrkhnu","","null","","sounds/induction/right/ti_SWS.wav","","null","","","","","","","","","","","","","","","","","","","","","","","","","","","","","","","","","","","","","","","","","",""
"html-button-response","157","236465","0.0-4.0-1.0-1.45","3","1","3cpxzw9zgyrkhnu","","1475","","What sound did you hear?","1","","","1","INDUCTION-JUDGMENT","right","1","","","","","","","","","","","","","","","","","","","","","","","","","","","","","","","","","","","","",""
"html-keyboard-response","158","237467","0.0-4.0-1.0-2.45","3","1","3cpxzw9zgyrkhnu","","null","","<p style=""color:green;""><b>Correct!</b></p>","","null","","","","","","","","","","","","","","","","","","","","","","","","","","","","","","","","","","","","","","","","","",""
"audio-keyboard-response","159","238274","0.0-4.0-1.0-0.46","3","1","3cpxzw9zgyrkhnu","","null","","sounds/induction/left/pu_SWS.wav","","null","","","","","","","","","","","","","","","","","","","","","","","","","","","","","","","","","","","","","","","","","",""
"html-button-response","160","240051","0.0-4.0-1.0-1.46","3","1","3cpxzw9zgyrkhnu","","1776","","What sound did you hear?","0","","","1","INDUCTION-JUDGMENT","left","0","","","","","","","","","","","","","","","","","","","","","","","","","","","","","","","","","","","","",""
"html-keyboard-response","161","241053","0.0-4.0-1.0-2.46","3","1","3cpxzw9zgyrkhnu","","null","","<p style=""color:green;""><b>Correct!</b></p>","","null","","","","","","","","","","","","","","","","","","","","","","","","","","","","","","","","","","","","","","","","","",""
"audio-keyboard-response","162","241858","0.0-4.0-1.0-0.47","3","1","3cpxzw9zgyrkhnu","","null","","sounds/induction/right/ta_SWS.wav","","null","","","","","","","","","","","","","","","","","","","","","","","","","","","","","","","","","","","","","","","","","",""
"html-button-response","163","243079","0.0-4.0-1.0-1.47","3","1","3cpxzw9zgyrkhnu","","1220","","What sound did you hear?","1","","","1","INDUCTION-JUDGMENT","right","1","","","","","","","","","","","","","","","","","","","","","","","","","","","","","","","","","","","","",""
"html-keyboard-response","164","244081","0.0-4.0-1.0-2.47","3","1","3cpxzw9zgyrkhnu","","null","","<p style=""color:green;""><b>Correct!</b></p>","","null","","","","","","","","","","","","","","","","","","","","","","","","","","","","","","","","","","","","","","","","","",""
"html-button-response","165","268195","0.0-5.0-0.0","3","1","3cpxzw9zgyrkhnu","","23612.99999999997","","<p>Thank you for your answers.</p><p>You will now listen to similar sounds. The main difference is that the sounds will be longer and will make up complete sentences.</p><p>Please listen carefully to each sentence. After each sentence, you will be asked to type back what you heard to the best of your ability. After you provide your response, you will be given feedback about the correct answer.</p><p>There are 10 sentences in total.","0","","","","","","","","","","","","","","","","","","","","","","","","","","","","","","","","","","","","","","","","","","",""
"audio-keyboard-response","166","271318","0.0-5.0-1.0-0.0","3","1","3cpxzw9zgyrkhnu","","null","","sounds/sentences/left/14_01_cfSWS.wav","","null","","","","","","","","","","","","","","","","","","","","","","","","","","","","","","","","","","","","","","","","","",""
"sentence-resp","167","282934","0.0-5.0-1.0-1.0","3","1","3cpxzw9zgyrkhnu","","11612","","","","","","","SWS-SENT-RESPONSE","","","{""Q0"":""""}","A cramp is no small danger on a swim.","cramp,no,small,danger,swim","","0","0","0","0","0","0","0","","","","","","","","","","","","","","","","","","","","","","","","","",""
"html-keyboard-response","168","284188","0.0-5.0-1.0-2.0","3","1","3cpxzw9zgyrkhnu","","null","","","","null","","","","","","","","","","","","","","","","","","","","","","","","","","","","","","","","","","","","","","","","","",""
"audio-keyboard-response","169","286806","0.0-5.0-1.0-3.0","3","1","3cpxzw9zgyrkhnu","","null","","sounds/sentences/left/14_01_cfSWS.wav","","null","","","","","","","","","","","","","","","","","","","","","","","","","","","","","","","","","","","","","","","","","",""
"html-keyboard-response","170","287808","0.0-5.0-1.0-4.0","3","1","3cpxzw9zgyrkhnu","","null","","","","null","","","","","","","","","","","","","","","","","","","","","","","","","","","","","","","","","","","","","","","","","",""
"html-button-response","171","291571","0.0-5.0-1.0-5.0","3","1","3cpxzw9zgyrkhnu","","3261","","<p>Press the button below when you are ready to continue.</p>","0","","","","","","","","","","","","","","","","","","","","","","","","","","","","","","","","","","","","","","","","","","",""
"audio-keyboard-response","172","294453","0.0-5.0-1.0-0.1","3","1","3cpxzw9zgyrkhnu","","null","","sounds/sentences/right/14_07_cfSWS.wav","","null","","","","","","","","","","","","","","","","","","","","","","","","","","","","","","","","","","","","","","","","","",""
"sentence-resp","173","310193","0.0-5.0-1.0-1.1","3","1","3cpxzw9zgyrkhnu","","15738","","","","","","","SWS-SENT-RESPONSE","","","{""Q0"":""if you try to maybe""}","Write a fond note to the friend you cherish.","write,fond,note,friend,cherish","IF YOU TRY TO MAYBE","0","0","0","0","0","0","0","","","","","","","","","","","","","","","","","","","","","","","","","",""
"html-keyboard-response","174","311446","0.0-5.0-1.0-2.1","3","1","3cpxzw9zgyrkhnu","","null","","","","null","","","","","","","","","","","","","","","","","","","","","","","","","","","","","","","","","","","","","","","","","",""
"audio-keyboard-response","175","313834","0.0-5.0-1.0-3.1","3","1","3cpxzw9zgyrkhnu","","null","","sounds/sentences/right/14_07_cfSWS.wav","","null","","","","","","","","","","","","","","","","","","","","","","","","","","","","","","","","","","","","","","","","","",""
"html-keyboard-response","176","314836","0.0-5.0-1.0-4.1","3","1","3cpxzw9zgyrkhnu","","null","","","","null","","","","","","","","","","","","","","","","","","","","","","","","","","","","","","","","","","","","","","","","","",""
"html-button-response","177","331664","0.0-5.0-1.0-5.1","3","1","3cpxzw9zgyrkhnu","","16326","","<p>Press the button below when you are ready to continue.</p>","0","","","","","","","","","","","","","","","","","","","","","","","","","","","","","","","","","","","","","","","","","","",""
"audio-keyboard-response","178","334409","0.0-5.0-1.0-0.2","3","1","3cpxzw9zgyrkhnu","","null","","sounds/sentences/right/14_06_cfSWS.wav","","null","","","","","","","","","","","","","","","","","","","","","","","","","","","","","","","","","","","","","","","","","",""
"sentence-resp","179","347846","0.0-5.0-1.0-1.2","3","1","3cpxzw9zgyrkhnu","","13434","","","","","","","SWS-SENT-RESPONSE","","","{""Q0"":""you wall to see\n""}","Bring your problems to the wise chief.","bring,your,problems,wise,chief","YOU WALL TO SEE ","0","0","0","0","0","0","0","","","","","","","","","","","","","","","","","","","","","","","","","",""
"html-keyboard-response","180","349099","0.0-5.0-1.0-2.2","3","1","3cpxzw9zgyrkhnu","","null","","","","null","","","","","","","","","","","","","","","","","","","","","","","","","","","","","","","","","","","","","","","","","",""
"audio-keyboard-response","181","351348","0.0-5.0-1.0-3.2","3","1","3cpxzw9zgyrkhnu","","null","","sounds/sentences/right/14_06_cfSWS.wav","","null","","","","","","","","","","","","","","","","","","","","","","","","","","","","","","","","","","","","","","","","","",""
"html-keyboard-response","182","352350","0.0-5.0-1.0-4.2","3","1","3cpxzw9zgyrkhnu","","null","","","","null","","","","","","","","","","","","","","","","","","","","","","","","","","","","","","","","","","","","","","","","","",""
"html-button-response","183","357709","0.0-5.0-1.0-5.2","3","1","3cpxzw9zgyrkhnu","","4857.999999999942","","<p>Press the button below when you are ready to continue.</p>","0","","","","","","","","","","","","","","","","","","","","","","","","","","","","","","","","","","","","","","","","","","",""
"audio-keyboard-response","184","360531","0.0-5.0-1.0-0.3","3","1","3cpxzw9zgyrkhnu","","null","","sounds/sentences/left/14_02_cfSWS.wav","","null","","","","","","","","","","","","","","","","","","","","","","","","","","","","","","","","","","","","","","","","","",""
"sentence-resp","185","385657","0.0-5.0-1.0-1.3","3","1","3cpxzw9zgyrkhnu","","25124","","","","","","","SWS-SENT-RESPONSE","","","{""Q0"":""""}","He said the same phrase thirty times.","said,same,phrase,thirty,times","","0","0","0","0","0","0","0","","","","","","","","","","","","","","","","","","","","","","","","","",""
"html-keyboard-response","186","386910","0.0-5.0-1.0-2.3","3","1","3cpxzw9zgyrkhnu","","null","","","","null","","","","","","","","","","","","","","","","","","","","","","","","","","","","","","","","","","","","","","","","","",""
"audio-keyboard-response","187","389235","0.0-5.0-1.0-3.3","3","1","3cpxzw9zgyrkhnu","","null","","sounds/sentences/left/14_02_cfSWS.wav","","null","","","","","","","","","","","","","","","","","","","","","","","","","","","","","","","","","","","","","","","","","",""
"html-keyboard-response","188","390237","0.0-5.0-1.0-4.3","3","1","3cpxzw9zgyrkhnu","","null","","","","null","","","","","","","","","","","","","","","","","","","","","","","","","","","","","","","","","","","","","","","","","",""
"html-button-response","189","393165","0.0-5.0-1.0-5.3","3","1","3cpxzw9zgyrkhnu","","2426.000000000058","","<p>Press the button below when you are ready to continue.</p>","0","","","","","","","","","","","","","","","","","","","","","","","","","","","","","","","","","","","","","","","","","","",""
"audio-keyboard-response","190","395720","0.0-5.0-1.0-0.4","3","1","3cpxzw9zgyrkhnu","","null","","sounds/sentences/left/14_04_cfSWS.wav","","null","","","","","","","","","","","","","","","","","","","","","","","","","","","","","","","","","","","","","","","","","",""
"sentence-resp","191","406979","0.0-5.0-1.0-1.4","3","1","3cpxzw9zgyrkhnu","","11258","","","","","","","SWS-SENT-RESPONSE","","","{""Q0"":""he said 72 times again""}","Two plus seven is less than ten.","two,plus,seven,less,ten","HE SAID 72 TIMES AGAIN","0","0","0","0","0","0","0","","","","","","","","","","","","","","","","","","","","","","","","","",""
"html-keyboard-response","192","408232","0.0-5.0-1.0-2.4","3","1","3cpxzw9zgyrkhnu","","null","","","","null","","","","","","","","","","","","","","","","","","","","","","","","","","","","","","","","","","","","","","","","","",""
"audio-keyboard-response","193","410290","0.0-5.0-1.0-3.4","3","1","3cpxzw9zgyrkhnu","","null","","sounds/sentences/left/14_04_cfSWS.wav","","null","","","","","","","","","","","","","","","","","","","","","","","","","","","","","","","","","","","","","","","","","",""
"html-keyboard-response","194","411292","0.0-5.0-1.0-4.4","3","1","3cpxzw9zgyrkhnu","","null","","","","null","","","","","","","","","","","","","","","","","","","","","","","","","","","","","","","","","","","","","","","","","",""
"html-button-response","195","416300","0.0-5.0-1.0-5.4","3","1","3cpxzw9zgyrkhnu","","4506","","<p>Press the button below when you are ready to continue.</p>","0","","","","","","","","","","","","","","","","","","","","","","","","","","","","","","","","","","","","","","","","","","",""
"audio-keyboard-response","196","419313","0.0-5.0-1.0-0.5","3","1","3cpxzw9zgyrkhnu","","null","","sounds/sentences/right/14_10_cfSWS.wav","","null","","","","","","","","","","","","","","","","","","","","","","","","","","","","","","","","","","","","","","","","","",""
"sentence-resp","197","428690","0.0-5.0-1.0-1.5","3","1","3cpxzw9zgyrkhnu","","9374","","","","","","","SWS-SENT-RESPONSE","","","{""Q0"":""something face""}","Port is a strong wine with a smoky taste.","port,strong,wine,smoky,taste","SOMETHING FACE","0","0","0","0","0","0","0","","","","","","","","","","","","","","","","","","","","","","","","","",""
"html-keyboard-response","198","429942","0.0-5.0-1.0-2.5","3","1","3cpxzw9zgyrkhnu","","null","","","","null","","","","","","","","","","","","","","","","","","","","","","","","","","","","","","","","","","","","","","","","","",""
"audio-keyboard-response","199","432455","0.0-5.0-1.0-3.5","3","1","3cpxzw9zgyrkhnu","","null","","sounds/sentences/right/14_10_cfSWS.wav","","null","","","","","","","","","","","","","","","","","","","","","","","","","","","","","","","","","","","","","","","","","",""
"html-keyboard-response","200","433457","0.0-5.0-1.0-4.5","3","1","3cpxzw9zgyrkhnu","","null","","","","null","","","","","","","","","","","","","","","","","","","","","","","","","","","","","","","","","","","","","","","","","",""
"html-button-response","201","438923","0.0-5.0-1.0-5.5","3","1","3cpxzw9zgyrkhnu","","4963","","<p>Press the button below when you are ready to continue.</p>","0","","","","","","","","","","","","","","","","","","","","","","","","","","","","","","","","","","","","","","","","","","",""
"audio-keyboard-response","202","441916","0.0-5.0-1.0-0.6","3","1","3cpxzw9zgyrkhnu","","null","","sounds/sentences/left/14_05_cfSWS.wav","","null","","","","","","","","","","","","","","","","","","","","","","","","","","","","","","","","","","","","","","","","","",""
"sentence-resp","203","452011","0.0-5.0-1.0-1.6","3","1","3cpxzw9zgyrkhnu","","10093","","","","","","","SWS-SENT-RESPONSE","","","{""Q0"":""something girl""}","The glow deepened in the eyes of the sweet girl.","glow,deepened,eyes,sweet,girl","SOMETHING GIRL","0","0","0","0","1","1","0.2","","","","","","","","","","","","","","","","","","","","","","","","","",""
"html-keyboard-response","204","453263","0.0-5.0-1.0-2.6","3","1","3cpxzw9zgyrkhnu","","null","","","","null","","","","","","","","","","","","","","","","","","","","","","","","","","","","","","","","","","","","","","","","","",""
"audio-keyboard-response","205","455760","0.0-5.0-1.0-3.6","3","1","3cpxzw9zgyrkhnu","","null","","sounds/sentences/left/14_05_cfSWS.wav","","null","","","","","","","","","","","","","","","","","","","","","","","","","","","","","","","","","","","","","","","","","",""
"html-keyboard-response","206","456762","0.0-5.0-1.0-4.6","3","1","3cpxzw9zgyrkhnu","","null","","","","null","","","","","","","","","","","","","","","","","","","","","","","","","","","","","","","","","","","","","","","","","",""
"html-button-response","207","459688","0.0-5.0-1.0-5.6","3","1","3cpxzw9zgyrkhnu","","2424.999999999942","","<p>Press the button below when you are ready to continue.</p>","0","","","","","","","","","","","","","","","","","","","","","","","","","","","","","","","","","","","","","","","","","","",""
"audio-keyboard-response","208","462277","0.0-5.0-1.0-0.7","3","1","3cpxzw9zgyrkhnu","","null","","sounds/sentences/left/14_03_cfSWS.wav","","null","","","","","","","","","","","","","","","","","","","","","","","","","","","","","","","","","","","","","","","","","",""
"sentence-resp","209","471000","0.0-5.0-1.0-1.7","3","1","3cpxzw9zgyrkhnu","","8718","","","","","","","SWS-SENT-RESPONSE","","","{""Q0"":""leave without me""}","Pluck the bright rose without leaves.","pluck,bright,rose,without,leaves","LEAVE WITHOUT ME","0","0","0","1","0","1","0.2","","","","","","","","","","","","","","","","","","","","","","","","","",""
"html-keyboard-response","210","472253","0.0-5.0-1.0-2.7","3","1","3cpxzw9zgyrkhnu","","null","","","","null","","","","","","","","","","","","","","","","","","","","","","","","","","","","","","","","","","","","","","","","","",""
"audio-keyboard-response","211","474341","0.0-5.0-1.0-3.7","3","1","3cpxzw9zgyrkhnu","","null","","sounds/sentences/left/14_03_cfSWS.wav","","null","","","","","","","","","","","","","","","","","","","","","","","","","","","","","","","","","","","","","","","","","",""
"html-keyboard-response","212","475344","0.0-5.0-1.0-4.7","3","1","3cpxzw9zgyrkhnu","","null","","","","null","","","","","","","","","","","","","","","","","","","","","","","","","","","","","","","","","","","","","","","","","",""
"html-button-response","213","477152","0.0-5.0-1.0-5.7","3","1","3cpxzw9zgyrkhnu","","1306","","<p>Press the button below when you are ready to continue.</p>","0","","","","","","","","","","","","","","","","","","","","","","","","","","","","","","","","","","","","","","","","","","",""
"audio-keyboard-response","214","479909","0.0-5.0-1.0-0.8","3","1","3cpxzw9zgyrkhnu","","null","","sounds/sentences/right/14_08_cfSWS.wav","","null","","","","","","","","","","","","","","","","","","","","","","","","","","","","","","","","","","","","","","","","","",""
"sentence-resp","215","482889","0.0-5.0-1.0-1.8","3","1","3cpxzw9zgyrkhnu","","2978","","","","","","","SWS-SENT-RESPONSE","","","{""Q0"":""""}","Clothes and lodging are free to new men.","clothes,lodging,free,new,men","","0","0","0","0","0","0","0","","","","","","","","","","","","","","","","","","","","","","","","","",""
"html-keyboard-response","216","484141","0.0-5.0-1.0-2.8","3","1","3cpxzw9zgyrkhnu","","null","","","","null","","","","","","","","","","","","","","","","","","","","","","","","","","","","","","","","","","","","","","","","","",""
"audio-keyboard-response","217","486394","0.0-5.0-1.0-3.8","3","1","3cpxzw9zgyrkhnu","","null","","sounds/sentences/right/14_08_cfSWS.wav","","null","","","","","","","","","","","","","","","","","","","","","","","","","","","","","","","","","","","","","","","","","",""
"html-keyboard-response","218","487396","0.0-5.0-1.0-4.8","3","1","3cpxzw9zgyrkhnu","","null","","","","null","","","","","","","","","","","","","","","","","","","","","","","","","","","","","","","","","","","","","","","","","",""
"html-button-response","219","492728","0.0-5.0-1.0-5.8","3","1","3cpxzw9zgyrkhnu","","4830","","<p>Press the button below when you are ready to continue.</p>","0","","","","","","","","","","","","","","","","","","","","","","","","","","","","","","","","","","","","","","","","","","",""
"audio-keyboard-response","220","495450","0.0-5.0-1.0-0.9","3","1","3cpxzw9zgyrkhnu","","null","","sounds/sentences/right/14_09_cfSWS.wav","","null","","","","","","","","","","","","","","","","","","","","","","","","","","","","","","","","","","","","","","","","","",""
"sentence-resp","221","502422","0.0-5.0-1.0-1.9","3","1","3cpxzw9zgyrkhnu","","6971","","","","","","","SWS-SENT-RESPONSE","","","{""Q0"":""something trees\n""}","We frown when events take a bad turn.","frown,events,take,bad,turn","SOMETHING TREES ","0","0","0","0","0","0","0","","","","","","","","","","","","","","","","","","","","","","","","","",""
"html-keyboard-response","222","503675","0.0-5.0-1.0-2.9","3","1","3cpxzw9zgyrkhnu","","null","","","","null","","","","","","","","","","","","","","","","","","","","","","","","","","","","","","","","","","","","","","","","","",""
"audio-keyboard-response","223","505903","0.0-5.0-1.0-3.9","3","1","3cpxzw9zgyrkhnu","","null","","sounds/sentences/right/14_09_cfSWS.wav","","null","","","","","","","","","","","","","","","","","","","","","","","","","","","","","","","","","","","","","","","","","",""
"html-keyboard-response","224","506905","0.0-5.0-1.0-4.9","3","1","3cpxzw9zgyrkhnu","","null","","","","null","","","","","","","","","","","","","","","","","","","","","","","","","","","","","","","","","","","","","","","","","",""
"html-button-response","225","510534","0.0-5.0-1.0-5.9","3","1","3cpxzw9zgyrkhnu","","3126.999999999942","","<p>Press the button below when you are ready to continue.</p>","0","","","","","","","","","","","","","","","","","","","","","","","","","","","","","","","","","","","","","","","","","","",""
"html-keyboard-response","226","534914","0.0-6.0-0.0","3","1","3cpxzw9zgyrkhnu","","23875","","<p>In this part of the study, you will hear sounds similar to those you just heard.</p><p>Please focus on these sounds, as you may be asked questions about them later.</p><p>Occasionally, the sounds will pause for up to two seconds. When this happens, please press SPACEBAR as quickly as you can.</br>This helps ensure that you are paying attention to the sounds.</p><p>This part of the study will take about 12 minutes to complete, and you will be given the opportunity to take a couple of short breaks every few minutes.</p><p><strong>Press SPACEBAR to begin</strong></p>","","32","","","","","","","","","","","","","","","","","","","","","","","","","","","","","","","","","","","","","","","","","",""
"html-keyboard-response","227","535916","0.0-6.0-1.0-0.0","3","1","3cpxzw9zgyrkhnu","","null","","<p style=""font-size: 40px;"">+</p>","","null","","","","","","","","","","","","","","","","","","","","","","","","","","","","","","","","","","","","","","","","","",""
"html-keyboard-response","228","720917","0.0-6.0-1.0-1.0","3","1","3cpxzw9zgyrkhnu","","null","","","","null","","","SL-TRAIN","","","","","","","","","","","","","","2","null","null","sounds/C/TRAIN/SEQ__11.mp3","2","","","","","","","","","","","","","","","","","","","","",""
"html-button-response","229","798103","0.0-6.0-1.0-2.0","3","1","3cpxzw9zgyrkhnu","","77186","","<p>You may take a short break if you wish.</p>","0","","","","","","","","","","","","","","","","","","","","","","","","","","","","","","","","","","","","","","","","","","",""
"html-keyboard-response","230","799104","0.0-6.0-1.0-3.0","3","1","3cpxzw9zgyrkhnu","","null","","<p style=""font-size: 40px;"">+</p>","","null","","","","","","","","","","","","","","","","","","","","","","","","","","","","","","","","","","","","","","","","","",""
"html-keyboard-response","231","984103","0.0-6.0-1.0-4.0","3","1","3cpxzw9zgyrkhnu","","null","","","","null","","","SL-TRAIN","","","","","","","","","","","","","","2","null","null","sounds/C/TRAIN/SEQ__05.mp3","4","","","","","","","","","","","","","","","","","","","","",""
"html-button-response","232","988428","0.0-6.0-1.0-5.0","3","1","3cpxzw9zgyrkhnu","","4323.000000000116","","<p>You may take a short break if you wish.</p>","0","","","","","","","","","","","","","","","","","","","","","","","","","","","","","","","","","","","","","","","","","","",""
"html-keyboard-response","233","989430","0.0-6.0-1.0-6.0","3","1","3cpxzw9zgyrkhnu","","null","","<p style=""font-size: 40px;"">+</p>","","null","","","","","","","","","","","","","","","","","","","","","","","","","","","","","","","","","","","","","","","","","",""
"html-keyboard-response","234","1174428","0.0-6.0-1.0-7.0","3","1","3cpxzw9zgyrkhnu","","null","","","","null","","","SL-TRAIN","","","","","","","","","","","","","","2","null","null","sounds/C/TRAIN/SEQ__08.mp3","6","","","","","","","","","","","","","","","","","","","","",""
"html-button-response","235","1177605","0.0-6.0-1.0-8.0","3","1","3cpxzw9zgyrkhnu","","3174","","<p>You may take a short break if you wish.</p>","0","","","","","","","","","","","","","","","","","","","","","","","","","","","","","","","","","","","","","","","","","","",""
"html-keyboard-response","236","1178607","0.0-6.0-1.0-9.0","3","1","3cpxzw9zgyrkhnu","","null","","<p style=""font-size: 40px;"">+</p>","","null","","","","","","","","","","","","","","","","","","","","","","","","","","","","","","","","","","","","","","","","","",""
"html-keyboard-response","237","1363606","0.0-6.0-1.0-10.0","3","1","3cpxzw9zgyrkhnu","","null","","","","null","","","SL-TRAIN","","","","","","","","","","","","","","2","null","null","sounds/C/TRAIN/SEQ__10.mp3","4","","","","","","","","","","","","","","","","","","","","",""
"html-button-response","238","1368442","0.0-6.0-1.0-11.0","3","1","3cpxzw9zgyrkhnu","","4832","","<p>You may take a short break if you wish.</p>","0","","","","","","","","","","","","","","","","","","","","","","","","","","","","","","","","","","","","","","","","","","",""
"html-button-response","239","1387020","0.0-7.0-0.0","3","1","3cpxzw9zgyrkhnu","","18576","","<p>Welcome to the second part of the study. This is a <u>familiarity task</u>.</p><p>You will now hear short sounds and will be asked to rate how familiar they sound to you <b>based on what you heard in the previous part of the study</b>.</p><p>You will rate 12 sounds in total.</p>","0","","","","","","","","","","","","","","","","","","","","","","","","","","","","","","","","","","","","","","","","","","",""
"html-keyboard-response","240","1388022","0.0-7.0-1.0-0.0","3","1","3cpxzw9zgyrkhnu","","null","","","","null","","","","","","","","","","","","","","","","","","","","","","","","","","","","","","","","","","","","","","","","","",""
"audio-keyboard-response","241","1388970","0.0-7.0-1.0-1.0","3","1","3cpxzw9zgyrkhnu","","null","","sounds/C/FAM/N002.mp3","","null","","","","","","","","","","","","","","","","","","","","","","","","","","","","","","","","","","","","","","","","","",""
"html-keyboard-response","242","1402894","0.0-7.0-1.0-2.0","3","1","3cpxzw9zgyrkhnu","","13418","","<p>How familiar did this sound to you?</p><p>1&nbsp;&nbsp;&nbsp;&nbsp;&nbsp;&nbsp;&nbsp;&nbsp;&nbsp;&nbsp;&nbsp;&nbsp;&nbsp;&nbsp;&nbsp;&nbsp;&nbsp;&nbsp;&nbsp;2&nbsp;&nbsp;&nbsp;&nbsp;&nbsp;&nbsp;&nbsp;&nbsp;&nbsp;&nbsp;&nbsp;&nbsp;&nbsp;&nbsp;&nbsp;&nbsp;&nbsp;&nbsp;&nbsp;3&nbsp;&nbsp;&nbsp;&nbsp;&nbsp;&nbsp;&nbsp;&nbsp;&nbsp;&nbsp;&nbsp;&nbsp;&nbsp;&nbsp;&nbsp;&nbsp;&nbsp;&nbsp;&nbsp;4</p><p style=""font-size:14px"">Not at all familiar&nbsp;&nbsp;&nbsp;&nbsp;A little familiar&nbsp;&nbsp;&nbsp;Moderately familiar&nbsp;&nbsp;&nbsp;Extremely familiar</p><p>(press the corresponding number on your keyboard)</p>","","52","","","FAM-RESPONSE","","","","","","","","","","","","","","","","","","","sounds/C/FAM/N002.mp3","nonword","","","","","","","","","","","","","","","","","","",""
"html-keyboard-response","243","1404898","0.0-7.0-1.0-0.1","3","1","3cpxzw9zgyrkhnu","","null","","","","null","","","","","","","","","","","","","","","","","","","","","","","","","","","","","","","","","","","","","","","","","",""
"audio-keyboard-response","244","1405842","0.0-7.0-1.0-1.1","3","1","3cpxzw9zgyrkhnu","","null","","sounds/C/FAM/P004.mp3","","null","","","","","","","","","","","","","","","","","","","","","","","","","","","","","","","","","","","","","","","","","",""
"html-keyboard-response","245","1412149","0.0-7.0-1.0-2.1","3","1","3cpxzw9zgyrkhnu","","5805","","<p>How familiar did this sound to you?</p><p>1&nbsp;&nbsp;&nbsp;&nbsp;&nbsp;&nbsp;&nbsp;&nbsp;&nbsp;&nbsp;&nbsp;&nbsp;&nbsp;&nbsp;&nbsp;&nbsp;&nbsp;&nbsp;&nbsp;2&nbsp;&nbsp;&nbsp;&nbsp;&nbsp;&nbsp;&nbsp;&nbsp;&nbsp;&nbsp;&nbsp;&nbsp;&nbsp;&nbsp;&nbsp;&nbsp;&nbsp;&nbsp;&nbsp;3&nbsp;&nbsp;&nbsp;&nbsp;&nbsp;&nbsp;&nbsp;&nbsp;&nbsp;&nbsp;&nbsp;&nbsp;&nbsp;&nbsp;&nbsp;&nbsp;&nbsp;&nbsp;&nbsp;4</p><p style=""font-size:14px"">Not at all familiar&nbsp;&nbsp;&nbsp;&nbsp;A little familiar&nbsp;&nbsp;&nbsp;Moderately familiar&nbsp;&nbsp;&nbsp;Extremely familiar</p><p>(press the corresponding number on your keyboard)</p>","","52","","","FAM-RESPONSE","","","","","","","","","","","","","","","","","","","sounds/C/FAM/P004.mp3","partword","","","","","","","","","","","","","","","","","","",""
"html-keyboard-response","246","1414152","0.0-7.0-1.0-0.2","3","1","3cpxzw9zgyrkhnu","","null","","","","null","","","","","","","","","","","","","","","","","","","","","","","","","","","","","","","","","","","","","","","","","",""
"audio-keyboard-response","247","1415101","0.0-7.0-1.0-1.2","3","1","3cpxzw9zgyrkhnu","","null","","sounds/C/FAM/N001.mp3","","null","","","","","","","","","","","","","","","","","","","","","","","","","","","","","","","","","","","","","","","","","",""
"html-keyboard-response","248","1418751","0.0-7.0-1.0-2.2","3","1","3cpxzw9zgyrkhnu","","3148","","<p>How familiar did this sound to you?</p><p>1&nbsp;&nbsp;&nbsp;&nbsp;&nbsp;&nbsp;&nbsp;&nbsp;&nbsp;&nbsp;&nbsp;&nbsp;&nbsp;&nbsp;&nbsp;&nbsp;&nbsp;&nbsp;&nbsp;2&nbsp;&nbsp;&nbsp;&nbsp;&nbsp;&nbsp;&nbsp;&nbsp;&nbsp;&nbsp;&nbsp;&nbsp;&nbsp;&nbsp;&nbsp;&nbsp;&nbsp;&nbsp;&nbsp;3&nbsp;&nbsp;&nbsp;&nbsp;&nbsp;&nbsp;&nbsp;&nbsp;&nbsp;&nbsp;&nbsp;&nbsp;&nbsp;&nbsp;&nbsp;&nbsp;&nbsp;&nbsp;&nbsp;4</p><p style=""font-size:14px"">Not at all familiar&nbsp;&nbsp;&nbsp;&nbsp;A little familiar&nbsp;&nbsp;&nbsp;Moderately familiar&nbsp;&nbsp;&nbsp;Extremely familiar</p><p>(press the corresponding number on your keyboard)</p>","","52","","","FAM-RESPONSE","","","","","","","","","","","","","","","","","","","sounds/C/FAM/N001.mp3","nonword","","","","","","","","","","","","","","","","","","",""
"html-keyboard-response","249","1420754","0.0-7.0-1.0-0.3","3","1","3cpxzw9zgyrkhnu","","null","","","","null","","","","","","","","","","","","","","","","","","","","","","","","","","","","","","","","","","","","","","","","","",""
"audio-keyboard-response","250","1421703","0.0-7.0-1.0-1.3","3","1","3cpxzw9zgyrkhnu","","null","","sounds/C/FAM/P002.mp3","","null","","","","","","","","","","","","","","","","","","","","","","","","","","","","","","","","","","","","","","","","","",""
"html-keyboard-response","251","1424290","0.0-7.0-1.0-2.3","3","1","3cpxzw9zgyrkhnu","","2084.999999999767","","<p>How familiar did this sound to you?</p><p>1&nbsp;&nbsp;&nbsp;&nbsp;&nbsp;&nbsp;&nbsp;&nbsp;&nbsp;&nbsp;&nbsp;&nbsp;&nbsp;&nbsp;&nbsp;&nbsp;&nbsp;&nbsp;&nbsp;2&nbsp;&nbsp;&nbsp;&nbsp;&nbsp;&nbsp;&nbsp;&nbsp;&nbsp;&nbsp;&nbsp;&nbsp;&nbsp;&nbsp;&nbsp;&nbsp;&nbsp;&nbsp;&nbsp;3&nbsp;&nbsp;&nbsp;&nbsp;&nbsp;&nbsp;&nbsp;&nbsp;&nbsp;&nbsp;&nbsp;&nbsp;&nbsp;&nbsp;&nbsp;&nbsp;&nbsp;&nbsp;&nbsp;4</p><p style=""font-size:14px"">Not at all familiar&nbsp;&nbsp;&nbsp;&nbsp;A little familiar&nbsp;&nbsp;&nbsp;Moderately familiar&nbsp;&nbsp;&nbsp;Extremely familiar</p><p>(press the corresponding number on your keyboard)</p>","","52","","","FAM-RESPONSE","","","","","","","","","","","","","","","","","","","sounds/C/FAM/P002.mp3","partword","","","","","","","","","","","","","","","","","","",""
"html-keyboard-response","252","1426293","0.0-7.0-1.0-0.4","3","1","3cpxzw9zgyrkhnu","","null","","","","null","","","","","","","","","","","","","","","","","","","","","","","","","","","","","","","","","","","","","","","","","",""
"audio-keyboard-response","253","1427239","0.0-7.0-1.0-1.4","3","1","3cpxzw9zgyrkhnu","","null","","sounds/C/FAM/N004.mp3","","null","","","","","","","","","","","","","","","","","","","","","","","","","","","","","","","","","","","","","","","","","",""
"html-keyboard-response","254","1431215","0.0-7.0-1.0-2.4","3","1","3cpxzw9zgyrkhnu","","3474","","<p>How familiar did this sound to you?</p><p>1&nbsp;&nbsp;&nbsp;&nbsp;&nbsp;&nbsp;&nbsp;&nbsp;&nbsp;&nbsp;&nbsp;&nbsp;&nbsp;&nbsp;&nbsp;&nbsp;&nbsp;&nbsp;&nbsp;2&nbsp;&nbsp;&nbsp;&nbsp;&nbsp;&nbsp;&nbsp;&nbsp;&nbsp;&nbsp;&nbsp;&nbsp;&nbsp;&nbsp;&nbsp;&nbsp;&nbsp;&nbsp;&nbsp;3&nbsp;&nbsp;&nbsp;&nbsp;&nbsp;&nbsp;&nbsp;&nbsp;&nbsp;&nbsp;&nbsp;&nbsp;&nbsp;&nbsp;&nbsp;&nbsp;&nbsp;&nbsp;&nbsp;4</p><p style=""font-size:14px"">Not at all familiar&nbsp;&nbsp;&nbsp;&nbsp;A little familiar&nbsp;&nbsp;&nbsp;Moderately familiar&nbsp;&nbsp;&nbsp;Extremely familiar</p><p>(press the corresponding number on your keyboard)</p>","","50","","","FAM-RESPONSE","","","","","","","","","","","","","","","","","","","sounds/C/FAM/N004.mp3","nonword","","","","","","","","","","","","","","","","","","",""
"html-keyboard-response","255","1433218","0.0-7.0-1.0-0.5","3","1","3cpxzw9zgyrkhnu","","null","","","","null","","","","","","","","","","","","","","","","","","","","","","","","","","","","","","","","","","","","","","","","","",""
"audio-keyboard-response","256","1434162","0.0-7.0-1.0-1.5","3","1","3cpxzw9zgyrkhnu","","null","","sounds/C/FAM/W001.mp3","","null","","","","","","","","","","","","","","","","","","","","","","","","","","","","","","","","","","","","","","","","","",""
"html-keyboard-response","257","1438386","0.0-7.0-1.0-2.5","3","1","3cpxzw9zgyrkhnu","","3722","","<p>How familiar did this sound to you?</p><p>1&nbsp;&nbsp;&nbsp;&nbsp;&nbsp;&nbsp;&nbsp;&nbsp;&nbsp;&nbsp;&nbsp;&nbsp;&nbsp;&nbsp;&nbsp;&nbsp;&nbsp;&nbsp;&nbsp;2&nbsp;&nbsp;&nbsp;&nbsp;&nbsp;&nbsp;&nbsp;&nbsp;&nbsp;&nbsp;&nbsp;&nbsp;&nbsp;&nbsp;&nbsp;&nbsp;&nbsp;&nbsp;&nbsp;3&nbsp;&nbsp;&nbsp;&nbsp;&nbsp;&nbsp;&nbsp;&nbsp;&nbsp;&nbsp;&nbsp;&nbsp;&nbsp;&nbsp;&nbsp;&nbsp;&nbsp;&nbsp;&nbsp;4</p><p style=""font-size:14px"">Not at all familiar&nbsp;&nbsp;&nbsp;&nbsp;A little familiar&nbsp;&nbsp;&nbsp;Moderately familiar&nbsp;&nbsp;&nbsp;Extremely familiar</p><p>(press the corresponding number on your keyboard)</p>","","52","","","FAM-RESPONSE","","","","","","","","","","","","","","","","","","","sounds/C/FAM/W001.mp3","word","","","","","","","","","","","","","","","","","","",""
"html-keyboard-response","258","1440389","0.0-7.0-1.0-0.6","3","1","3cpxzw9zgyrkhnu","","null","","","","null","","","","","","","","","","","","","","","","","","","","","","","","","","","","","","","","","","","","","","","","","",""
"audio-keyboard-response","259","1441340","0.0-7.0-1.0-1.6","3","1","3cpxzw9zgyrkhnu","","null","","sounds/C/FAM/W003.mp3","","null","","","","","","","","","","","","","","","","","","","","","","","","","","","","","","","","","","","","","","","","","",""
"html-keyboard-response","260","1442469","0.0-7.0-1.0-2.6","3","1","3cpxzw9zgyrkhnu","","627","","<p>How familiar did this sound to you?</p><p>1&nbsp;&nbsp;&nbsp;&nbsp;&nbsp;&nbsp;&nbsp;&nbsp;&nbsp;&nbsp;&nbsp;&nbsp;&nbsp;&nbsp;&nbsp;&nbsp;&nbsp;&nbsp;&nbsp;2&nbsp;&nbsp;&nbsp;&nbsp;&nbsp;&nbsp;&nbsp;&nbsp;&nbsp;&nbsp;&nbsp;&nbsp;&nbsp;&nbsp;&nbsp;&nbsp;&nbsp;&nbsp;&nbsp;3&nbsp;&nbsp;&nbsp;&nbsp;&nbsp;&nbsp;&nbsp;&nbsp;&nbsp;&nbsp;&nbsp;&nbsp;&nbsp;&nbsp;&nbsp;&nbsp;&nbsp;&nbsp;&nbsp;4</p><p style=""font-size:14px"">Not at all familiar&nbsp;&nbsp;&nbsp;&nbsp;A little familiar&nbsp;&nbsp;&nbsp;Moderately familiar&nbsp;&nbsp;&nbsp;Extremely familiar</p><p>(press the corresponding number on your keyboard)</p>","","52","","","FAM-RESPONSE","","","","","","","","","","","","","","","","","","","sounds/C/FAM/W003.mp3","word","","","","","","","","","","","","","","","","","","",""
"html-keyboard-response","261","1444472","0.0-7.0-1.0-0.7","3","1","3cpxzw9zgyrkhnu","","null","","","","null","","","","","","","","","","","","","","","","","","","","","","","","","","","","","","","","","","","","","","","","","",""
"audio-keyboard-response","262","1445414","0.0-7.0-1.0-1.7","3","1","3cpxzw9zgyrkhnu","","null","","sounds/C/FAM/P001.mp3","","null","","","","","","","","","","","","","","","","","","","","","","","","","","","","","","","","","","","","","","","","","",""
"html-keyboard-response","263","1446261","0.0-7.0-1.0-2.7","3","1","3cpxzw9zgyrkhnu","","344","","<p>How familiar did this sound to you?</p><p>1&nbsp;&nbsp;&nbsp;&nbsp;&nbsp;&nbsp;&nbsp;&nbsp;&nbsp;&nbsp;&nbsp;&nbsp;&nbsp;&nbsp;&nbsp;&nbsp;&nbsp;&nbsp;&nbsp;2&nbsp;&nbsp;&nbsp;&nbsp;&nbsp;&nbsp;&nbsp;&nbsp;&nbsp;&nbsp;&nbsp;&nbsp;&nbsp;&nbsp;&nbsp;&nbsp;&nbsp;&nbsp;&nbsp;3&nbsp;&nbsp;&nbsp;&nbsp;&nbsp;&nbsp;&nbsp;&nbsp;&nbsp;&nbsp;&nbsp;&nbsp;&nbsp;&nbsp;&nbsp;&nbsp;&nbsp;&nbsp;&nbsp;4</p><p style=""font-size:14px"">Not at all familiar&nbsp;&nbsp;&nbsp;&nbsp;A little familiar&nbsp;&nbsp;&nbsp;Moderately familiar&nbsp;&nbsp;&nbsp;Extremely familiar</p><p>(press the corresponding number on your keyboard)</p>","","52","","","FAM-RESPONSE","","","","","","","","","","","","","","","","","","","sounds/C/FAM/P001.mp3","partword","","","","","","","","","","","","","","","","","","",""
"html-keyboard-response","264","1448264","0.0-7.0-1.0-0.8","3","1","3cpxzw9zgyrkhnu","","null","","","","null","","","","","","","","","","","","","","","","","","","","","","","","","","","","","","","","","","","","","","","","","",""
"audio-keyboard-response","265","1449211","0.0-7.0-1.0-1.8","3","1","3cpxzw9zgyrkhnu","","null","","sounds/C/FAM/N003.mp3","","null","","","","","","","","","","","","","","","","","","","","","","","","","","","","","","","","","","","","","","","","","",""
"html-keyboard-response","266","1450476","0.0-7.0-1.0-2.8","3","1","3cpxzw9zgyrkhnu","","762","","<p>How familiar did this sound to you?</p><p>1&nbsp;&nbsp;&nbsp;&nbsp;&nbsp;&nbsp;&nbsp;&nbsp;&nbsp;&nbsp;&nbsp;&nbsp;&nbsp;&nbsp;&nbsp;&nbsp;&nbsp;&nbsp;&nbsp;2&nbsp;&nbsp;&nbsp;&nbsp;&nbsp;&nbsp;&nbsp;&nbsp;&nbsp;&nbsp;&nbsp;&nbsp;&nbsp;&nbsp;&nbsp;&nbsp;&nbsp;&nbsp;&nbsp;3&nbsp;&nbsp;&nbsp;&nbsp;&nbsp;&nbsp;&nbsp;&nbsp;&nbsp;&nbsp;&nbsp;&nbsp;&nbsp;&nbsp;&nbsp;&nbsp;&nbsp;&nbsp;&nbsp;4</p><p style=""font-size:14px"">Not at all familiar&nbsp;&nbsp;&nbsp;&nbsp;A little familiar&nbsp;&nbsp;&nbsp;Moderately familiar&nbsp;&nbsp;&nbsp;Extremely familiar</p><p>(press the corresponding number on your keyboard)</p>","","52","","","FAM-RESPONSE","","","","","","","","","","","","","","","","","","","sounds/C/FAM/N003.mp3","nonword","","","","","","","","","","","","","","","","","","",""
"html-keyboard-response","267","1452480","0.0-7.0-1.0-0.9","3","1","3cpxzw9zgyrkhnu","","null","","","","null","","","","","","","","","","","","","","","","","","","","","","","","","","","","","","","","","","","","","","","","","",""
"audio-keyboard-response","268","1453425","0.0-7.0-1.0-1.9","3","1","3cpxzw9zgyrkhnu","","null","","sounds/C/FAM/W004.mp3","","null","","","","","","","","","","","","","","","","","","","","","","","","","","","","","","","","","","","","","","","","","",""
"html-keyboard-response","269","1454391","0.0-7.0-1.0-2.9","3","1","3cpxzw9zgyrkhnu","","463","","<p>How familiar did this sound to you?</p><p>1&nbsp;&nbsp;&nbsp;&nbsp;&nbsp;&nbsp;&nbsp;&nbsp;&nbsp;&nbsp;&nbsp;&nbsp;&nbsp;&nbsp;&nbsp;&nbsp;&nbsp;&nbsp;&nbsp;2&nbsp;&nbsp;&nbsp;&nbsp;&nbsp;&nbsp;&nbsp;&nbsp;&nbsp;&nbsp;&nbsp;&nbsp;&nbsp;&nbsp;&nbsp;&nbsp;&nbsp;&nbsp;&nbsp;3&nbsp;&nbsp;&nbsp;&nbsp;&nbsp;&nbsp;&nbsp;&nbsp;&nbsp;&nbsp;&nbsp;&nbsp;&nbsp;&nbsp;&nbsp;&nbsp;&nbsp;&nbsp;&nbsp;4</p><p style=""font-size:14px"">Not at all familiar&nbsp;&nbsp;&nbsp;&nbsp;A little familiar&nbsp;&nbsp;&nbsp;Moderately familiar&nbsp;&nbsp;&nbsp;Extremely familiar</p><p>(press the corresponding number on your keyboard)</p>","","52","","","FAM-RESPONSE","","","","","","","","","","","","","","","","","","","sounds/C/FAM/W004.mp3","word","","","","","","","","","","","","","","","","","","",""
"html-keyboard-response","270","1456394","0.0-7.0-1.0-0.10","3","1","3cpxzw9zgyrkhnu","","null","","","","null","","","","","","","","","","","","","","","","","","","","","","","","","","","","","","","","","","","","","","","","","",""
"audio-keyboard-response","271","1457339","0.0-7.0-1.0-1.10","3","1","3cpxzw9zgyrkhnu","","null","","sounds/C/FAM/W002.mp3","","null","","","","","","","","","","","","","","","","","","","","","","","","","","","","","","","","","","","","","","","","","",""
"html-keyboard-response","272","1458241","0.0-7.0-1.0-2.10","3","1","3cpxzw9zgyrkhnu","","399","","<p>How familiar did this sound to you?</p><p>1&nbsp;&nbsp;&nbsp;&nbsp;&nbsp;&nbsp;&nbsp;&nbsp;&nbsp;&nbsp;&nbsp;&nbsp;&nbsp;&nbsp;&nbsp;&nbsp;&nbsp;&nbsp;&nbsp;2&nbsp;&nbsp;&nbsp;&nbsp;&nbsp;&nbsp;&nbsp;&nbsp;&nbsp;&nbsp;&nbsp;&nbsp;&nbsp;&nbsp;&nbsp;&nbsp;&nbsp;&nbsp;&nbsp;3&nbsp;&nbsp;&nbsp;&nbsp;&nbsp;&nbsp;&nbsp;&nbsp;&nbsp;&nbsp;&nbsp;&nbsp;&nbsp;&nbsp;&nbsp;&nbsp;&nbsp;&nbsp;&nbsp;4</p><p style=""font-size:14px"">Not at all familiar&nbsp;&nbsp;&nbsp;&nbsp;A little familiar&nbsp;&nbsp;&nbsp;Moderately familiar&nbsp;&nbsp;&nbsp;Extremely familiar</p><p>(press the corresponding number on your keyboard)</p>","","52","","","FAM-RESPONSE","","","","","","","","","","","","","","","","","","","sounds/C/FAM/W002.mp3","word","","","","","","","","","","","","","","","","","","",""
"html-keyboard-response","273","1460244","0.0-7.0-1.0-0.11","3","1","3cpxzw9zgyrkhnu","","null","","","","null","","","","","","","","","","","","","","","","","","","","","","","","","","","","","","","","","","","","","","","","","",""
"audio-keyboard-response","274","1461190","0.0-7.0-1.0-1.11","3","1","3cpxzw9zgyrkhnu","","null","","sounds/C/FAM/P003.mp3","","null","","","","","","","","","","","","","","","","","","","","","","","","","","","","","","","","","","","","","","","","","",""
"html-keyboard-response","275","1462644","0.0-7.0-1.0-2.11","3","1","3cpxzw9zgyrkhnu","","952","","<p>How familiar did this sound to you?</p><p>1&nbsp;&nbsp;&nbsp;&nbsp;&nbsp;&nbsp;&nbsp;&nbsp;&nbsp;&nbsp;&nbsp;&nbsp;&nbsp;&nbsp;&nbsp;&nbsp;&nbsp;&nbsp;&nbsp;2&nbsp;&nbsp;&nbsp;&nbsp;&nbsp;&nbsp;&nbsp;&nbsp;&nbsp;&nbsp;&nbsp;&nbsp;&nbsp;&nbsp;&nbsp;&nbsp;&nbsp;&nbsp;&nbsp;3&nbsp;&nbsp;&nbsp;&nbsp;&nbsp;&nbsp;&nbsp;&nbsp;&nbsp;&nbsp;&nbsp;&nbsp;&nbsp;&nbsp;&nbsp;&nbsp;&nbsp;&nbsp;&nbsp;4</p><p style=""font-size:14px"">Not at all familiar&nbsp;&nbsp;&nbsp;&nbsp;A little familiar&nbsp;&nbsp;&nbsp;Moderately familiar&nbsp;&nbsp;&nbsp;Extremely familiar</p><p>(press the corresponding number on your keyboard)</p>","","50","","","FAM-RESPONSE","","","","","","","","","","","","","","","","","","","sounds/C/FAM/P003.mp3","partword","","","","","","","","","","","","","","","","","","",""
"html-button-response","276","1483069","0.0-8.0-0.0","3","1","3cpxzw9zgyrkhnu","","19423.999999999767","","<p>You will now listen to longer sound sequences.</p><p>Each sound sequence will last about 16 seconds.</p><p>On each trial, you will be given a <u>TARGET SOUND</u>. Your task is to listen very carefully for this sound.</p><p>Every time you hear the <u>TARGET SOUND</u>, you will press the <b>SPACEBAR</b> as quickly and accurately as you can.</p>","0","","","","","","","","","","","","","","","","","","","","","","","","","","","","","","","","","","","","","","","","","","",""
"html-button-response","277","1502003","0.0-8.0-1.0","3","1","3cpxzw9zgyrkhnu","","18682","","<p>It is very important that you make your responses as quickly and accurately as possible.</p><p>To help you make your responses, you will be able to listen to the <u>TARGET SOUND</u> at the beginning of each trial.</p><p>There will be 36 total trials.</p><p><b>Note: This is meant to be a difficult task. We simply want you to try your best.</p>","0","","","","","","","","","","","","","","","","","","","","","","","","","","","","","","","","","","","","","","","","","","",""
"html-button-response","278","1504088","0.0-8.0-2.0-0.0","3","1","3cpxzw9zgyrkhnu","","1830","","<p>Trial 1 of 36</p>","0","","","","","","","","","","","","","","","","","","","","","","","","","ME","sounds/syllables/me_SWS.wav","900,6300,8100,9900","1","","","","","","","","","","","","","","",""
"html-keyboard-response","279","1508112","0.0-8.0-2.0-1.0","3","1","3cpxzw9zgyrkhnu","","4021","","","","80","","","","","","","","","","","","","","","","","","","","","","","","ME","","900,6300,8100,9900","1","","","","","","","","","","","","","","",""
"audio-keyboard-response","280","1508420","0.0-8.0-2.0-2.0-0.0","3","1","3cpxzw9zgyrkhnu","","null","","sounds/syllables/me_SWS.wav","","null","","","","","","","","","","","","","","","","","","","","","","","","","","","","","","","","","","","","","","","","","",""
"html-keyboard-response","281","1513476","0.0-8.0-2.0-2.0-1.0","3","1","3cpxzw9zgyrkhnu","","5052.999999999767","","<p>To replay the <u>TARGET SOUND</u>, press P.</p> When you are ready to begin, press SPACEBAR.","","80","","","","","","","","","","","","","","","","","","","","","","","","","","","","","","","","","","","","","","","","","",""
"audio-keyboard-response","282","1514287","0.0-8.0-2.0-2.1-0.1","3","1","3cpxzw9zgyrkhnu","","null","","sounds/syllables/me_SWS.wav","","null","","","","","","","","","","","","","","","","","","","","","","","","","","","","","","","","","","","","","","","","","",""
"html-keyboard-response","283","1515244","0.0-8.0-2.0-2.1-1.1","3","1","3cpxzw9zgyrkhnu","","957","","<p>To replay the <u>TARGET SOUND</u>, press P.</p> When you are ready to begin, press SPACEBAR.","","32","","","","","","","","","","","","","","","","","","","","","","","","","","","","","","","","","","","","","","","","","",""
"audio-keyboard-response","284","1530190","0.0-8.0-2.0-3.0","3","1","3cpxzw9zgyrkhnu","","1493","","sounds/C/TD/ME_07_TD.mp3","","32","","","TD_SUMMARY","","","","","","","","","","","","","","","","","","","","","ME","","900,6300,8100,9900","1","900","6300","8100","9900","589","568.0000000002328","null","618","1489_3836_6868.000000000233_10518","2","","","","",""
"html-button-response","285","1532618","0.0-8.0-2.0-0.1","3","1","3cpxzw9zgyrkhnu","","2424","","<p>Trial 2 of 36</p>","0","","","","","","","","","","","","","","","","","","","","","","","","","RE","sounds/syllables/re_SWS.wav","2100,4800,9300,12900","2","","","","","","","","","","","","","","",""
"html-keyboard-response","286","1534363","0.0-8.0-2.0-1.1","3","1","3cpxzw9zgyrkhnu","","1743","","","","80","","","","","","","","","","","","","","","","","","","","","","","","RE","","2100,4800,9300,12900","2","","","","","","","","","","","","","","",""
"audio-keyboard-response","287","1534670","0.0-8.0-2.0-2.2-0.2","3","1","3cpxzw9zgyrkhnu","","null","","sounds/syllables/re_SWS.wav","","null","","","","","","","","","","","","","","","","","","","","","","","","","","","","","","","","","","","","","","","","","",""
"html-keyboard-response","288","1536318","0.0-8.0-2.0-2.2-1.2","3","1","3cpxzw9zgyrkhnu","","1647","","<p>To replay the <u>TARGET SOUND</u>, press P.</p> When you are ready to begin, press SPACEBAR.","","32","","","","","","","","","","","","","","","","","","","","","","","","","","","","","","","","","","","","","","","","","",""
"audio-keyboard-response","289","1551267","0.0-8.0-2.0-3.1","3","1","3cpxzw9zgyrkhnu","","2144","","sounds/C/TD/RE_03_TD.mp3","","32","","","TD_SUMMARY","","","","","","","","","","","","","","","","","","","","","RE","","2100,4800,9300,12900","2","2100","4800","9300","12900","null","754.0000000002328","806","846.0000000002328","____2140.000000000233_5094_5554.000000000233_9614_9834_10106_13338_13532_13746.000000000233","1","","","","",""
"html-button-response","290","1554685","0.0-8.0-2.0-0.2","3","1","3cpxzw9zgyrkhnu","","3415","","<p>Trial 3 of 36</p>","0","","","","","","","","","","","","","","","","","","","","","","","","","FU","sounds/syllables/fu_SWS.wav","4200,6900,10500,13200","3","","","","","","","","","","","","","","",""
"html-keyboard-response","291","1555887","0.0-8.0-2.0-1.2","3","1","3cpxzw9zgyrkhnu","","1200","","","","80","","","","","","","","","","","","","","","","","","","","","","","","FU","","4200,6900,10500,13200","3","","","","","","","","","","","","","","",""
"audio-keyboard-response","292","1556195","0.0-8.0-2.0-2.3-0.3","3","1","3cpxzw9zgyrkhnu","","null","","sounds/syllables/fu_SWS.wav","","null","","","","","","","","","","","","","","","","","","","","","","","","","","","","","","","","","","","","","","","","","",""
"html-keyboard-response","293","1558847","0.0-8.0-2.0-2.3-1.3","3","1","3cpxzw9zgyrkhnu","","2651","","<p>To replay the <u>TARGET SOUND</u>, press P.</p> When you are ready to begin, press SPACEBAR.","","80","","","","","","","","","","","","","","","","","","","","","","","","","","","","","","","","","","","","","","","","","",""
"audio-keyboard-response","294","1559650","0.0-8.0-2.0-2.4-0.4","3","1","3cpxzw9zgyrkhnu","","null","","sounds/syllables/fu_SWS.wav","","null","","","","","","","","","","","","","","","","","","","","","","","","","","","","","","","","","","","","","","","","","",""
"html-keyboard-response","295","1560604","0.0-8.0-2.0-2.4-1.4","3","1","3cpxzw9zgyrkhnu","","953.0000000002328","","<p>To replay the <u>TARGET SOUND</u>, press P.</p> When you are ready to begin, press SPACEBAR.","","32","","","","","","","","","","","","","","","","","","","","","","","","","","","","","","","","","","","","","","","","","",""
"audio-keyboard-response","296","1575554","0.0-8.0-2.0-3.2","3","1","3cpxzw9zgyrkhnu","","949","","sounds/C/TD/FU_09_TD.mp3","","32","","","TD_SUMMARY","","","","","","","","","","","","","","","","","","","","","FU","","4200,6900,10500,13200","3","4200","6900","10500","13200","null","523","396","312","_____________944_1221_3425_3722_6750_7051_7423_8987_9259_10508_10896_13512","2","","","","",""
"html-button-response","297","1577864","0.0-8.0-2.0-0.3","3","1","3cpxzw9zgyrkhnu","","2307.999999999767","","<p>Trial 4 of 36</p>","0","","","","","","","","","","","","","","","","","","","","","","","","","TA","sounds/syllables/ta_SWS.wav","2100,4800,10200,12000","2","","","","","","","","","","","","","","",""
"html-keyboard-response","298","1579757","0.0-8.0-2.0-1.3","3","1","3cpxzw9zgyrkhnu","","1891","","","","80","","","","","","","","","","","","","","","","","","","","","","","","TA","","2100,4800,10200,12000","2","","","","","","","","","","","","","","",""
"audio-keyboard-response","299","1580066","0.0-8.0-2.0-2.5-0.5","3","1","3cpxzw9zgyrkhnu","","null","","sounds/syllables/ta_SWS.wav","","null","","","","","","","","","","","","","","","","","","","","","","","","","","","","","","","","","","","","","","","","","",""
"html-keyboard-response","300","1581924","0.0-8.0-2.0-2.5-1.5","3","1","3cpxzw9zgyrkhnu","","1856","","<p>To replay the <u>TARGET SOUND</u>, press P.</p> When you are ready to begin, press SPACEBAR.","","80","","","","","","","","","","","","","","","","","","","","","","","","","","","","","","","","","","","","","","","","","",""
"audio-keyboard-response","301","1582732","0.0-8.0-2.0-2.6-0.6","3","1","3cpxzw9zgyrkhnu","","null","","sounds/syllables/ta_SWS.wav","","null","","","","","","","","","","","","","","","","","","","","","","","","","","","","","","","","","","","","","","","","","",""
"html-keyboard-response","302","1583801","0.0-8.0-2.0-2.6-1.6","3","1","3cpxzw9zgyrkhnu","","1068","","<p>To replay the <u>TARGET SOUND</u>, press P.</p> When you are ready to begin, press SPACEBAR.","","32","","","","","","","","","","","","","","","","","","","","","","","","","","","","","","","","","","","","","","","","","",""
"audio-keyboard-response","303","1598753","0.0-8.0-2.0-3.3","3","1","3cpxzw9zgyrkhnu","","1365","","sounds/C/TD/TA_06_TD.mp3","","32","","","TD_SUMMARY","","","","","","","","","","","","","","","","","","","","","TA","","2100,4800,10200,12000","2","2100","4800","10200","12000","592","null","785","null","_________________________1364_2452_2692_4007_4706_4926_7455_7720_10625_10985_11617.000000000233_13941_14317","2","","","","",""
"html-button-response","304","1600518","0.0-8.0-2.0-0.4","3","1","3cpxzw9zgyrkhnu","","1762","","<p>Trial 5 of 36</p>","0","","","","","","","","","","","","","","","","","","","","","","","","","ME","sounds/syllables/me_SWS.wav","3600,8100,10800,12600","1","","","","","","","","","","","","","","",""
"html-keyboard-response","305","1601720","0.0-8.0-2.0-1.4","3","1","3cpxzw9zgyrkhnu","","1200","","","","80","","","","","","","","","","","","","","","","","","","","","","","","ME","","3600,8100,10800,12600","1","","","","","","","","","","","","","","",""
"audio-keyboard-response","306","1602028","0.0-8.0-2.0-2.7-0.7","3","1","3cpxzw9zgyrkhnu","","null","","sounds/syllables/me_SWS.wav","","null","","","","","","","","","","","","","","","","","","","","","","","","","","","","","","","","","","","","","","","","","",""
"html-keyboard-response","307","1604942","0.0-8.0-2.0-2.7-1.7","3","1","3cpxzw9zgyrkhnu","","2913","","<p>To replay the <u>TARGET SOUND</u>, press P.</p> When you are ready to begin, press SPACEBAR.","","80","","","","","","","","","","","","","","","","","","","","","","","","","","","","","","","","","","","","","","","","","",""
"audio-keyboard-response","308","1605750","0.0-8.0-2.0-2.8-0.8","3","1","3cpxzw9zgyrkhnu","","null","","sounds/syllables/me_SWS.wav","","null","","","","","","","","","","","","","","","","","","","","","","","","","","","","","","","","","","","","","","","","","",""
"html-keyboard-response","309","1606306","0.0-8.0-2.0-2.8-1.8","3","1","3cpxzw9zgyrkhnu","","554.0000000002328","","<p>To replay the <u>TARGET SOUND</u>, press P.</p> When you are ready to begin, press SPACEBAR.","","32","","","","","","","","","","","","","","","","","","","","","","","","","","","","","","","","","","","","","","","","","",""
"audio-keyboard-response","310","1621260","0.0-8.0-2.0-3.4","3","1","3cpxzw9zgyrkhnu","","4075","","sounds/C/TD/ME_01_TD.mp3","","32","","","TD_SUMMARY","","","","","","","","","","","","","","","","","","","","","ME","","3600,8100,10800,12600","1","3600","8100","10800","12600","1060.0000000002328","971","1064","null","______________________________________4082_4400.000000000233_4660.000000000233_8826_9071_9390_11864_12137_12459","2","","","","",""
"html-button-response","311","1623817","0.0-8.0-2.0-0.5","3","1","3cpxzw9zgyrkhnu","","2556","","<p>Trial 6 of 36</p>","0","","","","","","","","","","","","","","","","","","","","","","","","","FU","sounds/syllables/fu_SWS.wav","5100,6900,9600,13200","3","","","","","","","","","","","","","","",""
"html-keyboard-response","312","1625233","0.0-8.0-2.0-1.5","3","1","3cpxzw9zgyrkhnu","","1414","","","","80","","","","","","","","","","","","","","","","","","","","","","","","FU","","5100,6900,9600,13200","3","","","","","","","","","","","","","","",""
"audio-keyboard-response","313","1625536","0.0-8.0-2.0-2.9-0.9","3","1","3cpxzw9zgyrkhnu","","null","","sounds/syllables/fu_SWS.wav","","null","","","","","","","","","","","","","","","","","","","","","","","","","","","","","","","","","","","","","","","","","",""
"html-keyboard-response","314","1626959","0.0-8.0-2.0-2.9-1.9","3","1","3cpxzw9zgyrkhnu","","1421","","<p>To replay the <u>TARGET SOUND</u>, press P.</p> When you are ready to begin, press SPACEBAR.","","80","","","","","","","","","","","","","","","","","","","","","","","","","","","","","","","","","","","","","","","","","",""
"audio-keyboard-response","315","1627766","0.0-8.0-2.0-2.10-0.10","3","1","3cpxzw9zgyrkhnu","","null","","sounds/syllables/fu_SWS.wav","","null","","","","","","","","","","","","","","","","","","","","","","","","","","","","","","","","","","","","","","","","","",""
"html-keyboard-response","316","1628870","0.0-8.0-2.0-2.10-1.10","3","1","3cpxzw9zgyrkhnu","","1103","","<p>To replay the <u>TARGET SOUND</u>, press P.</p> When you are ready to begin, press SPACEBAR.","","32","","","","","","","","","","","","","","","","","","","","","","","","","","","","","","","","","","","","","","","","","",""
"audio-keyboard-response","317","1643819","0.0-8.0-2.0-3.5","3","1","3cpxzw9zgyrkhnu","","2485","","sounds/C/TD/FU_05_TD.mp3","","32","","","TD_SUMMARY","","","","","","","","","","","","","","","","","","","","","FU","","5100,6900,9600,13200","3","5100","6900","9600","13200","null","576","1081.0000000002328","304","_______________________________________________2485_6588_6904_7181.000000000233_7476_9817_10112_10419_10681.000000000233_11069_12645_12903.000000000233_13190_13504","2","","","","",""
"html-button-response","318","1646006","0.0-8.0-2.0-0.6","3","1","3cpxzw9zgyrkhnu","","2184.000000000233","","<p>Trial 7 of 36</p>","0","","","","","","","","","","","","","","","","","","","","","","","","","GE","sounds/syllables/ge_SWS.wav","1500,3300,6900,13200","3","","","","","","","","","","","","","","",""
