"trial_type","trial_index","time_elapsed","internal_node_id","counterbalance","lang_instruct","ParticipantID","view_history","rt","url","stimulus","button_pressed","key_press","correctRESP","correct","designation","location","correctanswer","timeouts","pause_rt01","pause_rt02","train_file","numKeyPress","sound","fam_type","SYLLABLE","EXEMPLAR","TD_LOCS","TD_TYPE","TDLOC_01","TDLOC_02","TDLOC_03","TDLOC_04","TD_RT_01","TD_RT_02","TD_RT_03","TD_RT_04","TD_SUBJ_RTs","number_of_plays","responses","slider_start","response","question_order","syllable","syllable_type"
"pavlovia","0","5","0.0-0.0","1","0","ry4zfnv7vc47y6d","","","","","","","","","","","","","","","","","","","","","","","","","","","","","","","","","","","","","",""
"instructions","1","253492","0.0-1.0","1","0","ry4zfnv7vc47y6d","[{""page_index"":0,""viewing_time"":127570.19999998808},{""page_index"":1,""viewing_time"":125915.5}]","253486.80000001192","","","","","","","","","","","","","","","","","","","","","","","","","","","","","","","","","","","",""
"external-html","2","263246","0.0-2.0","1","0","ry4zfnv7vc47y6d","","9634.699999988079","consent/consent.html","","","","","","","","","","","","","","","","","","","","","","","","","","","","","","","","","","",""
"html-button-response","3","268578","0.0-3.0-0.0-0.0","1","0","ry4zfnv7vc47y6d","","5330.5","","<p>Welcome to the study. You will first complete a short volume calibration and headphone check.</p><p>Please make sure you are in a quiet listening environment, that you are wearing headphones, and that your computer's volume is turned on.<p></p>","0","","","","","","","","","","","","","","","","","","","","","","","","","","","","","","","","",""
"html-button-response","4","274921","0.0-3.0-0.0-1.0","1","0","ry4zfnv7vc47y6d","","6081.300000011921","","<p>The volume calibration will be first.</p><p>You will hear a thirty-second noise. Please adjust your computer's volume so that this noise is being presented at a comfortable level.<p></p>","0","","","","","","","","","","","","","","","","","","","","","","","","","","","","","","","","",""
"audio-button-response","5","286031","0.0-3.0-0.0-2.0","1","0","ry4zfnv7vc47y6d","","10141","","audCalib/volumetest.mp3","0","","","","","","","","","","","","","","","","","","","","","","","","","","","","","","","","",""
"html-button-response","6","297925","0.0-3.0-1.0-0.0","1","0","ry4zfnv7vc47y6d","","11893.400000035763","","<p>You will now complete a short headphone check.</p><p>On each trial, you will hear three tones. One of these tones will be quieter than the others. Your task is to identify whether the quiet tone occured first, second, or third.</p><p>There are six trials in total.<p></p>","0","","","","","","","","","","","","","","","","","","","","","","","","","","","","","","","","",""
"html-keyboard-response","7","298686","0.0-3.0-1.0-1.0-0.0","1","0","ry4zfnv7vc47y6d","","null","","<div style=""font-size:60px;"">+</div>","","null","","","","","","","","","","","","","","","","","","","","","","","","","","","","","","","",""
"audio-button-response","8","303193","0.0-3.0-1.0-1.0-1.0","1","0","ry4zfnv7vc47y6d","","4501","","audCalib/t3_1.mp3","2","","2","1","headphone-test","","","","","","","","","","","","","","","","","","","","","","","","","","","","",""
"html-keyboard-response","9","303958","0.0-3.0-1.0-1.0-0.1","1","0","ry4zfnv7vc47y6d","","null","","<div style=""font-size:60px;"">+</div>","","null","","","","","","","","","","","","","","","","","","","","","","","","","","","","","","","",""
"audio-button-response","10","308415","0.0-3.0-1.0-1.0-1.1","1","0","ry4zfnv7vc47y6d","","4461","","audCalib/t1_1.mp3","0","","0","1","headphone-test","","","","","","","","","","","","","","","","","","","","","","","","","","","","",""
"html-keyboard-response","11","309184","0.0-3.0-1.0-1.0-0.2","1","0","ry4zfnv7vc47y6d","","null","","<div style=""font-size:60px;"">+</div>","","null","","","","","","","","","","","","","","","","","","","","","","","","","","","","","","","",""
"audio-button-response","12","313365","0.0-3.0-1.0-1.0-1.2","1","0","ry4zfnv7vc47y6d","","4179","","audCalib/t2_2.mp3","1","","1","1","headphone-test","","","","","","","","","","","","","","","","","","","","","","","","","","","","",""
"html-keyboard-response","13","314137","0.0-3.0-1.0-1.0-0.3","1","0","ry4zfnv7vc47y6d","","null","","<div style=""font-size:60px;"">+</div>","","null","","","","","","","","","","","","","","","","","","","","","","","","","","","","","","","",""
"audio-button-response","14","318175","0.0-3.0-1.0-1.0-1.3","1","0","ry4zfnv7vc47y6d","","4040","","audCalib/t1_2.mp3","0","","0","1","headphone-test","","","","","","","","","","","","","","","","","","","","","","","","","","","","",""
"html-keyboard-response","15","318940","0.0-3.0-1.0-1.0-0.4","1","0","ry4zfnv7vc47y6d","","null","","<div style=""font-size:60px;"">+</div>","","null","","","","","","","","","","","","","","","","","","","","","","","","","","","","","","","",""
"audio-button-response","16","323385","0.0-3.0-1.0-1.0-1.4","1","0","ry4zfnv7vc47y6d","","4451","","audCalib/t2_1.mp3","1","","1","1","headphone-test","","","","","","","","","","","","","","","","","","","","","","","","","","","","",""
"html-keyboard-response","17","324158","0.0-3.0-1.0-1.0-0.5","1","0","ry4zfnv7vc47y6d","","null","","<div style=""font-size:60px;"">+</div>","","null","","","","","","","","","","","","","","","","","","","","","","","","","","","","","","","",""
"audio-button-response","18","328589","0.0-3.0-1.0-1.0-1.5","1","0","ry4zfnv7vc47y6d","","4432","","audCalib/t3_2.mp3","2","","2","1","headphone-test","","","","","","","","","","","","","","","","","","","","","","","","","","","","",""
"html-button-response","19","330648","0.0-3.0-2.0","1","0","ry4zfnv7vc47y6d","","1801.300000011921","","<p>The volume calibration and headphone check are now complete.</p>","0","","","","","","","","","","","","","","","","","","","","","","","","","","","","","","","","",""
"instructions","20","357617","0.0-4.0-0.0","1","0","ry4zfnv7vc47y6d","[{""page_index"":0,""viewing_time"":3045.100000023842},{""page_index"":1,""viewing_time"":20714.5},{""page_index"":2,""viewing_time"":3209.699999988079}]","26969.5","","","","","","","","","","","","","","","","","","","","","","","","","","","","","","","","","","","",""
"audio-keyboard-response","21","357924","0.0-4.0-1.0-0.0","1","0","ry4zfnv7vc47y6d","","null","","sounds/induction/right_rev/ko_SWS.wav","","null","","","","","","","","","","","","","","","","","","","","","","","","","","","","","","","",""
"html-button-response","22","359527","0.0-4.0-1.0-1.0","1","0","ry4zfnv7vc47y6d","","1602.300000011921","","Was the sound coming from the left or the right?","1","","","1","INDUCTION-JUDGMENT","right","1","","","","","","","","","","","","","","","","","","","","","","","","","","",""
"html-keyboard-response","23","360536","0.0-4.0-1.0-2.0","1","0","ry4zfnv7vc47y6d","","null","","<p style=""color:#054d00;""><b>Correct!</b></p>","","null","","","","","","","","","","","","","","","","","","","","","","","","","","","","","","","",""
"audio-keyboard-response","24","361343","0.0-4.0-1.0-0.1","1","0","ry4zfnv7vc47y6d","","null","","sounds/induction/right_rev/fu_SWS.wav","","null","","","","","","","","","","","","","","","","","","","","","","","","","","","","","","","",""
"html-button-response","25","363341","0.0-4.0-1.0-1.1","1","0","ry4zfnv7vc47y6d","","1997.6000000238419","","Was the sound coming from the left or the right?","1","","","1","INDUCTION-JUDGMENT","right","1","","","","","","","","","","","","","","","","","","","","","","","","","","",""
"html-keyboard-response","26","364343","0.0-4.0-1.0-2.1","1","0","ry4zfnv7vc47y6d","","null","","<p style=""color:#054d00;""><b>Correct!</b></p>","","null","","","","","","","","","","","","","","","","","","","","","","","","","","","","","","","",""
"audio-keyboard-response","27","365163","0.0-4.0-1.0-0.2","1","0","ry4zfnv7vc47y6d","","null","","sounds/induction/right_rev/ge_SWS.wav","","null","","","","","","","","","","","","","","","","","","","","","","","","","","","","","","","",""
"html-button-response","28","366285","0.0-4.0-1.0-1.2","1","0","ry4zfnv7vc47y6d","","1121.1000000238419","","Was the sound coming from the left or the right?","1","","","1","INDUCTION-JUDGMENT","right","1","","","","","","","","","","","","","","","","","","","","","","","","","","",""
"html-keyboard-response","29","367296","0.0-4.0-1.0-2.2","1","0","ry4zfnv7vc47y6d","","null","","<p style=""color:#054d00;""><b>Correct!</b></p>","","null","","","","","","","","","","","","","","","","","","","","","","","","","","","","","","","",""
"audio-keyboard-response","30","368103","0.0-4.0-1.0-0.3","1","0","ry4zfnv7vc47y6d","","null","","sounds/induction/left_rev/fu_SWS.wav","","null","","","","","","","","","","","","","","","","","","","","","","","","","","","","","","","",""
"html-button-response","31","368862","0.0-4.0-1.0-1.3","1","0","ry4zfnv7vc47y6d","","757.6999999880791","","Was the sound coming from the left or the right?","0","","","1","INDUCTION-JUDGMENT","left","0","","","","","","","","","","","","","","","","","","","","","","","","","","",""
"html-keyboard-response","32","369880","0.0-4.0-1.0-2.3","1","0","ry4zfnv7vc47y6d","","null","","<p style=""color:#054d00;""><b>Correct!</b></p>","","null","","","","","","","","","","","","","","","","","","","","","","","","","","","","","","","",""
"audio-keyboard-response","33","370703","0.0-4.0-1.0-0.4","1","0","ry4zfnv7vc47y6d","","null","","sounds/induction/right_rev/fe_SWS.wav","","null","","","","","","","","","","","","","","","","","","","","","","","","","","","","","","","",""
"html-button-response","34","371367","0.0-4.0-1.0-1.4","1","0","ry4zfnv7vc47y6d","","663.6999999880791","","Was the sound coming from the left or the right?","1","","","1","INDUCTION-JUDGMENT","right","1","","","","","","","","","","","","","","","","","","","","","","","","","","",""
"html-keyboard-response","35","372379","0.0-4.0-1.0-2.4","1","0","ry4zfnv7vc47y6d","","null","","<p style=""color:#054d00;""><b>Correct!</b></p>","","null","","","","","","","","","","","","","","","","","","","","","","","","","","","","","","","",""
"audio-keyboard-response","36","373194","0.0-4.0-1.0-0.5","1","0","ry4zfnv7vc47y6d","","null","","sounds/induction/right_rev/ti_SWS.wav","","null","","","","","","","","","","","","","","","","","","","","","","","","","","","","","","","",""
"html-button-response","37","373794","0.0-4.0-1.0-1.5","1","0","ry4zfnv7vc47y6d","","599.1999999880791","","Was the sound coming from the left or the right?","1","","","1","INDUCTION-JUDGMENT","right","1","","","","","","","","","","","","","","","","","","","","","","","","","","",""
"html-keyboard-response","38","374800","0.0-4.0-1.0-2.5","1","0","ry4zfnv7vc47y6d","","null","","<p style=""color:#054d00;""><b>Correct!</b></p>","","null","","","","","","","","","","","","","","","","","","","","","","","","","","","","","","","",""
"audio-keyboard-response","39","375603","0.0-4.0-1.0-0.6","1","0","ry4zfnv7vc47y6d","","null","","sounds/induction/left_rev/ru_SWS.wav","","null","","","","","","","","","","","","","","","","","","","","","","","","","","","","","","","",""
"html-button-response","40","376341","0.0-4.0-1.0-1.6","1","0","ry4zfnv7vc47y6d","","737.3999999761581","","Was the sound coming from the left or the right?","0","","","1","INDUCTION-JUDGMENT","left","0","","","","","","","","","","","","","","","","","","","","","","","","","","",""
"html-keyboard-response","41","377342","0.0-4.0-1.0-2.6","1","0","ry4zfnv7vc47y6d","","null","","<p style=""color:#054d00;""><b>Correct!</b></p>","","null","","","","","","","","","","","","","","","","","","","","","","","","","","","","","","","",""
"audio-keyboard-response","42","378154","0.0-4.0-1.0-0.7","1","0","ry4zfnv7vc47y6d","","null","","sounds/induction/left_rev/me_SWS.wav","","null","","","","","","","","","","","","","","","","","","","","","","","","","","","","","","","",""
"html-button-response","43","378943","0.0-4.0-1.0-1.7","1","0","ry4zfnv7vc47y6d","","788.8000000119209","","Was the sound coming from the left or the right?","0","","","1","INDUCTION-JUDGMENT","left","0","","","","","","","","","","","","","","","","","","","","","","","","","","",""
"html-keyboard-response","44","379956","0.0-4.0-1.0-2.7","1","0","ry4zfnv7vc47y6d","","null","","<p style=""color:#054d00;""><b>Correct!</b></p>","","null","","","","","","","","","","","","","","","","","","","","","","","","","","","","","","","",""
"audio-keyboard-response","45","380763","0.0-4.0-1.0-0.8","1","0","ry4zfnv7vc47y6d","","null","","sounds/induction/left_rev/ge_SWS.wav","","null","","","","","","","","","","","","","","","","","","","","","","","","","","","","","","","",""
"html-button-response","46","381355","0.0-4.0-1.0-1.8","1","0","ry4zfnv7vc47y6d","","590.9000000357628","","Was the sound coming from the left or the right?","0","","","1","INDUCTION-JUDGMENT","left","0","","","","","","","","","","","","","","","","","","","","","","","","","","",""
"html-keyboard-response","47","382357","0.0-4.0-1.0-2.8","1","0","ry4zfnv7vc47y6d","","null","","<p style=""color:#054d00;""><b>Correct!</b></p>","","null","","","","","","","","","","","","","","","","","","","","","","","","","","","","","","","",""
"audio-keyboard-response","48","383164","0.0-4.0-1.0-0.9","1","0","ry4zfnv7vc47y6d","","null","","sounds/induction/right_rev/ru_SWS.wav","","null","","","","","","","","","","","","","","","","","","","","","","","","","","","","","","","",""
"html-button-response","49","383811","0.0-4.0-1.0-1.9","1","0","ry4zfnv7vc47y6d","","646.8999999761581","","Was the sound coming from the left or the right?","1","","","1","INDUCTION-JUDGMENT","right","1","","","","","","","","","","","","","","","","","","","","","","","","","","",""
"html-keyboard-response","50","384825","0.0-4.0-1.0-2.9","1","0","ry4zfnv7vc47y6d","","null","","<p style=""color:#054d00;""><b>Correct!</b></p>","","null","","","","","","","","","","","","","","","","","","","","","","","","","","","","","","","",""
"audio-keyboard-response","51","385634","0.0-4.0-1.0-0.10","1","0","ry4zfnv7vc47y6d","","null","","sounds/induction/right_rev/ti_SWS.wav","","null","","","","","","","","","","","","","","","","","","","","","","","","","","","","","","","",""
"html-button-response","52","386351","0.0-4.0-1.0-1.10","1","0","ry4zfnv7vc47y6d","","716.8999999761581","","Was the sound coming from the left or the right?","1","","","1","INDUCTION-JUDGMENT","right","1","","","","","","","","","","","","","","","","","","","","","","","","","","",""
"html-keyboard-response","53","387367","0.0-4.0-1.0-2.10","1","0","ry4zfnv7vc47y6d","","null","","<p style=""color:#054d00;""><b>Correct!</b></p>","","null","","","","","","","","","","","","","","","","","","","","","","","","","","","","","","","",""
"audio-keyboard-response","54","388183","0.0-4.0-1.0-0.11","1","0","ry4zfnv7vc47y6d","","null","","sounds/induction/left_rev/ru_SWS.wav","","null","","","","","","","","","","","","","","","","","","","","","","","","","","","","","","","",""
"html-button-response","55","388947","0.0-4.0-1.0-1.11","1","0","ry4zfnv7vc47y6d","","762.6999999880791","","Was the sound coming from the left or the right?","0","","","1","INDUCTION-JUDGMENT","left","0","","","","","","","","","","","","","","","","","","","","","","","","","","",""
"html-keyboard-response","56","389958","0.0-4.0-1.0-2.11","1","0","ry4zfnv7vc47y6d","","null","","<p style=""color:#054d00;""><b>Correct!</b></p>","","null","","","","","","","","","","","","","","","","","","","","","","","","","","","","","","","",""
"audio-keyboard-response","57","390763","0.0-4.0-1.0-0.12","1","0","ry4zfnv7vc47y6d","","null","","sounds/induction/right_rev/pu_SWS.wav","","null","","","","","","","","","","","","","","","","","","","","","","","","","","","","","","","",""
"html-button-response","58","391506","0.0-4.0-1.0-1.12","1","0","ry4zfnv7vc47y6d","","742.5","","Was the sound coming from the left or the right?","0","","","0","INDUCTION-JUDGMENT","right","1","","","","","","","","","","","","","","","","","","","","","","","","","","",""
"html-keyboard-response","59","392512","0.0-4.0-1.0-2.12","1","0","ry4zfnv7vc47y6d","","null","","<p style=""color:#690000;""><b>Incorrect!</b></p>","","null","","","","","","","","","","","","","","","","","","","","","","","","","","","","","","","",""
"audio-keyboard-response","60","393323","0.0-4.0-1.0-0.13","1","0","ry4zfnv7vc47y6d","","null","","sounds/induction/left_rev/ni_SWS.wav","","null","","","","","","","","","","","","","","","","","","","","","","","","","","","","","","","",""
"html-button-response","61","394507","0.0-4.0-1.0-1.13","1","0","ry4zfnv7vc47y6d","","1183.199999988079","","Was the sound coming from the left or the right?","0","","","1","INDUCTION-JUDGMENT","left","0","","","","","","","","","","","","","","","","","","","","","","","","","","",""
"html-keyboard-response","62","395513","0.0-4.0-1.0-2.13","1","0","ry4zfnv7vc47y6d","","null","","<p style=""color:#054d00;""><b>Correct!</b></p>","","null","","","","","","","","","","","","","","","","","","","","","","","","","","","","","","","",""
"audio-keyboard-response","63","396324","0.0-4.0-1.0-0.14","1","0","ry4zfnv7vc47y6d","","null","","sounds/induction/left_rev/re_SWS.wav","","null","","","","","","","","","","","","","","","","","","","","","","","","","","","","","","","",""
"html-button-response","64","397935","0.0-4.0-1.0-1.14","1","0","ry4zfnv7vc47y6d","","1610.300000011921","","Was the sound coming from the left or the right?","0","","","1","INDUCTION-JUDGMENT","left","0","","","","","","","","","","","","","","","","","","","","","","","","","","",""
"html-keyboard-response","65","398951","0.0-4.0-1.0-2.14","1","0","ry4zfnv7vc47y6d","","null","","<p style=""color:#054d00;""><b>Correct!</b></p>","","null","","","","","","","","","","","","","","","","","","","","","","","","","","","","","","","",""
"audio-keyboard-response","66","399763","0.0-4.0-1.0-0.15","1","0","ry4zfnv7vc47y6d","","null","","sounds/induction/right_rev/pu_SWS.wav","","null","","","","","","","","","","","","","","","","","","","","","","","","","","","","","","","",""
"html-button-response","67","400791","0.0-4.0-1.0-1.15","1","0","ry4zfnv7vc47y6d","","1027.5999999642372","","Was the sound coming from the left or the right?","1","","","1","INDUCTION-JUDGMENT","right","1","","","","","","","","","","","","","","","","","","","","","","","","","","",""
"html-keyboard-response","68","401800","0.0-4.0-1.0-2.15","1","0","ry4zfnv7vc47y6d","","null","","<p style=""color:#054d00;""><b>Correct!</b></p>","","null","","","","","","","","","","","","","","","","","","","","","","","","","","","","","","","",""
"audio-keyboard-response","69","402624","0.0-4.0-1.0-0.16","1","0","ry4zfnv7vc47y6d","","null","","sounds/induction/left_rev/re_SWS.wav","","null","","","","","","","","","","","","","","","","","","","","","","","","","","","","","","","",""
"html-button-response","70","403603","0.0-4.0-1.0-1.16","1","0","ry4zfnv7vc47y6d","","977.1999999880791","","Was the sound coming from the left or the right?","0","","","1","INDUCTION-JUDGMENT","left","0","","","","","","","","","","","","","","","","","","","","","","","","","","",""
"html-keyboard-response","71","404613","0.0-4.0-1.0-2.16","1","0","ry4zfnv7vc47y6d","","null","","<p style=""color:#054d00;""><b>Correct!</b></p>","","null","","","","","","","","","","","","","","","","","","","","","","","","","","","","","","","",""
"audio-keyboard-response","72","405433","0.0-4.0-1.0-0.17","1","0","ry4zfnv7vc47y6d","","null","","sounds/induction/right_rev/ta_SWS.wav","","null","","","","","","","","","","","","","","","","","","","","","","","","","","","","","","","",""
"html-button-response","73","406122","0.0-4.0-1.0-1.17","1","0","ry4zfnv7vc47y6d","","687.7000000476837","","Was the sound coming from the left or the right?","1","","","1","INDUCTION-JUDGMENT","right","1","","","","","","","","","","","","","","","","","","","","","","","","","","",""
"html-keyboard-response","74","407133","0.0-4.0-1.0-2.17","1","0","ry4zfnv7vc47y6d","","null","","<p style=""color:#054d00;""><b>Correct!</b></p>","","null","","","","","","","","","","","","","","","","","","","","","","","","","","","","","","","",""
"audio-keyboard-response","75","407953","0.0-4.0-1.0-0.18","1","0","ry4zfnv7vc47y6d","","null","","sounds/induction/left_rev/fe_SWS.wav","","null","","","","","","","","","","","","","","","","","","","","","","","","","","","","","","","",""
"html-button-response","76","408637","0.0-4.0-1.0-1.18","1","0","ry4zfnv7vc47y6d","","683.1999999880791","","Was the sound coming from the left or the right?","0","","","1","INDUCTION-JUDGMENT","left","0","","","","","","","","","","","","","","","","","","","","","","","","","","",""
"html-keyboard-response","77","409643","0.0-4.0-1.0-2.18","1","0","ry4zfnv7vc47y6d","","null","","<p style=""color:#054d00;""><b>Correct!</b></p>","","null","","","","","","","","","","","","","","","","","","","","","","","","","","","","","","","",""
"audio-keyboard-response","78","410443","0.0-4.0-1.0-0.19","1","0","ry4zfnv7vc47y6d","","null","","sounds/induction/left_rev/su_SWS.wav","","null","","","","","","","","","","","","","","","","","","","","","","","","","","","","","","","",""
"html-button-response","79","411846","0.0-4.0-1.0-1.19","1","0","ry4zfnv7vc47y6d","","1402.6000000238419","","Was the sound coming from the left or the right?","0","","","1","INDUCTION-JUDGMENT","left","0","","","","","","","","","","","","","","","","","","","","","","","","","","",""
"html-keyboard-response","80","412856","0.0-4.0-1.0-2.19","1","0","ry4zfnv7vc47y6d","","null","","<p style=""color:#054d00;""><b>Correct!</b></p>","","null","","","","","","","","","","","","","","","","","","","","","","","","","","","","","","","",""
"audio-keyboard-response","81","413673","0.0-4.0-1.0-0.20","1","0","ry4zfnv7vc47y6d","","null","","sounds/induction/right_rev/ko_SWS.wav","","null","","","","","","","","","","","","","","","","","","","","","","","","","","","","","","","",""
"html-button-response","82","414503","0.0-4.0-1.0-1.20","1","0","ry4zfnv7vc47y6d","","829.6999999880791","","Was the sound coming from the left or the right?","1","","","1","INDUCTION-JUDGMENT","right","1","","","","","","","","","","","","","","","","","","","","","","","","","","",""
"html-keyboard-response","83","415508","0.0-4.0-1.0-2.20","1","0","ry4zfnv7vc47y6d","","null","","<p style=""color:#054d00;""><b>Correct!</b></p>","","null","","","","","","","","","","","","","","","","","","","","","","","","","","","","","","","",""
"audio-keyboard-response","84","416314","0.0-4.0-1.0-0.21","1","0","ry4zfnv7vc47y6d","","null","","sounds/induction/left_rev/pu_SWS.wav","","null","","","","","","","","","","","","","","","","","","","","","","","","","","","","","","","",""
"html-button-response","85","417029","0.0-4.0-1.0-1.21","1","0","ry4zfnv7vc47y6d","","714.1999999880791","","Was the sound coming from the left or the right?","0","","","1","INDUCTION-JUDGMENT","left","0","","","","","","","","","","","","","","","","","","","","","","","","","","",""
"html-keyboard-response","86","418034","0.0-4.0-1.0-2.21","1","0","ry4zfnv7vc47y6d","","null","","<p style=""color:#054d00;""><b>Correct!</b></p>","","null","","","","","","","","","","","","","","","","","","","","","","","","","","","","","","","",""
"audio-keyboard-response","87","418843","0.0-4.0-1.0-0.22","1","0","ry4zfnv7vc47y6d","","null","","sounds/induction/right_rev/fe_SWS.wav","","null","","","","","","","","","","","","","","","","","","","","","","","","","","","","","","","",""
"html-button-response","88","419931","0.0-4.0-1.0-1.22","1","0","ry4zfnv7vc47y6d","","1087.1000000238419","","Was the sound coming from the left or the right?","1","","","1","INDUCTION-JUDGMENT","right","1","","","","","","","","","","","","","","","","","","","","","","","","","","",""
"html-keyboard-response","89","420946","0.0-4.0-1.0-2.22","1","0","ry4zfnv7vc47y6d","","null","","<p style=""color:#054d00;""><b>Correct!</b></p>","","null","","","","","","","","","","","","","","","","","","","","","","","","","","","","","","","",""
"audio-keyboard-response","90","421753","0.0-4.0-1.0-0.23","1","0","ry4zfnv7vc47y6d","","null","","sounds/induction/right_rev/ta_SWS.wav","","null","","","","","","","","","","","","","","","","","","","","","","","","","","","","","","","",""
"html-button-response","91","422261","0.0-4.0-1.0-1.23","1","0","ry4zfnv7vc47y6d","","507","","Was the sound coming from the left or the right?","1","","","1","INDUCTION-JUDGMENT","right","1","","","","","","","","","","","","","","","","","","","","","","","","","","",""
"html-keyboard-response","92","423267","0.0-4.0-1.0-2.23","1","0","ry4zfnv7vc47y6d","","null","","<p style=""color:#054d00;""><b>Correct!</b></p>","","null","","","","","","","","","","","","","","","","","","","","","","","","","","","","","","","",""
"audio-keyboard-response","93","424073","0.0-4.0-1.0-0.24","1","0","ry4zfnv7vc47y6d","","null","","sounds/induction/left_rev/fe_SWS.wav","","null","","","","","","","","","","","","","","","","","","","","","","","","","","","","","","","",""
"html-button-response","94","424649","0.0-4.0-1.0-1.24","1","0","ry4zfnv7vc47y6d","","575","","Was the sound coming from the left or the right?","0","","","1","INDUCTION-JUDGMENT","left","0","","","","","","","","","","","","","","","","","","","","","","","","","","",""
"html-keyboard-response","95","425657","0.0-4.0-1.0-2.24","1","0","ry4zfnv7vc47y6d","","null","","<p style=""color:#054d00;""><b>Correct!</b></p>","","null","","","","","","","","","","","","","","","","","","","","","","","","","","","","","","","",""
"audio-keyboard-response","96","426473","0.0-4.0-1.0-0.25","1","0","ry4zfnv7vc47y6d","","null","","sounds/induction/left_rev/ni_SWS.wav","","null","","","","","","","","","","","","","","","","","","","","","","","","","","","","","","","",""
"html-button-response","97","427664","0.0-4.0-1.0-1.25","1","0","ry4zfnv7vc47y6d","","1190.8999999761581","","Was the sound coming from the left or the right?","0","","","1","INDUCTION-JUDGMENT","left","0","","","","","","","","","","","","","","","","","","","","","","","","","","",""
"html-keyboard-response","98","428670","0.0-4.0-1.0-2.25","1","0","ry4zfnv7vc47y6d","","null","","<p style=""color:#054d00;""><b>Correct!</b></p>","","null","","","","","","","","","","","","","","","","","","","","","","","","","","","","","","","",""
"audio-keyboard-response","99","429473","0.0-4.0-1.0-0.26","1","0","ry4zfnv7vc47y6d","","null","","sounds/induction/left_rev/ko_SWS.wav","","null","","","","","","","","","","","","","","","","","","","","","","","","","","","","","","","",""
"html-button-response","100","430167","0.0-4.0-1.0-1.26","1","0","ry4zfnv7vc47y6d","","692.8999999761581","","Was the sound coming from the left or the right?","0","","","1","INDUCTION-JUDGMENT","left","0","","","","","","","","","","","","","","","","","","","","","","","","","","",""
"html-keyboard-response","101","431173","0.0-4.0-1.0-2.26","1","0","ry4zfnv7vc47y6d","","null","","<p style=""color:#054d00;""><b>Correct!</b></p>","","null","","","","","","","","","","","","","","","","","","","","","","","","","","","","","","","",""
"audio-keyboard-response","102","431993","0.0-4.0-1.0-0.27","1","0","ry4zfnv7vc47y6d","","null","","sounds/induction/right_rev/su_SWS.wav","","null","","","","","","","","","","","","","","","","","","","","","","","","","","","","","","","",""
"html-button-response","103","432729","0.0-4.0-1.0-1.27","1","0","ry4zfnv7vc47y6d","","734.6000000238419","","Was the sound coming from the left or the right?","1","","","1","INDUCTION-JUDGMENT","right","1","","","","","","","","","","","","","","","","","","","","","","","","","","",""
"html-keyboard-response","104","433744","0.0-4.0-1.0-2.27","1","0","ry4zfnv7vc47y6d","","null","","<p style=""color:#054d00;""><b>Correct!</b></p>","","null","","","","","","","","","","","","","","","","","","","","","","","","","","","","","","","",""
"audio-keyboard-response","105","434553","0.0-4.0-1.0-0.28","1","0","ry4zfnv7vc47y6d","","null","","sounds/induction/left_rev/ko_SWS.wav","","null","","","","","","","","","","","","","","","","","","","","","","","","","","","","","","","",""
"html-button-response","106","435929","0.0-4.0-1.0-1.28","1","0","ry4zfnv7vc47y6d","","1375.4000000357628","","Was the sound coming from the left or the right?","0","","","1","INDUCTION-JUDGMENT","left","0","","","","","","","","","","","","","","","","","","","","","","","","","","",""
"html-keyboard-response","107","436943","0.0-4.0-1.0-2.28","1","0","ry4zfnv7vc47y6d","","null","","<p style=""color:#054d00;""><b>Correct!</b></p>","","null","","","","","","","","","","","","","","","","","","","","","","","","","","","","","","","",""
"audio-keyboard-response","108","437753","0.0-4.0-1.0-0.29","1","0","ry4zfnv7vc47y6d","","null","","sounds/induction/left_rev/ti_SWS.wav","","null","","","","","","","","","","","","","","","","","","","","","","","","","","","","","","","",""
"html-button-response","109","438643","0.0-4.0-1.0-1.29","1","0","ry4zfnv7vc47y6d","","888.8999999761581","","Was the sound coming from the left or the right?","0","","","1","INDUCTION-JUDGMENT","left","0","","","","","","","","","","","","","","","","","","","","","","","","","","",""
"html-keyboard-response","110","439652","0.0-4.0-1.0-2.29","1","0","ry4zfnv7vc47y6d","","null","","<p style=""color:#054d00;""><b>Correct!</b></p>","","null","","","","","","","","","","","","","","","","","","","","","","","","","","","","","","","",""
"audio-keyboard-response","111","440473","0.0-4.0-1.0-0.30","1","0","ry4zfnv7vc47y6d","","null","","sounds/induction/left_rev/pu_SWS.wav","","null","","","","","","","","","","","","","","","","","","","","","","","","","","","","","","","",""
"html-button-response","112","441078","0.0-4.0-1.0-1.30","1","0","ry4zfnv7vc47y6d","","604.5","","Was the sound coming from the left or the right?","0","","","1","INDUCTION-JUDGMENT","left","0","","","","","","","","","","","","","","","","","","","","","","","","","","",""
"html-keyboard-response","113","442083","0.0-4.0-1.0-2.30","1","0","ry4zfnv7vc47y6d","","null","","<p style=""color:#054d00;""><b>Correct!</b></p>","","null","","","","","","","","","","","","","","","","","","","","","","","","","","","","","","","",""
"audio-keyboard-response","114","442903","0.0-4.0-1.0-0.31","1","0","ry4zfnv7vc47y6d","","null","","sounds/induction/right_rev/me_SWS.wav","","null","","","","","","","","","","","","","","","","","","","","","","","","","","","","","","","",""
"html-button-response","115","443589","0.0-4.0-1.0-1.31","1","0","ry4zfnv7vc47y6d","","684.7000000476837","","Was the sound coming from the left or the right?","1","","","1","INDUCTION-JUDGMENT","right","1","","","","","","","","","","","","","","","","","","","","","","","","","","",""
"html-keyboard-response","116","444600","0.0-4.0-1.0-2.31","1","0","ry4zfnv7vc47y6d","","null","","<p style=""color:#054d00;""><b>Correct!</b></p>","","null","","","","","","","","","","","","","","","","","","","","","","","","","","","","","","","",""
"audio-keyboard-response","117","445403","0.0-4.0-1.0-0.32","1","0","ry4zfnv7vc47y6d","","null","","sounds/induction/left_rev/ge_SWS.wav","","null","","","","","","","","","","","","","","","","","","","","","","","","","","","","","","","",""
"html-button-response","118","446097","0.0-4.0-1.0-1.32","1","0","ry4zfnv7vc47y6d","","693.1000000238419","","Was the sound coming from the left or the right?","0","","","1","INDUCTION-JUDGMENT","left","0","","","","","","","","","","","","","","","","","","","","","","","","","","",""
"html-keyboard-response","119","447113","0.0-4.0-1.0-2.32","1","0","ry4zfnv7vc47y6d","","null","","<p style=""color:#054d00;""><b>Correct!</b></p>","","null","","","","","","","","","","","","","","","","","","","","","","","","","","","","","","","",""
"audio-keyboard-response","120","447923","0.0-4.0-1.0-0.33","1","0","ry4zfnv7vc47y6d","","null","","sounds/induction/left_rev/su_SWS.wav","","null","","","","","","","","","","","","","","","","","","","","","","","","","","","","","","","",""
"html-button-response","121","449071","0.0-4.0-1.0-1.33","1","0","ry4zfnv7vc47y6d","","1146.9000000357628","","Was the sound coming from the left or the right?","0","","","1","INDUCTION-JUDGMENT","left","0","","","","","","","","","","","","","","","","","","","","","","","","","","",""
"html-keyboard-response","122","450083","0.0-4.0-1.0-2.33","1","0","ry4zfnv7vc47y6d","","null","","<p style=""color:#054d00;""><b>Correct!</b></p>","","null","","","","","","","","","","","","","","","","","","","","","","","","","","","","","","","",""
"audio-keyboard-response","123","450883","0.0-4.0-1.0-0.34","1","0","ry4zfnv7vc47y6d","","null","","sounds/induction/left_rev/ta_SWS.wav","","null","","","","","","","","","","","","","","","","","","","","","","","","","","","","","","","",""
"html-button-response","124","451629","0.0-4.0-1.0-1.34","1","0","ry4zfnv7vc47y6d","","744.5999999642372","","Was the sound coming from the left or the right?","0","","","1","INDUCTION-JUDGMENT","left","0","","","","","","","","","","","","","","","","","","","","","","","","","","",""
"html-keyboard-response","125","452643","0.0-4.0-1.0-2.34","1","0","ry4zfnv7vc47y6d","","null","","<p style=""color:#054d00;""><b>Correct!</b></p>","","null","","","","","","","","","","","","","","","","","","","","","","","","","","","","","","","",""
"audio-keyboard-response","126","453443","0.0-4.0-1.0-0.35","1","0","ry4zfnv7vc47y6d","","null","","sounds/induction/left_rev/me_SWS.wav","","null","","","","","","","","","","","","","","","","","","","","","","","","","","","","","","","",""
"html-button-response","127","453938","0.0-4.0-1.0-1.35","1","0","ry4zfnv7vc47y6d","","495.30000001192093","","Was the sound coming from the left or the right?","0","","","1","INDUCTION-JUDGMENT","left","0","","","","","","","","","","","","","","","","","","","","","","","","","","",""
"html-keyboard-response","128","454948","0.0-4.0-1.0-2.35","1","0","ry4zfnv7vc47y6d","","null","","<p style=""color:#054d00;""><b>Correct!</b></p>","","null","","","","","","","","","","","","","","","","","","","","","","","","","","","","","","","",""
"audio-keyboard-response","129","455753","0.0-4.0-1.0-0.36","1","0","ry4zfnv7vc47y6d","","null","","sounds/induction/right_rev/ni_SWS.wav","","null","","","","","","","","","","","","","","","","","","","","","","","","","","","","","","","",""
"html-button-response","130","456560","0.0-4.0-1.0-1.36","1","0","ry4zfnv7vc47y6d","","806.8999999761581","","Was the sound coming from the left or the right?","1","","","1","INDUCTION-JUDGMENT","right","1","","","","","","","","","","","","","","","","","","","","","","","","","","",""
"html-keyboard-response","131","457567","0.0-4.0-1.0-2.36","1","0","ry4zfnv7vc47y6d","","null","","<p style=""color:#054d00;""><b>Correct!</b></p>","","null","","","","","","","","","","","","","","","","","","","","","","","","","","","","","","","",""
"audio-keyboard-response","132","458383","0.0-4.0-1.0-0.37","1","0","ry4zfnv7vc47y6d","","null","","sounds/induction/right_rev/me_SWS.wav","","null","","","","","","","","","","","","","","","","","","","","","","","","","","","","","","","",""
"html-button-response","133","459143","0.0-4.0-1.0-1.37","1","0","ry4zfnv7vc47y6d","","759.1999999880791","","Was the sound coming from the left or the right?","1","","","1","INDUCTION-JUDGMENT","right","1","","","","","","","","","","","","","","","","","","","","","","","","","","",""
"html-keyboard-response","134","460157","0.0-4.0-1.0-2.37","1","0","ry4zfnv7vc47y6d","","null","","<p style=""color:#054d00;""><b>Correct!</b></p>","","null","","","","","","","","","","","","","","","","","","","","","","","","","","","","","","","",""
"audio-keyboard-response","135","460963","0.0-4.0-1.0-0.38","1","0","ry4zfnv7vc47y6d","","null","","sounds/induction/right_rev/re_SWS.wav","","null","","","","","","","","","","","","","","","","","","","","","","","","","","","","","","","",""
"html-button-response","136","461453","0.0-4.0-1.0-1.38","1","0","ry4zfnv7vc47y6d","","488.60000002384186","","Was the sound coming from the left or the right?","1","","","1","INDUCTION-JUDGMENT","right","1","","","","","","","","","","","","","","","","","","","","","","","","","","",""
"html-keyboard-response","137","462458","0.0-4.0-1.0-2.38","1","0","ry4zfnv7vc47y6d","","null","","<p style=""color:#054d00;""><b>Correct!</b></p>","","null","","","","","","","","","","","","","","","","","","","","","","","","","","","","","","","",""
"audio-keyboard-response","138","463273","0.0-4.0-1.0-0.39","1","0","ry4zfnv7vc47y6d","","null","","sounds/induction/right_rev/ge_SWS.wav","","null","","","","","","","","","","","","","","","","","","","","","","","","","","","","","","","",""
"html-button-response","139","463691","0.0-4.0-1.0-1.39","1","0","ry4zfnv7vc47y6d","","417","","Was the sound coming from the left or the right?","1","","","1","INDUCTION-JUDGMENT","right","1","","","","","","","","","","","","","","","","","","","","","","","","","","",""
"html-keyboard-response","140","464702","0.0-4.0-1.0-2.39","1","0","ry4zfnv7vc47y6d","","null","","<p style=""color:#054d00;""><b>Correct!</b></p>","","null","","","","","","","","","","","","","","","","","","","","","","","","","","","","","","","",""
"audio-keyboard-response","141","465513","0.0-4.0-1.0-0.40","1","0","ry4zfnv7vc47y6d","","null","","sounds/induction/left_rev/ta_SWS.wav","","null","","","","","","","","","","","","","","","","","","","","","","","","","","","","","","","",""
"html-button-response","142","466121","0.0-4.0-1.0-1.40","1","0","ry4zfnv7vc47y6d","","607.2999999523163","","Was the sound coming from the left or the right?","0","","","1","INDUCTION-JUDGMENT","left","0","","","","","","","","","","","","","","","","","","","","","","","","","","",""
"html-keyboard-response","143","467129","0.0-4.0-1.0-2.40","1","0","ry4zfnv7vc47y6d","","null","","<p style=""color:#054d00;""><b>Correct!</b></p>","","null","","","","","","","","","","","","","","","","","","","","","","","","","","","","","","","",""
"audio-keyboard-response","144","467953","0.0-4.0-1.0-0.41","1","0","ry4zfnv7vc47y6d","","null","","sounds/induction/right_rev/re_SWS.wav","","null","","","","","","","","","","","","","","","","","","","","","","","","","","","","","","","",""
"html-button-response","145","468602","0.0-4.0-1.0-1.41","1","0","ry4zfnv7vc47y6d","","648.6999999880791","","Was the sound coming from the left or the right?","1","","","1","INDUCTION-JUDGMENT","right","1","","","","","","","","","","","","","","","","","","","","","","","","","","",""
"html-keyboard-response","146","469604","0.0-4.0-1.0-2.41","1","0","ry4zfnv7vc47y6d","","null","","<p style=""color:#054d00;""><b>Correct!</b></p>","","null","","","","","","","","","","","","","","","","","","","","","","","","","","","","","","","",""
"audio-keyboard-response","147","470423","0.0-4.0-1.0-0.42","1","0","ry4zfnv7vc47y6d","","null","","sounds/induction/left_rev/ti_SWS.wav","","null","","","","","","","","","","","","","","","","","","","","","","","","","","","","","","","",""
"html-button-response","148","471227","0.0-4.0-1.0-1.42","1","0","ry4zfnv7vc47y6d","","803.4000000357628","","Was the sound coming from the left or the right?","0","","","1","INDUCTION-JUDGMENT","left","0","","","","","","","","","","","","","","","","","","","","","","","","","","",""
"html-keyboard-response","149","472233","0.0-4.0-1.0-2.42","1","0","ry4zfnv7vc47y6d","","null","","<p style=""color:#054d00;""><b>Correct!</b></p>","","null","","","","","","","","","","","","","","","","","","","","","","","","","","","","","","","",""
"audio-keyboard-response","150","473043","0.0-4.0-1.0-0.43","1","0","ry4zfnv7vc47y6d","","null","","sounds/induction/right_rev/ni_SWS.wav","","null","","","","","","","","","","","","","","","","","","","","","","","","","","","","","","","",""
"html-button-response","151","475544","0.0-4.0-1.0-1.43","1","0","ry4zfnv7vc47y6d","","2500.5","","Was the sound coming from the left or the right?","1","","","1","INDUCTION-JUDGMENT","right","1","","","","","","","","","","","","","","","","","","","","","","","","","","",""
"html-keyboard-response","152","476560","0.0-4.0-1.0-2.43","1","0","ry4zfnv7vc47y6d","","null","","<p style=""color:#054d00;""><b>Correct!</b></p>","","null","","","","","","","","","","","","","","","","","","","","","","","","","","","","","","","",""
"audio-keyboard-response","153","477363","0.0-4.0-1.0-0.44","1","0","ry4zfnv7vc47y6d","","null","","sounds/induction/left_rev/fu_SWS.wav","","null","","","","","","","","","","","","","","","","","","","","","","","","","","","","","","","",""
"html-button-response","154","478060","0.0-4.0-1.0-1.44","1","0","ry4zfnv7vc47y6d","","696.3999999761581","","Was the sound coming from the left or the right?","0","","","1","INDUCTION-JUDGMENT","left","0","","","","","","","","","","","","","","","","","","","","","","","","","","",""
"html-keyboard-response","155","479073","0.0-4.0-1.0-2.44","1","0","ry4zfnv7vc47y6d","","null","","<p style=""color:#054d00;""><b>Correct!</b></p>","","null","","","","","","","","","","","","","","","","","","","","","","","","","","","","","","","",""
"audio-keyboard-response","156","479883","0.0-4.0-1.0-0.45","1","0","ry4zfnv7vc47y6d","","null","","sounds/induction/right_rev/ru_SWS.wav","","null","","","","","","","","","","","","","","","","","","","","","","","","","","","","","","","",""
"html-button-response","157","481236","0.0-4.0-1.0-1.45","1","0","ry4zfnv7vc47y6d","","1352.8999999761581","","Was the sound coming from the left or the right?","1","","","1","INDUCTION-JUDGMENT","right","1","","","","","","","","","","","","","","","","","","","","","","","","","","",""
"html-keyboard-response","158","482247","0.0-4.0-1.0-2.45","1","0","ry4zfnv7vc47y6d","","null","","<p style=""color:#054d00;""><b>Correct!</b></p>","","null","","","","","","","","","","","","","","","","","","","","","","","","","","","","","","","",""
"audio-keyboard-response","159","483063","0.0-4.0-1.0-0.46","1","0","ry4zfnv7vc47y6d","","null","","sounds/induction/right_rev/fu_SWS.wav","","null","","","","","","","","","","","","","","","","","","","","","","","","","","","","","","","",""
"html-button-response","160","484514","0.0-4.0-1.0-1.46","1","0","ry4zfnv7vc47y6d","","1450.9000000357628","","Was the sound coming from the left or the right?","1","","","1","INDUCTION-JUDGMENT","right","1","","","","","","","","","","","","","","","","","","","","","","","","","","",""
"html-keyboard-response","161","485519","0.0-4.0-1.0-2.46","1","0","ry4zfnv7vc47y6d","","null","","<p style=""color:#054d00;""><b>Correct!</b></p>","","null","","","","","","","","","","","","","","","","","","","","","","","","","","","","","","","",""
"audio-keyboard-response","162","486323","0.0-4.0-1.0-0.47","1","0","ry4zfnv7vc47y6d","","null","","sounds/induction/right_rev/su_SWS.wav","","null","","","","","","","","","","","","","","","","","","","","","","","","","","","","","","","",""
"html-button-response","163","487673","0.0-4.0-1.0-1.47","1","0","ry4zfnv7vc47y6d","","1349.0999999642372","","Was the sound coming from the left or the right?","1","","","1","INDUCTION-JUDGMENT","right","1","","","","","","","","","","","","","","","","","","","","","","","","","","",""
"html-keyboard-response","164","488675","0.0-4.0-1.0-2.47","1","0","ry4zfnv7vc47y6d","","null","","<p style=""color:#054d00;""><b>Correct!</b></p>","","null","","","","","","","","","","","","","","","","","","","","","","","","","","","","","","","",""
"html-button-response","165","496689","0.0-5.0-0.0","1","0","ry4zfnv7vc47y6d","","7499.200000047684","","<p>Thank you for your answers.</p><p>You will now listen to similar sounds. The main difference is that the sounds will be longer.</p><p>Just as before, you will be asked to judge whether the sound was coming from the left or the right.</p><p>There are 10 of these longer sounds in total.","0","","","","","","","","","","","","","","","","","","","","","","","","","","","","","","","","",""
"audio-keyboard-response","166","499463","0.0-5.0-1.0-0.0","1","0","ry4zfnv7vc47y6d","","null","","sounds/sentences/right_rev/14_08_cfSWS.wav","","null","","","","","","","","","","","","","","","","","","","","","","","","","","","","","","","",""
"html-button-response","167","500674","0.0-5.0-1.0-1.0","1","0","ry4zfnv7vc47y6d","","1210.8999999761581","","Was the sound coming from the left or the right?","1","","","1","INDUCTION-JUDGMENT","right","1","","","","","","","","","","","","","","","","","","","","","","","","","","",""
"html-keyboard-response","168","501689","0.0-5.0-1.0-2.0","1","0","ry4zfnv7vc47y6d","","null","","<p style=""color:#054d00;""><b>Correct!</b></p>","","null","","","","","","","","","","","","","","","","","","","","","","","","","","","","","","","",""
"html-button-response","169","503431","0.0-5.0-1.0-3.0","1","0","ry4zfnv7vc47y6d","","1240.1000000238419","","<p>Press the button below when you are ready to continue.</p>","0","","","","","","","","","","","","","","","","","","","","","","","","","","","","","","","","",""
"audio-keyboard-response","170","506163","0.0-5.0-1.0-0.1","1","0","ry4zfnv7vc47y6d","","null","","sounds/sentences/right_rev/14_09_cfSWS.wav","","null","","","","","","","","","","","","","","","","","","","","","","","","","","","","","","","",""
"html-button-response","171","508623","0.0-5.0-1.0-1.1","1","0","ry4zfnv7vc47y6d","","2459.199999988079","","Was the sound coming from the left or the right?","1","","","1","INDUCTION-JUDGMENT","right","1","","","","","","","","","","","","","","","","","","","","","","","","","","",""
"html-keyboard-response","172","509636","0.0-5.0-1.0-2.1","1","0","ry4zfnv7vc47y6d","","null","","<p style=""color:#054d00;""><b>Correct!</b></p>","","null","","","","","","","","","","","","","","","","","","","","","","","","","","","","","","","",""
"html-button-response","173","511059","0.0-5.0-1.0-3.1","1","0","ry4zfnv7vc47y6d","","915.5999999642372","","<p>Press the button below when you are ready to continue.</p>","0","","","","","","","","","","","","","","","","","","","","","","","","","","","","","","","","",""
"audio-keyboard-response","174","513623","0.0-5.0-1.0-0.2","1","0","ry4zfnv7vc47y6d","","null","","sounds/sentences/left_rev/14_04_cfSWS.wav","","null","","","","","","","","","","","","","","","","","","","","","","","","","","","","","","","",""
"html-button-response","175","514524","0.0-5.0-1.0-1.2","1","0","ry4zfnv7vc47y6d","","900.1999999880791","","Was the sound coming from the left or the right?","0","","","1","INDUCTION-JUDGMENT","left","0","","","","","","","","","","","","","","","","","","","","","","","","","","",""
"html-keyboard-response","176","515526","0.0-5.0-1.0-2.2","1","0","ry4zfnv7vc47y6d","","null","","<p style=""color:#054d00;""><b>Correct!</b></p>","","null","","","","","","","","","","","","","","","","","","","","","","","","","","","","","","","",""
"html-button-response","177","516919","0.0-5.0-1.0-3.2","1","0","ry4zfnv7vc47y6d","","881.8999999761581","","<p>Press the button below when you are ready to continue.</p>","0","","","","","","","","","","","","","","","","","","","","","","","","","","","","","","","","",""
"audio-keyboard-response","178","519943","0.0-5.0-1.0-0.3","1","0","ry4zfnv7vc47y6d","","null","","sounds/sentences/right_rev/14_10_cfSWS.wav","","null","","","","","","","","","","","","","","","","","","","","","","","","","","","","","","","",""
"html-button-response","179","521357","0.0-5.0-1.0-1.3","1","0","ry4zfnv7vc47y6d","","1413","","Was the sound coming from the left or the right?","1","","","1","INDUCTION-JUDGMENT","right","1","","","","","","","","","","","","","","","","","","","","","","","","","","",""
"html-keyboard-response","180","522370","0.0-5.0-1.0-2.3","1","0","ry4zfnv7vc47y6d","","null","","<p style=""color:#054d00;""><b>Correct!</b></p>","","null","","","","","","","","","","","","","","","","","","","","","","","","","","","","","","","",""
"html-button-response","181","523731","0.0-5.0-1.0-3.3","1","0","ry4zfnv7vc47y6d","","851.5","","<p>Press the button below when you are ready to continue.</p>","0","","","","","","","","","","","","","","","","","","","","","","","","","","","","","","","","",""
"audio-keyboard-response","182","526633","0.0-5.0-1.0-0.4","1","0","ry4zfnv7vc47y6d","","null","","sounds/sentences/right_rev/14_07_cfSWS.wav","","null","","","","","","","","","","","","","","","","","","","","","","","","","","","","","","","",""
"html-button-response","183","527864","0.0-5.0-1.0-1.4","1","0","ry4zfnv7vc47y6d","","1230.4000000357628","","Was the sound coming from the left or the right?","1","","","1","INDUCTION-JUDGMENT","right","1","","","","","","","","","","","","","","","","","","","","","","","","","","",""
"html-keyboard-response","184","528877","0.0-5.0-1.0-2.4","1","0","ry4zfnv7vc47y6d","","null","","<p style=""color:#054d00;""><b>Correct!</b></p>","","null","","","","","","","","","","","","","","","","","","","","","","","","","","","","","","","",""
"html-button-response","185","530117","0.0-5.0-1.0-3.4","1","0","ry4zfnv7vc47y6d","","732.8999999761581","","<p>Press the button below when you are ready to continue.</p>","0","","","","","","","","","","","","","","","","","","","","","","","","","","","","","","","","",""
"audio-keyboard-response","186","532873","0.0-5.0-1.0-0.5","1","0","ry4zfnv7vc47y6d","","null","","sounds/sentences/right_rev/14_06_cfSWS.wav","","null","","","","","","","","","","","","","","","","","","","","","","","","","","","","","","","",""
"html-button-response","187","534253","0.0-5.0-1.0-1.5","1","0","ry4zfnv7vc47y6d","","1378.800000011921","","Was the sound coming from the left or the right?","1","","","1","INDUCTION-JUDGMENT","right","1","","","","","","","","","","","","","","","","","","","","","","","","","","",""
"html-keyboard-response","188","535255","0.0-5.0-1.0-2.5","1","0","ry4zfnv7vc47y6d","","null","","<p style=""color:#054d00;""><b>Correct!</b></p>","","null","","","","","","","","","","","","","","","","","","","","","","","","","","","","","","","",""
"html-button-response","189","536437","0.0-5.0-1.0-3.5","1","0","ry4zfnv7vc47y6d","","671.1000000238419","","<p>Press the button below when you are ready to continue.</p>","0","","","","","","","","","","","","","","","","","","","","","","","","","","","","","","","","",""
"audio-keyboard-response","190","539552","0.0-5.0-1.0-0.6","1","0","ry4zfnv7vc47y6d","","null","","sounds/sentences/left_rev/14_01_cfSWS.wav","","null","","","","","","","","","","","","","","","","","","","","","","","","","","","","","","","",""
"html-button-response","191","540254","0.0-5.0-1.0-1.6","1","0","ry4zfnv7vc47y6d","","701.3000000119209","","Was the sound coming from the left or the right?","0","","","1","INDUCTION-JUDGMENT","left","0","","","","","","","","","","","","","","","","","","","","","","","","","","",""
"html-keyboard-response","192","541261","0.0-5.0-1.0-2.6","1","0","ry4zfnv7vc47y6d","","null","","<p style=""color:#054d00;""><b>Correct!</b></p>","","null","","","","","","","","","","","","","","","","","","","","","","","","","","","","","","","",""
"html-button-response","193","542661","0.0-5.0-1.0-3.6","1","0","ry4zfnv7vc47y6d","","890.7000000476837","","<p>Press the button below when you are ready to continue.</p>","0","","","","","","","","","","","","","","","","","","","","","","","","","","","","","","","","",""
"audio-keyboard-response","194","545663","0.0-5.0-1.0-0.7","1","0","ry4zfnv7vc47y6d","","null","","sounds/sentences/left_rev/14_05_cfSWS.wav","","null","","","","","","","","","","","","","","","","","","","","","","","","","","","","","","","",""
"html-button-response","195","546421","0.0-5.0-1.0-1.7","1","0","ry4zfnv7vc47y6d","","755.8999999761581","","Was the sound coming from the left or the right?","0","","","1","INDUCTION-JUDGMENT","left","0","","","","","","","","","","","","","","","","","","","","","","","","","","",""
"html-keyboard-response","196","547430","0.0-5.0-1.0-2.7","1","0","ry4zfnv7vc47y6d","","null","","<p style=""color:#054d00;""><b>Correct!</b></p>","","null","","","","","","","","","","","","","","","","","","","","","","","","","","","","","","","",""
"html-button-response","197","549015","0.0-5.0-1.0-3.7","1","0","ry4zfnv7vc47y6d","","1072.2000000476837","","<p>Press the button below when you are ready to continue.</p>","0","","","","","","","","","","","","","","","","","","","","","","","","","","","","","","","","",""
"audio-keyboard-response","198","551833","0.0-5.0-1.0-0.8","1","0","ry4zfnv7vc47y6d","","null","","sounds/sentences/left_rev/14_02_cfSWS.wav","","null","","","","","","","","","","","","","","","","","","","","","","","","","","","","","","","",""
"html-button-response","199","553129","0.0-5.0-1.0-1.8","1","0","ry4zfnv7vc47y6d","","1294.6000000238419","","Was the sound coming from the left or the right?","0","","","1","INDUCTION-JUDGMENT","left","0","","","","","","","","","","","","","","","","","","","","","","","","","","",""
"html-keyboard-response","200","554142","0.0-5.0-1.0-2.8","1","0","ry4zfnv7vc47y6d","","null","","<p style=""color:#054d00;""><b>Correct!</b></p>","","null","","","","","","","","","","","","","","","","","","","","","","","","","","","","","","","",""
"html-button-response","201","555411","0.0-5.0-1.0-3.8","1","0","ry4zfnv7vc47y6d","","757.5","","<p>Press the button below when you are ready to continue.</p>","0","","","","","","","","","","","","","","","","","","","","","","","","","","","","","","","","",""
"audio-keyboard-response","202","558014","0.0-5.0-1.0-0.9","1","0","ry4zfnv7vc47y6d","","null","","sounds/sentences/left_rev/14_03_cfSWS.wav","","null","","","","","","","","","","","","","","","","","","","","","","","","","","","","","","","",""
"html-button-response","203","558973","0.0-5.0-1.0-1.9","1","0","ry4zfnv7vc47y6d","","958.6000000238419","","Was the sound coming from the left or the right?","0","","","1","INDUCTION-JUDGMENT","left","0","","","","","","","","","","","","","","","","","","","","","","","","","","",""
"html-keyboard-response","204","559977","0.0-5.0-1.0-2.9","1","0","ry4zfnv7vc47y6d","","null","","<p style=""color:#054d00;""><b>Correct!</b></p>","","null","","","","","","","","","","","","","","","","","","","","","","","","","","","","","","","",""
"html-button-response","205","561369","0.0-5.0-1.0-3.9","1","0","ry4zfnv7vc47y6d","","881.8999999761581","","<p>Press the button below when you are ready to continue.</p>","0","","","","","","","","","","","","","","","","","","","","","","","","","","","","","","","","",""
"html-keyboard-response","206","580889","0.0-6.0-0.0","1","0","ry4zfnv7vc47y6d","","19004.600000023842","","<p>In this part of the study, you will hear sounds similar to those you just heard.</p><p>Please focus on these sounds, as you may be asked questions about them later.</p><p>Occasionally, the sounds will pause for up to two seconds. When this happens, please press SPACEBAR as quickly as you can.</br>This helps ensure that you are paying attention to the sounds.</p><p>This part of the study will take about 12 minutes to complete, and you will be given the opportunity to take a couple of short breaks every few minutes.</p><p><strong>Press SPACEBAR to begin</strong></p>","","32","","","","","","","","","","","","","","","","","","","","","","","","","","","","","","","",""
"html-keyboard-response","207","581901","0.0-6.0-1.0-0.0","1","0","ry4zfnv7vc47y6d","","null","","<p style=""font-size: 40px;"">+</p>","","null","","","","","","","","","","","","","","","","","","","","","","","","","","","","","","","",""
"html-keyboard-response","208","766902","0.0-6.0-1.0-1.0","1","0","ry4zfnv7vc47y6d","","null","","","","null","","","SL-TRAIN","","","0","1218","1897.300000011921","sounds/A/TRAIN/SEQ__02.mp3","2","","","","","","","","","","","","","","","","","","","","","",""
"html-button-response","209","769750","0.0-6.0-1.0-2.0","1","0","ry4zfnv7vc47y6d","","2846.5","","<p>You may take a short break if you wish.</p>","0","","","","","","","","","","","","","","","","","","","","","","","","","","","","","","","","",""
"html-keyboard-response","210","770752","0.0-6.0-1.0-3.0","1","0","ry4zfnv7vc47y6d","","null","","<p style=""font-size: 40px;"">+</p>","","null","","","","","","","","","","","","","","","","","","","","","","","","","","","","","","","",""
"html-keyboard-response","211","955754","0.0-6.0-1.0-4.0","1","0","ry4zfnv7vc47y6d","","null","","","","null","","","SL-TRAIN","","","0","1660.199999988079","1671.699999988079","sounds/A/TRAIN/SEQ__04.mp3","4","","","","","","","","","","","","","","","","","","","","","",""
"html-button-response","212","970422","0.0-6.0-1.0-5.0","1","0","ry4zfnv7vc47y6d","","14666.900000035763","","<p>You may take a short break if you wish.</p>","0","","","","","","","","","","","","","","","","","","","","","","","","","","","","","","","","",""
"html-keyboard-response","213","971423","0.0-6.0-1.0-6.0","1","0","ry4zfnv7vc47y6d","","null","","<p style=""font-size: 40px;"">+</p>","","null","","","","","","","","","","","","","","","","","","","","","","","","","","","","","","","",""
"html-keyboard-response","214","1156425","0.0-6.0-1.0-7.0","1","0","ry4zfnv7vc47y6d","","null","","","","null","","","SL-TRAIN","","","0","1233.199999988079","1172","sounds/A/TRAIN/SEQ__03.mp3","6","","","","","","","","","","","","","","","","","","","","","",""
"html-button-response","215","1161075","0.0-6.0-1.0-8.0","1","0","ry4zfnv7vc47y6d","","4648.799999952316","","<p>You may take a short break if you wish.</p>","0","","","","","","","","","","","","","","","","","","","","","","","","","","","","","","","","",""
"html-keyboard-response","216","1162077","0.0-6.0-1.0-9.0","1","0","ry4zfnv7vc47y6d","","null","","<p style=""font-size: 40px;"">+</p>","","null","","","","","","","","","","","","","","","","","","","","","","","","","","","","","","","",""
"html-keyboard-response","217","1347079","0.0-6.0-1.0-10.0","1","0","ry4zfnv7vc47y6d","","null","","","","null","","","SL-TRAIN","","","0","1662.699999988079","1246.1000000238419","sounds/A/TRAIN/SEQ__07.mp3","8","","","","","","","","","","","","","","","","","","","","","",""
"html-button-response","218","1352490","0.0-6.0-1.0-11.0","1","0","ry4zfnv7vc47y6d","","5410.599999964237","","<p>You may take a short break if you wish.</p>","0","","","","","","","","","","","","","","","","","","","","","","","","","","","","","","","","",""
"html-button-response","219","1360991","0.0-7.0-0.0","1","0","ry4zfnv7vc47y6d","","8499.900000035763","","<p>Welcome to the second part of the study. This is a <u>familiarity task</u>.</p><p>You will now hear short sounds and will be asked to rate how familiar they sound to you <b>based on what you heard in the previous part of the study</b>.</p><p>You will rate 12 sounds in total.</p>","0","","","","","","","","","","","","","","","","","","","","","","","","","","","","","","","","",""
"html-keyboard-response","220","1361993","0.0-7.0-1.0-0.0","1","0","ry4zfnv7vc47y6d","","null","","","","null","","","","","","","","","","","","","","","","","","","","","","","","","","","","","","","",""
"audio-keyboard-response","221","1362976","0.0-7.0-1.0-1.0","1","0","ry4zfnv7vc47y6d","","null","","sounds/A/FAM/N004.mp3","","null","","","","","","","","","","","","","","","","","","","","","","","","","","","","","","","",""
"html-keyboard-response","222","1369445","0.0-7.0-1.0-2.0","1","0","ry4zfnv7vc47y6d","","5966.899999976158","","<p>How familiar did this sound to you?</p><p>1&nbsp;&nbsp;&nbsp;&nbsp;&nbsp;&nbsp;&nbsp;&nbsp;&nbsp;&nbsp;&nbsp;&nbsp;&nbsp;&nbsp;&nbsp;&nbsp;&nbsp;&nbsp;&nbsp;2&nbsp;&nbsp;&nbsp;&nbsp;&nbsp;&nbsp;&nbsp;&nbsp;&nbsp;&nbsp;&nbsp;&nbsp;&nbsp;&nbsp;&nbsp;&nbsp;&nbsp;&nbsp;&nbsp;3&nbsp;&nbsp;&nbsp;&nbsp;&nbsp;&nbsp;&nbsp;&nbsp;&nbsp;&nbsp;&nbsp;&nbsp;&nbsp;&nbsp;&nbsp;&nbsp;&nbsp;&nbsp;&nbsp;4</p><p style=""font-size:14px"">Not at all familiar&nbsp;&nbsp;&nbsp;&nbsp;A little familiar&nbsp;&nbsp;&nbsp;Moderately familiar&nbsp;&nbsp;&nbsp;Extremely familiar</p><p>(press the corresponding number on your keyboard)</p>","","50","","","FAM-RESPONSE","","","","","","","","sounds/A/FAM/N004.mp3","nonword","","","","","","","","","","","","","","","","","","","",""
"html-keyboard-response","223","1371446","0.0-7.0-1.0-0.1","1","0","ry4zfnv7vc47y6d","","null","","","","null","","","","","","","","","","","","","","","","","","","","","","","","","","","","","","","",""
"audio-keyboard-response","224","1372387","0.0-7.0-1.0-1.1","1","0","ry4zfnv7vc47y6d","","null","","sounds/A/FAM/P001.mp3","","null","","","","","","","","","","","","","","","","","","","","","","","","","","","","","","","",""
"html-keyboard-response","225","1378067","0.0-7.0-1.0-2.1","1","0","ry4zfnv7vc47y6d","","5172.199999988079","","<p>How familiar did this sound to you?</p><p>1&nbsp;&nbsp;&nbsp;&nbsp;&nbsp;&nbsp;&nbsp;&nbsp;&nbsp;&nbsp;&nbsp;&nbsp;&nbsp;&nbsp;&nbsp;&nbsp;&nbsp;&nbsp;&nbsp;2&nbsp;&nbsp;&nbsp;&nbsp;&nbsp;&nbsp;&nbsp;&nbsp;&nbsp;&nbsp;&nbsp;&nbsp;&nbsp;&nbsp;&nbsp;&nbsp;&nbsp;&nbsp;&nbsp;3&nbsp;&nbsp;&nbsp;&nbsp;&nbsp;&nbsp;&nbsp;&nbsp;&nbsp;&nbsp;&nbsp;&nbsp;&nbsp;&nbsp;&nbsp;&nbsp;&nbsp;&nbsp;&nbsp;4</p><p style=""font-size:14px"">Not at all familiar&nbsp;&nbsp;&nbsp;&nbsp;A little familiar&nbsp;&nbsp;&nbsp;Moderately familiar&nbsp;&nbsp;&nbsp;Extremely familiar</p><p>(press the corresponding number on your keyboard)</p>","","52","","","FAM-RESPONSE","","","","","","","","sounds/A/FAM/P001.mp3","partword","","","","","","","","","","","","","","","","","","","",""
"html-keyboard-response","226","1380071","0.0-7.0-1.0-0.2","1","0","ry4zfnv7vc47y6d","","null","","","","null","","","","","","","","","","","","","","","","","","","","","","","","","","","","","","","",""
"audio-keyboard-response","227","1381016","0.0-7.0-1.0-1.2","1","0","ry4zfnv7vc47y6d","","null","","sounds/A/FAM/P004.mp3","","null","","","","","","","","","","","","","","","","","","","","","","","","","","","","","","","",""
"html-keyboard-response","228","1382303","0.0-7.0-1.0-2.2","1","0","ry4zfnv7vc47y6d","","778.8999999761581","","<p>How familiar did this sound to you?</p><p>1&nbsp;&nbsp;&nbsp;&nbsp;&nbsp;&nbsp;&nbsp;&nbsp;&nbsp;&nbsp;&nbsp;&nbsp;&nbsp;&nbsp;&nbsp;&nbsp;&nbsp;&nbsp;&nbsp;2&nbsp;&nbsp;&nbsp;&nbsp;&nbsp;&nbsp;&nbsp;&nbsp;&nbsp;&nbsp;&nbsp;&nbsp;&nbsp;&nbsp;&nbsp;&nbsp;&nbsp;&nbsp;&nbsp;3&nbsp;&nbsp;&nbsp;&nbsp;&nbsp;&nbsp;&nbsp;&nbsp;&nbsp;&nbsp;&nbsp;&nbsp;&nbsp;&nbsp;&nbsp;&nbsp;&nbsp;&nbsp;&nbsp;4</p><p style=""font-size:14px"">Not at all familiar&nbsp;&nbsp;&nbsp;&nbsp;A little familiar&nbsp;&nbsp;&nbsp;Moderately familiar&nbsp;&nbsp;&nbsp;Extremely familiar</p><p>(press the corresponding number on your keyboard)</p>","","52","","","FAM-RESPONSE","","","","","","","","sounds/A/FAM/P004.mp3","partword","","","","","","","","","","","","","","","","","","","",""
"html-keyboard-response","229","1384317","0.0-7.0-1.0-0.3","1","0","ry4zfnv7vc47y6d","","null","","","","null","","","","","","","","","","","","","","","","","","","","","","","","","","","","","","","",""
"audio-keyboard-response","230","1385267","0.0-7.0-1.0-1.3","1","0","ry4zfnv7vc47y6d","","null","","sounds/A/FAM/W001.mp3","","null","","","","","","","","","","","","","","","","","","","","","","","","","","","","","","","",""
"html-keyboard-response","231","1387424","0.0-7.0-1.0-2.3","1","0","ry4zfnv7vc47y6d","","1653.800000011921","","<p>How familiar did this sound to you?</p><p>1&nbsp;&nbsp;&nbsp;&nbsp;&nbsp;&nbsp;&nbsp;&nbsp;&nbsp;&nbsp;&nbsp;&nbsp;&nbsp;&nbsp;&nbsp;&nbsp;&nbsp;&nbsp;&nbsp;2&nbsp;&nbsp;&nbsp;&nbsp;&nbsp;&nbsp;&nbsp;&nbsp;&nbsp;&nbsp;&nbsp;&nbsp;&nbsp;&nbsp;&nbsp;&nbsp;&nbsp;&nbsp;&nbsp;3&nbsp;&nbsp;&nbsp;&nbsp;&nbsp;&nbsp;&nbsp;&nbsp;&nbsp;&nbsp;&nbsp;&nbsp;&nbsp;&nbsp;&nbsp;&nbsp;&nbsp;&nbsp;&nbsp;4</p><p style=""font-size:14px"">Not at all familiar&nbsp;&nbsp;&nbsp;&nbsp;A little familiar&nbsp;&nbsp;&nbsp;Moderately familiar&nbsp;&nbsp;&nbsp;Extremely familiar</p><p>(press the corresponding number on your keyboard)</p>","","52","","","FAM-RESPONSE","","","","","","","","sounds/A/FAM/W001.mp3","word","","","","","","","","","","","","","","","","","","","",""
"html-keyboard-response","232","1389431","0.0-7.0-1.0-0.4","1","0","ry4zfnv7vc47y6d","","null","","","","null","","","","","","","","","","","","","","","","","","","","","","","","","","","","","","","",""
"audio-keyboard-response","233","1390377","0.0-7.0-1.0-1.4","1","0","ry4zfnv7vc47y6d","","null","","sounds/A/FAM/P002.mp3","","null","","","","","","","","","","","","","","","","","","","","","","","","","","","","","","","",""
"html-keyboard-response","234","1391795","0.0-7.0-1.0-2.4","1","0","ry4zfnv7vc47y6d","","908.8000000119209","","<p>How familiar did this sound to you?</p><p>1&nbsp;&nbsp;&nbsp;&nbsp;&nbsp;&nbsp;&nbsp;&nbsp;&nbsp;&nbsp;&nbsp;&nbsp;&nbsp;&nbsp;&nbsp;&nbsp;&nbsp;&nbsp;&nbsp;2&nbsp;&nbsp;&nbsp;&nbsp;&nbsp;&nbsp;&nbsp;&nbsp;&nbsp;&nbsp;&nbsp;&nbsp;&nbsp;&nbsp;&nbsp;&nbsp;&nbsp;&nbsp;&nbsp;3&nbsp;&nbsp;&nbsp;&nbsp;&nbsp;&nbsp;&nbsp;&nbsp;&nbsp;&nbsp;&nbsp;&nbsp;&nbsp;&nbsp;&nbsp;&nbsp;&nbsp;&nbsp;&nbsp;4</p><p style=""font-size:14px"">Not at all familiar&nbsp;&nbsp;&nbsp;&nbsp;A little familiar&nbsp;&nbsp;&nbsp;Moderately familiar&nbsp;&nbsp;&nbsp;Extremely familiar</p><p>(press the corresponding number on your keyboard)</p>","","52","","","FAM-RESPONSE","","","","","","","","sounds/A/FAM/P002.mp3","partword","","","","","","","","","","","","","","","","","","","",""
"html-keyboard-response","235","1393820","0.0-7.0-1.0-0.5","1","0","ry4zfnv7vc47y6d","","null","","","","null","","","","","","","","","","","","","","","","","","","","","","","","","","","","","","","",""
"audio-keyboard-response","236","1394757","0.0-7.0-1.0-1.5","1","0","ry4zfnv7vc47y6d","","null","","sounds/A/FAM/W003.mp3","","null","","","","","","","","","","","","","","","","","","","","","","","","","","","","","","","",""
"html-keyboard-response","237","1396269","0.0-7.0-1.0-2.5","1","0","ry4zfnv7vc47y6d","","1003.2999999523163","","<p>How familiar did this sound to you?</p><p>1&nbsp;&nbsp;&nbsp;&nbsp;&nbsp;&nbsp;&nbsp;&nbsp;&nbsp;&nbsp;&nbsp;&nbsp;&nbsp;&nbsp;&nbsp;&nbsp;&nbsp;&nbsp;&nbsp;2&nbsp;&nbsp;&nbsp;&nbsp;&nbsp;&nbsp;&nbsp;&nbsp;&nbsp;&nbsp;&nbsp;&nbsp;&nbsp;&nbsp;&nbsp;&nbsp;&nbsp;&nbsp;&nbsp;3&nbsp;&nbsp;&nbsp;&nbsp;&nbsp;&nbsp;&nbsp;&nbsp;&nbsp;&nbsp;&nbsp;&nbsp;&nbsp;&nbsp;&nbsp;&nbsp;&nbsp;&nbsp;&nbsp;4</p><p style=""font-size:14px"">Not at all familiar&nbsp;&nbsp;&nbsp;&nbsp;A little familiar&nbsp;&nbsp;&nbsp;Moderately familiar&nbsp;&nbsp;&nbsp;Extremely familiar</p><p>(press the corresponding number on your keyboard)</p>","","51","","","FAM-RESPONSE","","","","","","","","sounds/A/FAM/W003.mp3","word","","","","","","","","","","","","","","","","","","","",""
"html-keyboard-response","238","1398278","0.0-7.0-1.0-0.6","1","0","ry4zfnv7vc47y6d","","null","","","","null","","","","","","","","","","","","","","","","","","","","","","","","","","","","","","","",""
"audio-keyboard-response","239","1399227","0.0-7.0-1.0-1.6","1","0","ry4zfnv7vc47y6d","","null","","sounds/A/FAM/W002.mp3","","null","","","","","","","","","","","","","","","","","","","","","","","","","","","","","","","",""
"html-keyboard-response","240","1400308","0.0-7.0-1.0-2.6","1","0","ry4zfnv7vc47y6d","","568.7000000476837","","<p>How familiar did this sound to you?</p><p>1&nbsp;&nbsp;&nbsp;&nbsp;&nbsp;&nbsp;&nbsp;&nbsp;&nbsp;&nbsp;&nbsp;&nbsp;&nbsp;&nbsp;&nbsp;&nbsp;&nbsp;&nbsp;&nbsp;2&nbsp;&nbsp;&nbsp;&nbsp;&nbsp;&nbsp;&nbsp;&nbsp;&nbsp;&nbsp;&nbsp;&nbsp;&nbsp;&nbsp;&nbsp;&nbsp;&nbsp;&nbsp;&nbsp;3&nbsp;&nbsp;&nbsp;&nbsp;&nbsp;&nbsp;&nbsp;&nbsp;&nbsp;&nbsp;&nbsp;&nbsp;&nbsp;&nbsp;&nbsp;&nbsp;&nbsp;&nbsp;&nbsp;4</p><p style=""font-size:14px"">Not at all familiar&nbsp;&nbsp;&nbsp;&nbsp;A little familiar&nbsp;&nbsp;&nbsp;Moderately familiar&nbsp;&nbsp;&nbsp;Extremely familiar</p><p>(press the corresponding number on your keyboard)</p>","","51","","","FAM-RESPONSE","","","","","","","","sounds/A/FAM/W002.mp3","word","","","","","","","","","","","","","","","","","","","",""
"html-keyboard-response","241","1402329","0.0-7.0-1.0-0.7","1","0","ry4zfnv7vc47y6d","","null","","","","null","","","","","","","","","","","","","","","","","","","","","","","","","","","","","","","",""
"audio-keyboard-response","242","1403267","0.0-7.0-1.0-1.7","1","0","ry4zfnv7vc47y6d","","null","","sounds/A/FAM/P003.mp3","","null","","","","","","","","","","","","","","","","","","","","","","","","","","","","","","","",""
"html-keyboard-response","243","1404316","0.0-7.0-1.0-2.7","1","0","ry4zfnv7vc47y6d","","544.6999999880791","","<p>How familiar did this sound to you?</p><p>1&nbsp;&nbsp;&nbsp;&nbsp;&nbsp;&nbsp;&nbsp;&nbsp;&nbsp;&nbsp;&nbsp;&nbsp;&nbsp;&nbsp;&nbsp;&nbsp;&nbsp;&nbsp;&nbsp;2&nbsp;&nbsp;&nbsp;&nbsp;&nbsp;&nbsp;&nbsp;&nbsp;&nbsp;&nbsp;&nbsp;&nbsp;&nbsp;&nbsp;&nbsp;&nbsp;&nbsp;&nbsp;&nbsp;3&nbsp;&nbsp;&nbsp;&nbsp;&nbsp;&nbsp;&nbsp;&nbsp;&nbsp;&nbsp;&nbsp;&nbsp;&nbsp;&nbsp;&nbsp;&nbsp;&nbsp;&nbsp;&nbsp;4</p><p style=""font-size:14px"">Not at all familiar&nbsp;&nbsp;&nbsp;&nbsp;A little familiar&nbsp;&nbsp;&nbsp;Moderately familiar&nbsp;&nbsp;&nbsp;Extremely familiar</p><p>(press the corresponding number on your keyboard)</p>","","50","","","FAM-RESPONSE","","","","","","","","sounds/A/FAM/P003.mp3","partword","","","","","","","","","","","","","","","","","","","",""
"html-keyboard-response","244","1406330","0.0-7.0-1.0-0.8","1","0","ry4zfnv7vc47y6d","","null","","","","null","","","","","","","","","","","","","","","","","","","","","","","","","","","","","","","",""
"audio-keyboard-response","245","1407267","0.0-7.0-1.0-1.8","1","0","ry4zfnv7vc47y6d","","null","","sounds/A/FAM/N003.mp3","","null","","","","","","","","","","","","","","","","","","","","","","","","","","","","","","","",""
"html-keyboard-response","246","1408393","0.0-7.0-1.0-2.8","1","0","ry4zfnv7vc47y6d","","609.8000000119209","","<p>How familiar did this sound to you?</p><p>1&nbsp;&nbsp;&nbsp;&nbsp;&nbsp;&nbsp;&nbsp;&nbsp;&nbsp;&nbsp;&nbsp;&nbsp;&nbsp;&nbsp;&nbsp;&nbsp;&nbsp;&nbsp;&nbsp;2&nbsp;&nbsp;&nbsp;&nbsp;&nbsp;&nbsp;&nbsp;&nbsp;&nbsp;&nbsp;&nbsp;&nbsp;&nbsp;&nbsp;&nbsp;&nbsp;&nbsp;&nbsp;&nbsp;3&nbsp;&nbsp;&nbsp;&nbsp;&nbsp;&nbsp;&nbsp;&nbsp;&nbsp;&nbsp;&nbsp;&nbsp;&nbsp;&nbsp;&nbsp;&nbsp;&nbsp;&nbsp;&nbsp;4</p><p style=""font-size:14px"">Not at all familiar&nbsp;&nbsp;&nbsp;&nbsp;A little familiar&nbsp;&nbsp;&nbsp;Moderately familiar&nbsp;&nbsp;&nbsp;Extremely familiar</p><p>(press the corresponding number on your keyboard)</p>","","50","","","FAM-RESPONSE","","","","","","","","sounds/A/FAM/N003.mp3","nonword","","","","","","","","","","","","","","","","","","","",""
"html-keyboard-response","247","1410404","0.0-7.0-1.0-0.9","1","0","ry4zfnv7vc47y6d","","null","","","","null","","","","","","","","","","","","","","","","","","","","","","","","","","","","","","","",""
"audio-keyboard-response","248","1411347","0.0-7.0-1.0-1.9","1","0","ry4zfnv7vc47y6d","","null","","sounds/A/FAM/W004.mp3","","null","","","","","","","","","","","","","","","","","","","","","","","","","","","","","","","",""
"html-keyboard-response","249","1412616","0.0-7.0-1.0-2.9","1","0","ry4zfnv7vc47y6d","","766.8000000119209","","<p>How familiar did this sound to you?</p><p>1&nbsp;&nbsp;&nbsp;&nbsp;&nbsp;&nbsp;&nbsp;&nbsp;&nbsp;&nbsp;&nbsp;&nbsp;&nbsp;&nbsp;&nbsp;&nbsp;&nbsp;&nbsp;&nbsp;2&nbsp;&nbsp;&nbsp;&nbsp;&nbsp;&nbsp;&nbsp;&nbsp;&nbsp;&nbsp;&nbsp;&nbsp;&nbsp;&nbsp;&nbsp;&nbsp;&nbsp;&nbsp;&nbsp;3&nbsp;&nbsp;&nbsp;&nbsp;&nbsp;&nbsp;&nbsp;&nbsp;&nbsp;&nbsp;&nbsp;&nbsp;&nbsp;&nbsp;&nbsp;&nbsp;&nbsp;&nbsp;&nbsp;4</p><p style=""font-size:14px"">Not at all familiar&nbsp;&nbsp;&nbsp;&nbsp;A little familiar&nbsp;&nbsp;&nbsp;Moderately familiar&nbsp;&nbsp;&nbsp;Extremely familiar</p><p>(press the corresponding number on your keyboard)</p>","","52","","","FAM-RESPONSE","","","","","","","","sounds/A/FAM/W004.mp3","word","","","","","","","","","","","","","","","","","","","",""
"html-keyboard-response","250","1414646","0.0-7.0-1.0-0.10","1","0","ry4zfnv7vc47y6d","","null","","","","null","","","","","","","","","","","","","","","","","","","","","","","","","","","","","","","",""
"audio-keyboard-response","251","1415586","0.0-7.0-1.0-1.10","1","0","ry4zfnv7vc47y6d","","null","","sounds/A/FAM/N001.mp3","","null","","","","","","","","","","","","","","","","","","","","","","","","","","","","","","","",""
"html-keyboard-response","252","1420434","0.0-7.0-1.0-2.10","1","0","ry4zfnv7vc47y6d","","4332.5","","<p>How familiar did this sound to you?</p><p>1&nbsp;&nbsp;&nbsp;&nbsp;&nbsp;&nbsp;&nbsp;&nbsp;&nbsp;&nbsp;&nbsp;&nbsp;&nbsp;&nbsp;&nbsp;&nbsp;&nbsp;&nbsp;&nbsp;2&nbsp;&nbsp;&nbsp;&nbsp;&nbsp;&nbsp;&nbsp;&nbsp;&nbsp;&nbsp;&nbsp;&nbsp;&nbsp;&nbsp;&nbsp;&nbsp;&nbsp;&nbsp;&nbsp;3&nbsp;&nbsp;&nbsp;&nbsp;&nbsp;&nbsp;&nbsp;&nbsp;&nbsp;&nbsp;&nbsp;&nbsp;&nbsp;&nbsp;&nbsp;&nbsp;&nbsp;&nbsp;&nbsp;4</p><p style=""font-size:14px"">Not at all familiar&nbsp;&nbsp;&nbsp;&nbsp;A little familiar&nbsp;&nbsp;&nbsp;Moderately familiar&nbsp;&nbsp;&nbsp;Extremely familiar</p><p>(press the corresponding number on your keyboard)</p>","","52","","","FAM-RESPONSE","","","","","","","","sounds/A/FAM/N001.mp3","nonword","","","","","","","","","","","","","","","","","","","",""
"html-keyboard-response","253","1422447","0.0-7.0-1.0-0.11","1","0","ry4zfnv7vc47y6d","","null","","","","null","","","","","","","","","","","","","","","","","","","","","","","","","","","","","","","",""
"audio-keyboard-response","254","1423387","0.0-7.0-1.0-1.11","1","0","ry4zfnv7vc47y6d","","null","","sounds/A/FAM/N002.mp3","","null","","","","","","","","","","","","","","","","","","","","","","","","","","","","","","","",""
"html-keyboard-response","255","1424031","0.0-7.0-1.0-2.11","1","0","ry4zfnv7vc47y6d","","128.89999997615814","","<p>How familiar did this sound to you?</p><p>1&nbsp;&nbsp;&nbsp;&nbsp;&nbsp;&nbsp;&nbsp;&nbsp;&nbsp;&nbsp;&nbsp;&nbsp;&nbsp;&nbsp;&nbsp;&nbsp;&nbsp;&nbsp;&nbsp;2&nbsp;&nbsp;&nbsp;&nbsp;&nbsp;&nbsp;&nbsp;&nbsp;&nbsp;&nbsp;&nbsp;&nbsp;&nbsp;&nbsp;&nbsp;&nbsp;&nbsp;&nbsp;&nbsp;3&nbsp;&nbsp;&nbsp;&nbsp;&nbsp;&nbsp;&nbsp;&nbsp;&nbsp;&nbsp;&nbsp;&nbsp;&nbsp;&nbsp;&nbsp;&nbsp;&nbsp;&nbsp;&nbsp;4</p><p style=""font-size:14px"">Not at all familiar&nbsp;&nbsp;&nbsp;&nbsp;A little familiar&nbsp;&nbsp;&nbsp;Moderately familiar&nbsp;&nbsp;&nbsp;Extremely familiar</p><p>(press the corresponding number on your keyboard)</p>","","52","","","FAM-RESPONSE","","","","","","","","sounds/A/FAM/N002.mp3","nonword","","","","","","","","","","","","","","","","","","","",""
"html-button-response","256","1440236","0.0-8.0-0.0","1","0","ry4zfnv7vc47y6d","","15203.199999988079","","<p>You will now listen to longer sound sequences.</p><p>Each sound sequence will last about 16 seconds.</p><p>On each trial, you will be given a <u>TARGET SOUND</u>. Your task is to listen very carefully for this sound.</p><p>Every time you hear the <u>TARGET SOUND</u>, you will press the <b>SPACEBAR</b> as quickly and accurately as you can.</p>","0","","","","","","","","","","","","","","","","","","","","","","","","","","","","","","","","",""
"html-button-response","257","1463006","0.0-8.0-1.0","1","0","ry4zfnv7vc47y6d","","22504.80000001192","","<p>It is very important that you make your responses as quickly and accurately as possible.</p><p>To help you make your responses, you will be able to listen to the <u>TARGET SOUND</u> at the beginning of each trial.</p><p>There will be 36 total trials.</p><p><b>Note: This is meant to be a difficult task. We simply want you to try your best.</p>","0","","","","","","","","","","","","","","","","","","","","","","","","","","","","","","","","",""
"html-button-response","258","1464322","0.0-8.0-2.0-0.0","1","0","ry4zfnv7vc47y6d","","1064.699999988079","","<p>Trial 1 of 36</p>","0","","","","","","","","","","","","","","RU","sounds/syllables/ru_SWS.wav","1800,5400,7200,9000","1","","","","","","","","","","","","","","","",""
"html-keyboard-response","259","1469480","0.0-8.0-2.0-1.0","1","0","ry4zfnv7vc47y6d","","5157.100000023842","","","","80","","","","","","","","","","","","","RU","","1800,5400,7200,9000","1","","","","","","","","","","","","","","","",""
"audio-keyboard-response","260","1470233","0.0-8.0-2.0-2.0-0.0","1","0","ry4zfnv7vc47y6d","","null","","sounds/syllables/ru_SWS.wav","","null","","","","","","","","","","","","","","","","","","","","","","","","","","","","","","","",""
"html-keyboard-response","261","1472911","0.0-8.0-2.0-2.0-1.0","1","0","ry4zfnv7vc47y6d","","2676.800000011921","","<p>To replay the <u>TARGET SOUND</u>, press P.</p> When you are ready to begin, press SPACEBAR.","","32","","","","","","","","","","","","","","","","","","","","","","","","","","","","","","","",""
"audio-keyboard-response","262","1487863","0.0-8.0-2.0-3.0","1","0","ry4zfnv7vc47y6d","","952","","sounds/A/TD/RU_03_TD.mp3","","32","","","TD_SUMMARY","","","","","","","","","","RU","","1800,5400,7200,9000","1","1800","5400","7200","9000","null","null","1106.2999999523163","656.8999999761581","949.5_3422.399999976158_7299.799999952316_7883.699999988079_8146.199999988079_8306.299999952316_8821.699999988079_8994.099999964237_9145.599999964237_9310.899999976158_9481.699999988079_9656.899999976158_13063.399999976158_13270.299999952316_13433.799999952316_13587.899999976158_13742_13939.199999988079","1","","","","","",""
"html-button-response","263","1492489","0.0-8.0-2.0-0.1","1","0","ry4zfnv7vc47y6d","","4623.800000011921","","<p>Trial 2 of 36</p>","0","","","","","","","","","","","","","","KO","sounds/syllables/ko_SWS.wav","2400,4200,6900,8700","3","","","","","","","","","","","","","","","",""
"html-keyboard-response","264","1494239","0.0-8.0-2.0-1.1","1","0","ry4zfnv7vc47y6d","","1748","","","","80","","","","","","","","","","","","","KO","","2400,4200,6900,8700","3","","","","","","","","","","","","","","","",""
"audio-keyboard-response","265","1494543","0.0-8.0-2.0-2.1-0.1","1","0","ry4zfnv7vc47y6d","","null","","sounds/syllables/ko_SWS.wav","","null","","","","","","","","","","","","","","","","","","","","","","","","","","","","","","","",""
"html-keyboard-response","266","1496497","0.0-8.0-2.0-2.1-1.1","1","0","ry4zfnv7vc47y6d","","1953.699999988079","","<p>To replay the <u>TARGET SOUND</u>, press P.</p> When you are ready to begin, press SPACEBAR.","","80","","","","","","","","","","","","","","","","","","","","","","","","","","","","","","","",""
"audio-keyboard-response","267","1497313","0.0-8.0-2.0-2.2-0.2","1","0","ry4zfnv7vc47y6d","","null","","sounds/syllables/ko_SWS.wav","","null","","","","","","","","","","","","","","","","","","","","","","","","","","","","","","","",""
"html-keyboard-response","268","1497982","0.0-8.0-2.0-2.2-1.2","1","0","ry4zfnv7vc47y6d","","668.0999999642372","","<p>To replay the <u>TARGET SOUND</u>, press P.</p> When you are ready to begin, press SPACEBAR.","","32","","","","","","","","","","","","","","","","","","","","","","","","","","","","","","","",""
"audio-keyboard-response","269","1512933","0.0-8.0-2.0-3.1","1","0","ry4zfnv7vc47y6d","","808","","sounds/A/TD/KO_08_TD.mp3","","32","","","TD_SUMMARY","","","","","","","","","","KO","","2400,4200,6900,8700","3","2400","4200","6900","8700","null","810.7999999523163","null","688.0999999642372","__________________810.1999999880791_4313.199999988079_4835.899999976158_5010.799999952316_9388.099999964237","2","","","","","",""
"html-button-response","270","1514254","0.0-8.0-2.0-0.2","1","0","ry4zfnv7vc47y6d","","1319.9000000357628","","<p>Trial 3 of 36</p>","0","","","","","","","","","","","","","","RE","sounds/syllables/re_SWS.wav","900,2700,4500,12600","1","","","","","","","","","","","","","","","",""
"html-keyboard-response","271","1517743","0.0-8.0-2.0-1.2","1","0","ry4zfnv7vc47y6d","","3488.300000011921","","","","80","","","","","","","","","","","","","RE","","900,2700,4500,12600","1","","","","","","","","","","","","","","","",""
"audio-keyboard-response","272","1518043","0.0-8.0-2.0-2.3-0.3","1","0","ry4zfnv7vc47y6d","","null","","sounds/syllables/re_SWS.wav","","null","","","","","","","","","","","","","","","","","","","","","","","","","","","","","","","",""
"html-keyboard-response","273","1518764","0.0-8.0-2.0-2.3-1.3","1","0","ry4zfnv7vc47y6d","","720.3999999761581","","<p>To replay the <u>TARGET SOUND</u>, press P.</p> When you are ready to begin, press SPACEBAR.","","80","","","","","","","","","","","","","","","","","","","","","","","","","","","","","","","",""
"audio-keyboard-response","274","1519583","0.0-8.0-2.0-2.4-0.4","1","0","ry4zfnv7vc47y6d","","null","","sounds/syllables/re_SWS.wav","","null","","","","","","","","","","","","","","","","","","","","","","","","","","","","","","","",""
"html-keyboard-response","275","1520579","0.0-8.0-2.0-2.4-1.4","1","0","ry4zfnv7vc47y6d","","994.9000000357628","","<p>To replay the <u>TARGET SOUND</u>, press P.</p> When you are ready to begin, press SPACEBAR.","","32","","","","","","","","","","","","","","","","","","","","","","","","","","","","","","","",""
"audio-keyboard-response","276","1535533","0.0-8.0-2.0-3.2","1","0","ry4zfnv7vc47y6d","","1368","","sounds/A/TD/RE_10_TD.mp3","","32","","","TD_SUMMARY","","","","","","","","","","RE","","900,2700,4500,12600","1","900","2700","4500","12600","467.30000001192093","517.5999999642372","1192.199999988079","1141.8999999761581","_______________________1367.300000011921_3217.599999964237_4990.699999988079_5515.199999988079_5692.199999988079_6680.099999964237_9674.800000011921_10345.300000011921_12114.399999976158_12303.199999988079_13741.899999976158_13902_14058.800000011921","2","","","","","",""
"html-button-response","277","1536546","0.0-8.0-2.0-0.3","1","0","ry4zfnv7vc47y6d","","1011.1000000238419","","<p>Trial 4 of 36</p>","0","","","","","","","","","","","","","","FU","sounds/syllables/fu_SWS.wav","5700,9300,11100,12900","2","","","","","","","","","","","","","","","",""
"html-keyboard-response","278","1538362","0.0-8.0-2.0-1.3","1","0","ry4zfnv7vc47y6d","","1815.5","","","","80","","","","","","","","","","","","","FU","","5700,9300,11100,12900","2","","","","","","","","","","","","","","","",""
"audio-keyboard-response","279","1538673","0.0-8.0-2.0-2.5-0.5","1","0","ry4zfnv7vc47y6d","","null","","sounds/syllables/fu_SWS.wav","","null","","","","","","","","","","","","","","","","","","","","","","","","","","","","","","","",""
"html-keyboard-response","280","1539327","0.0-8.0-2.0-2.5-1.5","1","0","ry4zfnv7vc47y6d","","653.0999999642372","","<p>To replay the <u>TARGET SOUND</u>, press P.</p> When you are ready to begin, press SPACEBAR.","","80","","","","","","","","","","","","","","","","","","","","","","","","","","","","","","","",""
"audio-keyboard-response","281","1540143","0.0-8.0-2.0-2.6-0.6","1","0","ry4zfnv7vc47y6d","","null","","sounds/syllables/fu_SWS.wav","","null","","","","","","","","","","","","","","","","","","","","","","","","","","","","","","","",""
"html-keyboard-response","282","1540488","0.0-8.0-2.0-2.6-1.6","1","0","ry4zfnv7vc47y6d","","344.5999999642372","","<p>To replay the <u>TARGET SOUND</u>, press P.</p> When you are ready to begin, press SPACEBAR.","","32","","","","","","","","","","","","","","","","","","","","","","","","","","","","","","","",""
"audio-keyboard-response","283","1555443","0.0-8.0-2.0-3.3","1","0","ry4zfnv7vc47y6d","","560","","sounds/A/TD/FU_02_TD.mp3","","32","","","TD_SUMMARY","","","","","","","","","","FU","","5700,9300,11100,12900","2","5700","9300","11100","12900","470.19999998807907","794.3000000119209","805.8000000119209","491.89999997615814","____________________________________563.6999999880791_2130.600000023842_2451.100000023842_2626.699999988079_3837.699999988079_4062.100000023842_4314.600000023842_5890.199999988079_6170.199999988079_7828.199999988079_8032.199999988079_8333.800000011921_9610.300000011921_10094.300000011921_10656.199999988079_11209.800000011921_11905.800000011921_13089.899999976158_13391.899999976158","2","","","","","",""
"html-button-response","284","1556463","0.0-8.0-2.0-0.4","1","0","ry4zfnv7vc47y6d","","1018.0999999642372","","<p>Trial 5 of 36</p>","0","","","","","","","","","","","","","","NI","sounds/syllables/ni_SWS.wav","3300,6900,9600,13200","3","","","","","","","","","","","","","","","",""
"html-keyboard-response","285","1557448","0.0-8.0-2.0-1.4","1","0","ry4zfnv7vc47y6d","","984.3000000119209","","","","80","","","","","","","","","","","","","NI","","3300,6900,9600,13200","3","","","","","","","","","","","","","","","",""
"audio-keyboard-response","286","1557753","0.0-8.0-2.0-2.7-0.7","1","0","ry4zfnv7vc47y6d","","null","","sounds/syllables/ni_SWS.wav","","null","","","","","","","","","","","","","","","","","","","","","","","","","","","","","","","",""
"html-keyboard-response","287","1558389","0.0-8.0-2.0-2.7-1.7","1","0","ry4zfnv7vc47y6d","","635.6999999880791","","<p>To replay the <u>TARGET SOUND</u>, press P.</p> When you are ready to begin, press SPACEBAR.","","80","","","","","","","","","","","","","","","","","","","","","","","","","","","","","","","",""
"audio-keyboard-response","288","1559193","0.0-8.0-2.0-2.8-0.8","1","0","ry4zfnv7vc47y6d","","null","","sounds/syllables/ni_SWS.wav","","null","","","","","","","","","","","","","","","","","","","","","","","","","","","","","","","",""
"html-keyboard-response","289","1559565","0.0-8.0-2.0-2.8-1.8","1","0","ry4zfnv7vc47y6d","","372.2999999523163","","<p>To replay the <u>TARGET SOUND</u>, press P.</p> When you are ready to begin, press SPACEBAR.","","32","","","","","","","","","","","","","","","","","","","","","","","","","","","","","","","",""
"audio-keyboard-response","290","1574523","0.0-8.0-2.0-3.4","1","0","ry4zfnv7vc47y6d","","1429","","sounds/A/TD/NI_08_TD.mp3","","32","","","TD_SUMMARY","","","","","","","","","","NI","","3300,6900,9600,13200","3","3300","6900","9600","13200","941.8000000119209","999.0999999642372","991.8000000119209","422.39999997615814","_______________________________________________________1430.199999988079_3612.599999964237_4241.800000011921_7272.300000011921_7632.300000011921_7899.099999964237_9033.899999976158_9494.699999988079_10338_10591.800000011921_12407.899999976158_13622.399999976158","2","","","","","",""
"html-button-response","291","1575614","0.0-8.0-2.0-0.5","1","0","ry4zfnv7vc47y6d","","1089.800000011921","","<p>Trial 6 of 36</p>","0","","","","","","","","","","","","","","GE","sounds/syllables/ge_SWS.wav","3900,5700,7500,9300","2","","","","","","","","","","","","","","","",""
"html-keyboard-response","292","1576642","0.0-8.0-2.0-1.5","1","0","ry4zfnv7vc47y6d","","1026.800000011921","","","","80","","","","","","","","","","","","","GE","","3900,5700,7500,9300","2","","","","","","","","","","","","","","","",""
"audio-keyboard-response","293","1576943","0.0-8.0-2.0-2.9-0.9","1","0","ry4zfnv7vc47y6d","","null","","sounds/syllables/ge_SWS.wav","","null","","","","","","","","","","","","","","","","","","","","","","","","","","","","","","","",""
"html-keyboard-response","294","1577523","0.0-8.0-2.0-2.9-1.9","1","0","ry4zfnv7vc47y6d","","579.7999999523163","","<p>To replay the <u>TARGET SOUND</u>, press P.</p> When you are ready to begin, press SPACEBAR.","","80","","","","","","","","","","","","","","","","","","","","","","","","","","","","","","","",""
"audio-keyboard-response","295","1578323","0.0-8.0-2.0-2.10-0.10","1","0","ry4zfnv7vc47y6d","","null","","sounds/syllables/ge_SWS.wav","","null","","","","","","","","","","","","","","","","","","","","","","","","","","","","","","","",""
"html-keyboard-response","296","1578721","0.0-8.0-2.0-2.10-1.10","1","0","ry4zfnv7vc47y6d","","397.30000001192093","","<p>To replay the <u>TARGET SOUND</u>, press P.</p> When you are ready to begin, press SPACEBAR.","","32","","","","","","","","","","","","","","","","","","","","","","","","","","","","","","","",""
"audio-keyboard-response","297","1593683","0.0-8.0-2.0-3.5","1","0","ry4zfnv7vc47y6d","","699","","sounds/A/TD/GE_04_TD.mp3","","32","","","TD_SUMMARY","","","","","","","","","","GE","","3900,5700,7500,9300","2","3900","5700","7500","9300","352.2000000476837","1072.4000000357628","523.4000000357628","708.5","___________________________________________________________________700.3000000119209_3258.900000035763_3972.600000023842_4252.200000047684_5282_6189.700000047684_6421.5_6772.400000035763_7470.200000047684_7709.400000035763_8023.400000035763_9333.200000047684_9771.5_10008.5_11439.800000011921_11985.800000011921_12529_12772.800000011921_13915.800000011921","2","","","","","",""
"html-button-response","298","1596004","0.0-8.0-2.0-0.6","1","0","ry4zfnv7vc47y6d","","2319.300000011921","","<p>Trial 7 of 36</p>","0","","","","","","","","","","","","","","TA","sounds/syllables/ta_SWS.wav","900,5400,10800,12600","1","","","","","","","","","","","","","","","",""
"html-keyboard-response","299","1596848","0.0-8.0-2.0-1.6","1","0","ry4zfnv7vc47y6d","","843.8000000119209","","","","80","","","","","","","","","","","","","TA","","900,5400,10800,12600","1","","","","","","","","","","","","","","","",""
"audio-keyboard-response","300","1597153","0.0-8.0-2.0-2.11-0.11","1","0","ry4zfnv7vc47y6d","","null","","sounds/syllables/ta_SWS.wav","","null","","","","","","","","","","","","","","","","","","","","","","","","","","","","","","","",""
"html-keyboard-response","301","1597783","0.0-8.0-2.0-2.11-1.11","1","0","ry4zfnv7vc47y6d","","629.3999999761581","","<p>To replay the <u>TARGET SOUND</u>, press P.</p> When you are ready to begin, press SPACEBAR.","","32","","","","","","","","","","","","","","","","","","","","","","","","","","","","","","","",""
"audio-keyboard-response","302","1612733","0.0-8.0-2.0-3.6","1","0","ry4zfnv7vc47y6d","","1160","","sounds/A/TD/TA_07_TD.mp3","","32","","","TD_SUMMARY","","","","","","","","","","TA","","900,5400,10800,12600","1","900","5400","10800","12600","263.30000001192093","768.3999999761581","1041.300000011921","null","______________________________________________________________________________________1163.300000011921_2535.399999976158_3642_4616.199999988079_5870.899999976158_6168.399999976158_7137.199999988079_8089.399999976158_9178.300000011921_9784.300000011921_10636.300000011921_11009.300000011921_11841.300000011921_12676.199999988079_13862.300000011921_14296.399999976158","1","","","","","",""
"html-button-response","303","1613614","0.0-8.0-2.0-0.7","1","0","ry4zfnv7vc47y6d","","880.1999999880791","","<p>Trial 8 of 36</p>","0","","","","","","","","","","","","","","ME","sounds/syllables/me_SWS.wav","3300,5100,8700,12300","3","","","","","","","","","","","","","","","",""
"html-keyboard-response","304","1614495","0.0-8.0-2.0-1.7","1","0","ry4zfnv7vc47y6d","","879.8000000119209","","","","80","","","","","","","","","","","","","ME","","3300,5100,8700,12300","3","","","","","","","","","","","","","","","",""
"audio-keyboard-response","305","1614793","0.0-8.0-2.0-2.12-0.12","1","0","ry4zfnv7vc47y6d","","null","","sounds/syllables/me_SWS.wav","","null","","","","","","","","","","","","","","","","","","","","","","","","","","","","","","","",""
"html-keyboard-response","306","1615545","0.0-8.0-2.0-2.12-1.12","1","0","ry4zfnv7vc47y6d","","751.3999999761581","","<p>To replay the <u>TARGET SOUND</u>, press P.</p> When you are ready to begin, press SPACEBAR.","","80","","","","","","","","","","","","","","","","","","","","","","","","","","","","","","","",""
"audio-keyboard-response","307","1616353","0.0-8.0-2.0-2.13-0.13","1","0","ry4zfnv7vc47y6d","","null","","sounds/syllables/me_SWS.wav","","null","","","","","","","","","","","","","","","","","","","","","","","","","","","","","","","",""
"html-keyboard-response","308","1616901","0.0-8.0-2.0-2.13-1.13","1","0","ry4zfnv7vc47y6d","","548.1999999880791","","<p>To replay the <u>TARGET SOUND</u>, press P.</p> When you are ready to begin, press SPACEBAR.","","80","","","","","","","","","","","","","","","","","","","","","","","","","","","","","","","",""
"audio-keyboard-response","309","1617712","0.0-8.0-2.0-2.14-0.14","1","0","ry4zfnv7vc47y6d","","null","","sounds/syllables/me_SWS.wav","","null","","","","","","","","","","","","","","","","","","","","","","","","","","","","","","","",""
"html-keyboard-response","310","1619293","0.0-8.0-2.0-2.14-1.14","1","0","ry4zfnv7vc47y6d","","1580.300000011921","","<p>To replay the <u>TARGET SOUND</u>, press P.</p> When you are ready to begin, press SPACEBAR.","","32","","","","","","","","","","","","","","","","","","","","","","","","","","","","","","","",""
"audio-keyboard-response","311","1634252","0.0-8.0-2.0-3.7","1","0","ry4zfnv7vc47y6d","","1419","","sounds/A/TD/ME_03_TD.mp3","","32","","","TD_SUMMARY","","","","","","","","","","ME","","3300,5100,8700,12300","3","3300","5100","8700","12300","null","927.6000000238419","null","null","______________________________________________________________________________________________________1422.199999988079_3385.100000023842_4683.5_6027.600000023842_7358.699999988079_7748.100000023842_8207.300000011921_9923.5_10825.600000023842_11333.800000011921_12322.899999976158_13549.600000023842_14214.899999976158","3","","","","","",""
"html-button-response","312","1635249","0.0-8.0-2.0-0.8","1","0","ry4zfnv7vc47y6d","","994.8000000119209","","<p>Trial 9 of 36</p>","0","","","","","","","","","","","","","","TA","sounds/syllables/ta_SWS.wav","5400,8100,10800,12600","1","","","","","","","","","","","","","","","",""
"html-keyboard-response","313","1636025","0.0-8.0-2.0-1.8","1","0","ry4zfnv7vc47y6d","","774.9000000357628","","","","80","","","","","","","","","","","","","TA","","5400,8100,10800,12600","1","","","","","","","","","","","","","","","",""
"audio-keyboard-response","314","1636322","0.0-8.0-2.0-2.15-0.15","1","0","ry4zfnv7vc47y6d","","null","","sounds/syllables/ta_SWS.wav","","null","","","","","","","","","","","","","","","","","","","","","","","","","","","","","","","",""
"html-keyboard-response","315","1636716","0.0-8.0-2.0-2.15-1.15","1","0","ry4zfnv7vc47y6d","","393.10000002384186","","<p>To replay the <u>TARGET SOUND</u>, press P.</p> When you are ready to begin, press SPACEBAR.","","80","","","","","","","","","","","","","","","","","","","","","","","","","","","","","","","",""
"audio-keyboard-response","316","1637512","0.0-8.0-2.0-2.16-0.16","1","0","ry4zfnv7vc47y6d","","null","","sounds/syllables/ta_SWS.wav","","null","","","","","","","","","","","","","","","","","","","","","","","","","","","","","","","",""
"html-keyboard-response","317","1637891","0.0-8.0-2.0-2.16-1.16","1","0","ry4zfnv7vc47y6d","","378.30000001192093","","<p>To replay the <u>TARGET SOUND</u>, press P.</p> When you are ready to begin, press SPACEBAR.","","80","","","","","","","","","","","","","","","","","","","","","","","","","","","","","","","",""
"audio-keyboard-response","318","1638702","0.0-8.0-2.0-2.17-0.17","1","0","ry4zfnv7vc47y6d","","null","","sounds/syllables/ta_SWS.wav","","null","","","","","","","","","","","","","","","","","","","","","","","","","","","","","","","",""
"html-keyboard-response","319","1639615","0.0-8.0-2.0-2.17-1.17","1","0","ry4zfnv7vc47y6d","","912","","<p>To replay the <u>TARGET SOUND</u>, press P.</p> When you are ready to begin, press SPACEBAR.","","32","","","","","","","","","","","","","","","","","","","","","","","","","","","","","","","",""
"audio-keyboard-response","320","1654562","0.0-8.0-2.0-3.8","1","0","ry4zfnv7vc47y6d","","2739","","sounds/A/TD/TA_10_TD.mp3","","32","","","TD_SUMMARY","","","","","","","","","","TA","","5400,8100,10800,12600","1","5400","8100","10800","12600","348.5","384.0999999642372","317.5","null","___________________________________________________________________________________________________________________2739.599999964237_3457.7999999523163_5169.899999976158_5748.5_7298.399999976158_8484.099999964237_10022.099999964237_11117.5_12485.799999952316_13890.5","3","","","","","",""
"html-button-response","321","1656320","0.0-8.0-2.0-0.9","1","0","ry4zfnv7vc47y6d","","1755.9000000357628","","<p>Trial 10 of 36</p>","0","","","","","","","","","","","","","","ME","sounds/syllables/me_SWS.wav","6000,7800,11400,13200","3","","","","","","","","","","","","","","","",""
"html-keyboard-response","322","1657601","0.0-8.0-2.0-1.9","1","0","ry4zfnv7vc47y6d","","1280.199999988079","","","","80","","","","","","","","","","","","","ME","","6000,7800,11400,13200","3","","","","","","","","","","","","","","","",""
"audio-keyboard-response","323","1657902","0.0-8.0-2.0-2.18-0.18","1","0","ry4zfnv7vc47y6d","","null","","sounds/syllables/me_SWS.wav","","null","","","","","","","","","","","","","","","","","","","","","","","","","","","","","","","",""
"html-keyboard-response","324","1658310","0.0-8.0-2.0-2.18-1.18","1","0","ry4zfnv7vc47y6d","","407.80000001192093","","<p>To replay the <u>TARGET SOUND</u>, press P.</p> When you are ready to begin, press SPACEBAR.","","80","","","","","","","","","","","","","","","","","","","","","","","","","","","","","","","",""
"audio-keyboard-response","325","1659112","0.0-8.0-2.0-2.19-0.19","1","0","ry4zfnv7vc47y6d","","null","","sounds/syllables/me_SWS.wav","","null","","","","","","","","","","","","","","","","","","","","","","","","","","","","","","","",""
"html-keyboard-response","326","1659377","0.0-8.0-2.0-2.19-1.19","1","0","ry4zfnv7vc47y6d","","264.30000001192093","","<p>To replay the <u>TARGET SOUND</u>, press P.</p> When you are ready to begin, press SPACEBAR.","","80","","","","","","","","","","","","","","","","","","","","","","","","","","","","","","","",""
"audio-keyboard-response","327","1660193","0.0-8.0-2.0-2.20-0.20","1","0","ry4zfnv7vc47y6d","","null","","sounds/syllables/me_SWS.wav","","null","","","","","","","","","","","","","","","","","","","","","","","","","","","","","","","",""
"html-keyboard-response","328","1660365","0.0-8.0-2.0-2.20-1.20","1","0","ry4zfnv7vc47y6d","","172.30000001192093","","<p>To replay the <u>TARGET SOUND</u>, press P.</p> When you are ready to begin, press SPACEBAR.","","32","","","","","","","","","","","","","","","","","","","","","","","","","","","","","","","",""
"audio-keyboard-response","329","1675323","0.0-8.0-2.0-3.9","1","0","ry4zfnv7vc47y6d","","960","","sounds/A/TD/ME_07_TD.mp3","","32","","","TD_SUMMARY","","","","","","","","","","ME","","6000,7800,11400,13200","3","6000","7800","11400","13200","998.8999999761581","null","447.5","636.3000000119209","_____________________________________________________________________________________________________________________________960.3999999761581_3265.899999976158_5081.300000011921_6998.899999976158_9023.300000011921_9987.699999988079_11847.5_12775.399999976158_13836.300000011921","3","","","","","",""
"html-button-response","330","1676153","0.0-8.0-2.0-0.10","1","0","ry4zfnv7vc47y6d","","828.1999999880791","","<p>Trial 11 of 36</p>","0","","","","","","","","","","","","","","FE","sounds/syllables/fe_SWS.wav","2700,7200,9900,12600","1","","","","","","","","","","","","","","","",""
"html-keyboard-response","331","1677006","0.0-8.0-2.0-1.10","1","0","ry4zfnv7vc47y6d","","852.6999999880791","","","","80","","","","","","","","","","","","","FE","","2700,7200,9900,12600","1","","","","","","","","","","","","","","","",""
