"trial_type","trial_index","time_elapsed","internal_node_id","counterbalance","lang_instruct","ParticipantID","view_history","rt","url","stimulus","button_pressed","key_press","correctRESP","correct","designation","location","correctanswer","timeouts","pause_rt01","pause_rt02","train_file","numKeyPress","sound","fam_type","SYLLABLE","EXEMPLAR","TD_LOCS","TD_TYPE","TDLOC_01","TDLOC_02","TDLOC_03","TDLOC_04","TD_RT_01","TD_RT_02","TD_RT_03","TD_RT_04","TD_SUBJ_RTs","number_of_plays","responses","slider_start","response","question_order","syllable","syllable_type"
"pavlovia","0","30","0.0-0.0","2","0","my96dwstkkkhxmz","","","","","","","","","","","","","","","","","","","","","","","","","","","","","","","","","","","","","",""
"instructions","1","505176","0.0-1.0","2","0","my96dwstkkkhxmz","[{""page_index"":0,""viewing_time"":455805.89999997616},{""page_index"":1,""viewing_time"":49336.60000002384}]","505144.10000002384","","","","","","","","","","","","","","","","","","","","","","","","","","","","","","","","","","","",""
"external-html","2","510888","0.0-2.0","2","0","my96dwstkkkhxmz","","5464.600000023842","consent/consent.html","","","","","","","","","","","","","","","","","","","","","","","","","","","","","","","","","","",""
"html-button-response","3","590682","0.0-3.0-0.0-0.0","2","0","my96dwstkkkhxmz","","79791.39999997616","","<p>Welcome to the study. You will first complete a short volume calibration and headphone check.</p><p>Please make sure you are in a quiet listening environment, that you are wearing headphones, and that your computer's volume is turned on.<p></p>","0","","","","","","","","","","","","","","","","","","","","","","","","","","","","","","","","",""
"html-button-response","4","598375","0.0-3.0-0.0-1.0","2","0","my96dwstkkkhxmz","","7440.5","","<p>The volume calibration will be first.</p><p>You will hear a thirty-second noise. Please adjust your computer's volume so that this noise is being presented at a comfortable level.<p></p>","0","","","","","","","","","","","","","","","","","","","","","","","","","","","","","","","","",""
"audio-button-response","5","610584","0.0-3.0-0.0-2.0","2","0","my96dwstkkkhxmz","","11523","","audCalib/volumetest.mp3","0","","","","","","","","","","","","","","","","","","","","","","","","","","","","","","","","",""
"html-button-response","6","626287","0.0-3.0-1.0-0.0","2","0","my96dwstkkkhxmz","","15467.5","","<p>You will now complete a short headphone check.</p><p>On each trial, you will hear three tones. One of these tones will be quieter than the others. Your task is to identify whether the quiet tone occured first, second, or third.</p><p>There are six trials in total.<p></p>","0","","","","","","","","","","","","","","","","","","","","","","","","","","","","","","","","",""
"html-keyboard-response","7","627044","0.0-3.0-1.0-1.0-0.0","2","0","my96dwstkkkhxmz","","null","","<div style=""font-size:60px;"">+</div>","","null","","","","","","","","","","","","","","","","","","","","","","","","","","","","","","","",""
"audio-button-response","8","638888","0.0-3.0-1.0-1.0-1.0","2","0","my96dwstkkkhxmz","","11842","","audCalib/t1_2.mp3","2","","0","0","headphone-test","","","","","","","","","","","","","","","","","","","","","","","","","","","","",""
"html-keyboard-response","9","639647","0.0-3.0-1.0-1.0-0.1","2","0","my96dwstkkkhxmz","","null","","<div style=""font-size:60px;"">+</div>","","null","","","","","","","","","","","","","","","","","","","","","","","","","","","","","","","",""
"audio-button-response","10","647138","0.0-3.0-1.0-1.0-1.1","2","0","my96dwstkkkhxmz","","7488","","audCalib/t1_1.mp3","2","","0","0","headphone-test","","","","","","","","","","","","","","","","","","","","","","","","","","","","",""
"html-keyboard-response","11","647896","0.0-3.0-1.0-1.0-0.2","2","0","my96dwstkkkhxmz","","null","","<div style=""font-size:60px;"">+</div>","","null","","","","","","","","","","","","","","","","","","","","","","","","","","","","","","","",""
"audio-button-response","12","652406","0.0-3.0-1.0-1.0-1.2","2","0","my96dwstkkkhxmz","","4516","","audCalib/t2_2.mp3","1","","1","1","headphone-test","","","","","","","","","","","","","","","","","","","","","","","","","","","","",""
"html-keyboard-response","13","653161","0.0-3.0-1.0-1.0-0.3","2","0","my96dwstkkkhxmz","","null","","<div style=""font-size:60px;"">+</div>","","null","","","","","","","","","","","","","","","","","","","","","","","","","","","","","","","",""
"audio-button-response","14","657665","0.0-3.0-1.0-1.0-1.3","2","0","my96dwstkkkhxmz","","4505","","audCalib/t3_1.mp3","2","","2","1","headphone-test","","","","","","","","","","","","","","","","","","","","","","","","","","","","",""
"html-keyboard-response","15","658421","0.0-3.0-1.0-1.0-0.4","2","0","my96dwstkkkhxmz","","null","","<div style=""font-size:60px;"">+</div>","","null","","","","","","","","","","","","","","","","","","","","","","","","","","","","","","","",""
"audio-button-response","16","664376","0.0-3.0-1.0-1.0-1.4","2","0","my96dwstkkkhxmz","","5956","","audCalib/t2_1.mp3","1","","1","1","headphone-test","","","","","","","","","","","","","","","","","","","","","","","","","","","","",""
"html-keyboard-response","17","665132","0.0-3.0-1.0-1.0-0.5","2","0","my96dwstkkkhxmz","","null","","<div style=""font-size:60px;"">+</div>","","null","","","","","","","","","","","","","","","","","","","","","","","","","","","","","","","",""
"audio-button-response","18","669465","0.0-3.0-1.0-1.0-1.5","2","0","my96dwstkkkhxmz","","4336","","audCalib/t3_2.mp3","2","","2","1","headphone-test","","","","","","","","","","","","","","","","","","","","","","","","","","","","",""
"html-button-response","19","671862","0.0-3.0-2.0","2","0","my96dwstkkkhxmz","","2143.1999999284744","","<p>The volume calibration and headphone check are now complete.</p>","0","","","","","","","","","","","","","","","","","","","","","","","","","","","","","","","","",""
"instructions","20","714851","0.0-4.0-0.0","2","0","my96dwstkkkhxmz","[{""page_index"":0,""viewing_time"":1851.3999999761581},{""page_index"":1,""viewing_time"":37047.200000047684},{""page_index"":2,""viewing_time"":4088.899999976158}]","42987.699999928474","","","","","","","","","","","","","","","","","","","","","","","","","","","","","","","","","","","",""
"audio-keyboard-response","21","715572","0.0-4.0-1.0-0.0","2","0","my96dwstkkkhxmz","","null","","sounds/induction/left_rev/su_SWS.wav","","null","","","","","","","","","","","","","","","","","","","","","","","","","","","","","","","",""
"html-button-response","22","717622","0.0-4.0-1.0-1.0","2","0","my96dwstkkkhxmz","","2047.4000000953674","","Was the sound coming from the left or the right?","0","","","1","INDUCTION-JUDGMENT","left","0","","","","","","","","","","","","","","","","","","","","","","","","","","",""
"html-keyboard-response","23","718626","0.0-4.0-1.0-2.0","2","0","my96dwstkkkhxmz","","null","","<p style=""color:#054d00;""><b>Correct!</b></p>","","null","","","","","","","","","","","","","","","","","","","","","","","","","","","","","","","",""
"audio-keyboard-response","24","719429","0.0-4.0-1.0-0.1","2","0","my96dwstkkkhxmz","","null","","sounds/induction/left_rev/ni_SWS.wav","","null","","","","","","","","","","","","","","","","","","","","","","","","","","","","","","","",""
"html-button-response","25","720645","0.0-4.0-1.0-1.1","2","0","my96dwstkkkhxmz","","1214.7999999523163","","Was the sound coming from the left or the right?","0","","","1","INDUCTION-JUDGMENT","left","0","","","","","","","","","","","","","","","","","","","","","","","","","","",""
"html-keyboard-response","26","721647","0.0-4.0-1.0-2.1","2","0","my96dwstkkkhxmz","","null","","<p style=""color:#054d00;""><b>Correct!</b></p>","","null","","","","","","","","","","","","","","","","","","","","","","","","","","","","","","","",""
"audio-keyboard-response","27","722447","0.0-4.0-1.0-0.2","2","0","my96dwstkkkhxmz","","null","","sounds/induction/right_rev/re_SWS.wav","","null","","","","","","","","","","","","","","","","","","","","","","","","","","","","","","","",""
"html-button-response","28","723612","0.0-4.0-1.0-1.2","2","0","my96dwstkkkhxmz","","1164.2000000476837","","Was the sound coming from the left or the right?","1","","","1","INDUCTION-JUDGMENT","right","1","","","","","","","","","","","","","","","","","","","","","","","","","","",""
"html-keyboard-response","29","724619","0.0-4.0-1.0-2.2","2","0","my96dwstkkkhxmz","","null","","<p style=""color:#054d00;""><b>Correct!</b></p>","","null","","","","","","","","","","","","","","","","","","","","","","","","","","","","","","","",""
"audio-keyboard-response","30","725418","0.0-4.0-1.0-0.3","2","0","my96dwstkkkhxmz","","null","","sounds/induction/left_rev/me_SWS.wav","","null","","","","","","","","","","","","","","","","","","","","","","","","","","","","","","","",""
"html-button-response","31","726530","0.0-4.0-1.0-1.3","2","0","my96dwstkkkhxmz","","1111.2999999523163","","Was the sound coming from the left or the right?","0","","","1","INDUCTION-JUDGMENT","left","0","","","","","","","","","","","","","","","","","","","","","","","","","","",""
"html-keyboard-response","32","727532","0.0-4.0-1.0-2.3","2","0","my96dwstkkkhxmz","","null","","<p style=""color:#054d00;""><b>Correct!</b></p>","","null","","","","","","","","","","","","","","","","","","","","","","","","","","","","","","","",""
"audio-keyboard-response","33","728343","0.0-4.0-1.0-0.4","2","0","my96dwstkkkhxmz","","null","","sounds/induction/right_rev/ru_SWS.wav","","null","","","","","","","","","","","","","","","","","","","","","","","","","","","","","","","",""
"html-button-response","34","729441","0.0-4.0-1.0-1.4","2","0","my96dwstkkkhxmz","","1096.8000000715256","","Was the sound coming from the left or the right?","1","","","1","INDUCTION-JUDGMENT","right","1","","","","","","","","","","","","","","","","","","","","","","","","","","",""
"html-keyboard-response","35","730446","0.0-4.0-1.0-2.4","2","0","my96dwstkkkhxmz","","null","","<p style=""color:#054d00;""><b>Correct!</b></p>","","null","","","","","","","","","","","","","","","","","","","","","","","","","","","","","","","",""
"audio-keyboard-response","36","731245","0.0-4.0-1.0-0.5","2","0","my96dwstkkkhxmz","","null","","sounds/induction/left_rev/ta_SWS.wav","","null","","","","","","","","","","","","","","","","","","","","","","","","","","","","","","","",""
"html-button-response","37","732748","0.0-4.0-1.0-1.5","2","0","my96dwstkkkhxmz","","1503","","Was the sound coming from the left or the right?","0","","","1","INDUCTION-JUDGMENT","left","0","","","","","","","","","","","","","","","","","","","","","","","","","","",""
"html-keyboard-response","38","733755","0.0-4.0-1.0-2.5","2","0","my96dwstkkkhxmz","","null","","<p style=""color:#054d00;""><b>Correct!</b></p>","","null","","","","","","","","","","","","","","","","","","","","","","","","","","","","","","","",""
"audio-keyboard-response","39","734552","0.0-4.0-1.0-0.6","2","0","my96dwstkkkhxmz","","null","","sounds/induction/right_rev/ti_SWS.wav","","null","","","","","","","","","","","","","","","","","","","","","","","","","","","","","","","",""
"html-button-response","40","735627","0.0-4.0-1.0-1.6","2","0","my96dwstkkkhxmz","","1074.6000000238419","","Was the sound coming from the left or the right?","1","","","1","INDUCTION-JUDGMENT","right","1","","","","","","","","","","","","","","","","","","","","","","","","","","",""
"html-keyboard-response","41","736628","0.0-4.0-1.0-2.6","2","0","my96dwstkkkhxmz","","null","","<p style=""color:#054d00;""><b>Correct!</b></p>","","null","","","","","","","","","","","","","","","","","","","","","","","","","","","","","","","",""
"audio-keyboard-response","42","737430","0.0-4.0-1.0-0.7","2","0","my96dwstkkkhxmz","","null","","sounds/induction/right_rev/fe_SWS.wav","","null","","","","","","","","","","","","","","","","","","","","","","","","","","","","","","","",""
"html-button-response","43","740608","0.0-4.0-1.0-1.7","2","0","my96dwstkkkhxmz","","3177","","Was the sound coming from the left or the right?","1","","","1","INDUCTION-JUDGMENT","right","1","","","","","","","","","","","","","","","","","","","","","","","","","","",""
"html-keyboard-response","44","741611","0.0-4.0-1.0-2.7","2","0","my96dwstkkkhxmz","","null","","<p style=""color:#054d00;""><b>Correct!</b></p>","","null","","","","","","","","","","","","","","","","","","","","","","","","","","","","","","","",""
"audio-keyboard-response","45","742411","0.0-4.0-1.0-0.8","2","0","my96dwstkkkhxmz","","null","","sounds/induction/left_rev/ta_SWS.wav","","null","","","","","","","","","","","","","","","","","","","","","","","","","","","","","","","",""
"html-button-response","46","743650","0.0-4.0-1.0-1.8","2","0","my96dwstkkkhxmz","","1238.1000000238419","","Was the sound coming from the left or the right?","0","","","1","INDUCTION-JUDGMENT","left","0","","","","","","","","","","","","","","","","","","","","","","","","","","",""
"html-keyboard-response","47","744651","0.0-4.0-1.0-2.8","2","0","my96dwstkkkhxmz","","null","","<p style=""color:#054d00;""><b>Correct!</b></p>","","null","","","","","","","","","","","","","","","","","","","","","","","","","","","","","","","",""
"audio-keyboard-response","48","745452","0.0-4.0-1.0-0.9","2","0","my96dwstkkkhxmz","","null","","sounds/induction/right_rev/pu_SWS.wav","","null","","","","","","","","","","","","","","","","","","","","","","","","","","","","","","","",""
"html-button-response","49","746677","0.0-4.0-1.0-1.9","2","0","my96dwstkkkhxmz","","1224.1999999284744","","Was the sound coming from the left or the right?","1","","","1","INDUCTION-JUDGMENT","right","1","","","","","","","","","","","","","","","","","","","","","","","","","","",""
"html-keyboard-response","50","747681","0.0-4.0-1.0-2.9","2","0","my96dwstkkkhxmz","","null","","<p style=""color:#054d00;""><b>Correct!</b></p>","","null","","","","","","","","","","","","","","","","","","","","","","","","","","","","","","","",""
"audio-keyboard-response","51","748487","0.0-4.0-1.0-0.10","2","0","my96dwstkkkhxmz","","null","","sounds/induction/left_rev/re_SWS.wav","","null","","","","","","","","","","","","","","","","","","","","","","","","","","","","","","","",""
"html-button-response","52","749828","0.0-4.0-1.0-1.10","2","0","my96dwstkkkhxmz","","1340.3999999761581","","Was the sound coming from the left or the right?","0","","","1","INDUCTION-JUDGMENT","left","0","","","","","","","","","","","","","","","","","","","","","","","","","","",""
"html-keyboard-response","53","750833","0.0-4.0-1.0-2.10","2","0","my96dwstkkkhxmz","","null","","<p style=""color:#054d00;""><b>Correct!</b></p>","","null","","","","","","","","","","","","","","","","","","","","","","","","","","","","","","","",""
"audio-keyboard-response","54","751638","0.0-4.0-1.0-0.11","2","0","my96dwstkkkhxmz","","null","","sounds/induction/left_rev/re_SWS.wav","","null","","","","","","","","","","","","","","","","","","","","","","","","","","","","","","","",""
"html-button-response","55","752650","0.0-4.0-1.0-1.11","2","0","my96dwstkkkhxmz","","1011.8999999761581","","Was the sound coming from the left or the right?","0","","","1","INDUCTION-JUDGMENT","left","0","","","","","","","","","","","","","","","","","","","","","","","","","","",""
"html-keyboard-response","56","753651","0.0-4.0-1.0-2.11","2","0","my96dwstkkkhxmz","","null","","<p style=""color:#054d00;""><b>Correct!</b></p>","","null","","","","","","","","","","","","","","","","","","","","","","","","","","","","","","","",""
"audio-keyboard-response","57","754452","0.0-4.0-1.0-0.12","2","0","my96dwstkkkhxmz","","null","","sounds/induction/left_rev/pu_SWS.wav","","null","","","","","","","","","","","","","","","","","","","","","","","","","","","","","","","",""
"html-button-response","58","755577","0.0-4.0-1.0-1.12","2","0","my96dwstkkkhxmz","","1123.6000000238419","","Was the sound coming from the left or the right?","0","","","1","INDUCTION-JUDGMENT","left","0","","","","","","","","","","","","","","","","","","","","","","","","","","",""
"html-keyboard-response","59","756581","0.0-4.0-1.0-2.12","2","0","my96dwstkkkhxmz","","null","","<p style=""color:#054d00;""><b>Correct!</b></p>","","null","","","","","","","","","","","","","","","","","","","","","","","","","","","","","","","",""
"audio-keyboard-response","60","757383","0.0-4.0-1.0-0.13","2","0","my96dwstkkkhxmz","","null","","sounds/induction/left_rev/ni_SWS.wav","","null","","","","","","","","","","","","","","","","","","","","","","","","","","","","","","","",""
"html-button-response","61","759191","0.0-4.0-1.0-1.13","2","0","my96dwstkkkhxmz","","1806.6000000238419","","Was the sound coming from the left or the right?","0","","","1","INDUCTION-JUDGMENT","left","0","","","","","","","","","","","","","","","","","","","","","","","","","","",""
"html-keyboard-response","62","760196","0.0-4.0-1.0-2.13","2","0","my96dwstkkkhxmz","","null","","<p style=""color:#054d00;""><b>Correct!</b></p>","","null","","","","","","","","","","","","","","","","","","","","","","","","","","","","","","","",""
"audio-keyboard-response","63","761003","0.0-4.0-1.0-0.14","2","0","my96dwstkkkhxmz","","null","","sounds/induction/right_rev/fe_SWS.wav","","null","","","","","","","","","","","","","","","","","","","","","","","","","","","","","","","",""
"html-button-response","64","762951","0.0-4.0-1.0-1.14","2","0","my96dwstkkkhxmz","","1947.8999999761581","","Was the sound coming from the left or the right?","1","","","1","INDUCTION-JUDGMENT","right","1","","","","","","","","","","","","","","","","","","","","","","","","","","",""
"html-keyboard-response","65","763953","0.0-4.0-1.0-2.14","2","0","my96dwstkkkhxmz","","null","","<p style=""color:#054d00;""><b>Correct!</b></p>","","null","","","","","","","","","","","","","","","","","","","","","","","","","","","","","","","",""
"audio-keyboard-response","66","764756","0.0-4.0-1.0-0.15","2","0","my96dwstkkkhxmz","","null","","sounds/induction/right_rev/ni_SWS.wav","","null","","","","","","","","","","","","","","","","","","","","","","","","","","","","","","","",""
"html-button-response","67","765859","0.0-4.0-1.0-1.15","2","0","my96dwstkkkhxmz","","1101.5999999046326","","Was the sound coming from the left or the right?","1","","","1","INDUCTION-JUDGMENT","right","1","","","","","","","","","","","","","","","","","","","","","","","","","","",""
"html-keyboard-response","68","766862","0.0-4.0-1.0-2.15","2","0","my96dwstkkkhxmz","","null","","<p style=""color:#054d00;""><b>Correct!</b></p>","","null","","","","","","","","","","","","","","","","","","","","","","","","","","","","","","","",""
"audio-keyboard-response","69","767664","0.0-4.0-1.0-0.16","2","0","my96dwstkkkhxmz","","null","","sounds/induction/right_rev/ko_SWS.wav","","null","","","","","","","","","","","","","","","","","","","","","","","","","","","","","","","",""
"html-button-response","70","769198","0.0-4.0-1.0-1.16","2","0","my96dwstkkkhxmz","","1533.5","","Was the sound coming from the left or the right?","1","","","1","INDUCTION-JUDGMENT","right","1","","","","","","","","","","","","","","","","","","","","","","","","","","",""
"html-keyboard-response","71","770200","0.0-4.0-1.0-2.16","2","0","my96dwstkkkhxmz","","null","","<p style=""color:#054d00;""><b>Correct!</b></p>","","null","","","","","","","","","","","","","","","","","","","","","","","","","","","","","","","",""
"audio-keyboard-response","72","771011","0.0-4.0-1.0-0.17","2","0","my96dwstkkkhxmz","","null","","sounds/induction/left_rev/pu_SWS.wav","","null","","","","","","","","","","","","","","","","","","","","","","","","","","","","","","","",""
"html-button-response","73","772213","0.0-4.0-1.0-1.17","2","0","my96dwstkkkhxmz","","1201.3999999761581","","Was the sound coming from the left or the right?","0","","","1","INDUCTION-JUDGMENT","left","0","","","","","","","","","","","","","","","","","","","","","","","","","","",""
"html-keyboard-response","74","773218","0.0-4.0-1.0-2.17","2","0","my96dwstkkkhxmz","","null","","<p style=""color:#054d00;""><b>Correct!</b></p>","","null","","","","","","","","","","","","","","","","","","","","","","","","","","","","","","","",""
"audio-keyboard-response","75","774023","0.0-4.0-1.0-0.18","2","0","my96dwstkkkhxmz","","null","","sounds/induction/right_rev/su_SWS.wav","","null","","","","","","","","","","","","","","","","","","","","","","","","","","","","","","","",""
"html-button-response","76","775361","0.0-4.0-1.0-1.18","2","0","my96dwstkkkhxmz","","1335.8999999761581","","Was the sound coming from the left or the right?","1","","","1","INDUCTION-JUDGMENT","right","1","","","","","","","","","","","","","","","","","","","","","","","","","","",""
"html-keyboard-response","77","776365","0.0-4.0-1.0-2.18","2","0","my96dwstkkkhxmz","","null","","<p style=""color:#054d00;""><b>Correct!</b></p>","","null","","","","","","","","","","","","","","","","","","","","","","","","","","","","","","","",""
"audio-keyboard-response","78","777168","0.0-4.0-1.0-0.19","2","0","my96dwstkkkhxmz","","null","","sounds/induction/right_rev/fu_SWS.wav","","null","","","","","","","","","","","","","","","","","","","","","","","","","","","","","","","",""
"html-button-response","79","778251","0.0-4.0-1.0-1.19","2","0","my96dwstkkkhxmz","","1082.2999999523163","","Was the sound coming from the left or the right?","1","","","1","INDUCTION-JUDGMENT","right","1","","","","","","","","","","","","","","","","","","","","","","","","","","",""
"html-keyboard-response","80","779256","0.0-4.0-1.0-2.19","2","0","my96dwstkkkhxmz","","null","","<p style=""color:#054d00;""><b>Correct!</b></p>","","null","","","","","","","","","","","","","","","","","","","","","","","","","","","","","","","",""
"audio-keyboard-response","81","780059","0.0-4.0-1.0-0.20","2","0","my96dwstkkkhxmz","","null","","sounds/induction/left_rev/ge_SWS.wav","","null","","","","","","","","","","","","","","","","","","","","","","","","","","","","","","","",""
"html-button-response","82","781282","0.0-4.0-1.0-1.20","2","0","my96dwstkkkhxmz","","1222.8999999761581","","Was the sound coming from the left or the right?","0","","","1","INDUCTION-JUDGMENT","left","0","","","","","","","","","","","","","","","","","","","","","","","","","","",""
"html-keyboard-response","83","782286","0.0-4.0-1.0-2.20","2","0","my96dwstkkkhxmz","","null","","<p style=""color:#054d00;""><b>Correct!</b></p>","","null","","","","","","","","","","","","","","","","","","","","","","","","","","","","","","","",""
"audio-keyboard-response","84","783087","0.0-4.0-1.0-0.21","2","0","my96dwstkkkhxmz","","null","","sounds/induction/left_rev/fe_SWS.wav","","null","","","","","","","","","","","","","","","","","","","","","","","","","","","","","","","",""
"html-button-response","85","785973","0.0-4.0-1.0-1.21","2","0","my96dwstkkkhxmz","","2885.399999976158","","Was the sound coming from the left or the right?","0","","","1","INDUCTION-JUDGMENT","left","0","","","","","","","","","","","","","","","","","","","","","","","","","","",""
"html-keyboard-response","86","786977","0.0-4.0-1.0-2.21","2","0","my96dwstkkkhxmz","","null","","<p style=""color:#054d00;""><b>Correct!</b></p>","","null","","","","","","","","","","","","","","","","","","","","","","","","","","","","","","","",""
"audio-keyboard-response","87","787779","0.0-4.0-1.0-0.22","2","0","my96dwstkkkhxmz","","null","","sounds/induction/left_rev/fe_SWS.wav","","null","","","","","","","","","","","","","","","","","","","","","","","","","","","","","","","",""
"html-button-response","88","789710","0.0-4.0-1.0-1.22","2","0","my96dwstkkkhxmz","","1930.1999999284744","","Was the sound coming from the left or the right?","0","","","1","INDUCTION-JUDGMENT","left","0","","","","","","","","","","","","","","","","","","","","","","","","","","",""
"html-keyboard-response","89","790715","0.0-4.0-1.0-2.22","2","0","my96dwstkkkhxmz","","null","","<p style=""color:#054d00;""><b>Correct!</b></p>","","null","","","","","","","","","","","","","","","","","","","","","","","","","","","","","","","",""
"audio-keyboard-response","90","791520","0.0-4.0-1.0-0.23","2","0","my96dwstkkkhxmz","","null","","sounds/induction/right_rev/ti_SWS.wav","","null","","","","","","","","","","","","","","","","","","","","","","","","","","","","","","","",""
"html-button-response","91","792744","0.0-4.0-1.0-1.23","2","0","my96dwstkkkhxmz","","1223.5","","Was the sound coming from the left or the right?","1","","","1","INDUCTION-JUDGMENT","right","1","","","","","","","","","","","","","","","","","","","","","","","","","","",""
"html-keyboard-response","92","793745","0.0-4.0-1.0-2.23","2","0","my96dwstkkkhxmz","","null","","<p style=""color:#054d00;""><b>Correct!</b></p>","","null","","","","","","","","","","","","","","","","","","","","","","","","","","","","","","","",""
"audio-keyboard-response","93","794549","0.0-4.0-1.0-0.24","2","0","my96dwstkkkhxmz","","null","","sounds/induction/left_rev/ti_SWS.wav","","null","","","","","","","","","","","","","","","","","","","","","","","","","","","","","","","",""
"html-button-response","94","795568","0.0-4.0-1.0-1.24","2","0","my96dwstkkkhxmz","","1018.5","","Was the sound coming from the left or the right?","0","","","1","INDUCTION-JUDGMENT","left","0","","","","","","","","","","","","","","","","","","","","","","","","","","",""
"html-keyboard-response","95","796569","0.0-4.0-1.0-2.24","2","0","my96dwstkkkhxmz","","null","","<p style=""color:#054d00;""><b>Correct!</b></p>","","null","","","","","","","","","","","","","","","","","","","","","","","","","","","","","","","",""
"audio-keyboard-response","96","797370","0.0-4.0-1.0-0.25","2","0","my96dwstkkkhxmz","","null","","sounds/induction/left_rev/ti_SWS.wav","","null","","","","","","","","","","","","","","","","","","","","","","","","","","","","","","","",""
"html-button-response","97","798382","0.0-4.0-1.0-1.25","2","0","my96dwstkkkhxmz","","1011.1000000238419","","Was the sound coming from the left or the right?","0","","","1","INDUCTION-JUDGMENT","left","0","","","","","","","","","","","","","","","","","","","","","","","","","","",""
"html-keyboard-response","98","799385","0.0-4.0-1.0-2.25","2","0","my96dwstkkkhxmz","","null","","<p style=""color:#054d00;""><b>Correct!</b></p>","","null","","","","","","","","","","","","","","","","","","","","","","","","","","","","","","","",""
"audio-keyboard-response","99","800185","0.0-4.0-1.0-0.26","2","0","my96dwstkkkhxmz","","null","","sounds/induction/right_rev/me_SWS.wav","","null","","","","","","","","","","","","","","","","","","","","","","","","","","","","","","","",""
"html-button-response","100","801110","0.0-4.0-1.0-1.26","2","0","my96dwstkkkhxmz","","924.3000000715256","","Was the sound coming from the left or the right?","1","","","1","INDUCTION-JUDGMENT","right","1","","","","","","","","","","","","","","","","","","","","","","","","","","",""
"html-keyboard-response","101","802113","0.0-4.0-1.0-2.26","2","0","my96dwstkkkhxmz","","null","","<p style=""color:#054d00;""><b>Correct!</b></p>","","null","","","","","","","","","","","","","","","","","","","","","","","","","","","","","","","",""
"audio-keyboard-response","102","802919","0.0-4.0-1.0-0.27","2","0","my96dwstkkkhxmz","","null","","sounds/induction/right_rev/ge_SWS.wav","","null","","","","","","","","","","","","","","","","","","","","","","","","","","","","","","","",""
"html-button-response","103","803860","0.0-4.0-1.0-1.27","2","0","my96dwstkkkhxmz","","941","","Was the sound coming from the left or the right?","1","","","1","INDUCTION-JUDGMENT","right","1","","","","","","","","","","","","","","","","","","","","","","","","","","",""
"html-keyboard-response","104","804862","0.0-4.0-1.0-2.27","2","0","my96dwstkkkhxmz","","null","","<p style=""color:#054d00;""><b>Correct!</b></p>","","null","","","","","","","","","","","","","","","","","","","","","","","","","","","","","","","",""
"audio-keyboard-response","105","805664","0.0-4.0-1.0-0.28","2","0","my96dwstkkkhxmz","","null","","sounds/induction/right_rev/ge_SWS.wav","","null","","","","","","","","","","","","","","","","","","","","","","","","","","","","","","","",""
"html-button-response","106","806795","0.0-4.0-1.0-1.28","2","0","my96dwstkkkhxmz","","1130","","Was the sound coming from the left or the right?","1","","","1","INDUCTION-JUDGMENT","right","1","","","","","","","","","","","","","","","","","","","","","","","","","","",""
"html-keyboard-response","107","807799","0.0-4.0-1.0-2.28","2","0","my96dwstkkkhxmz","","null","","<p style=""color:#054d00;""><b>Correct!</b></p>","","null","","","","","","","","","","","","","","","","","","","","","","","","","","","","","","","",""
"audio-keyboard-response","108","808601","0.0-4.0-1.0-0.29","2","0","my96dwstkkkhxmz","","null","","sounds/induction/left_rev/su_SWS.wav","","null","","","","","","","","","","","","","","","","","","","","","","","","","","","","","","","",""
"html-button-response","109","810195","0.0-4.0-1.0-1.29","2","0","my96dwstkkkhxmz","","1593.0999999046326","","Was the sound coming from the left or the right?","0","","","1","INDUCTION-JUDGMENT","left","0","","","","","","","","","","","","","","","","","","","","","","","","","","",""
"html-keyboard-response","110","811196","0.0-4.0-1.0-2.29","2","0","my96dwstkkkhxmz","","null","","<p style=""color:#054d00;""><b>Correct!</b></p>","","null","","","","","","","","","","","","","","","","","","","","","","","","","","","","","","","",""
"audio-keyboard-response","111","812000","0.0-4.0-1.0-0.30","2","0","my96dwstkkkhxmz","","null","","sounds/induction/right_rev/ko_SWS.wav","","null","","","","","","","","","","","","","","","","","","","","","","","","","","","","","","","",""
"html-button-response","112","812941","0.0-4.0-1.0-1.30","2","0","my96dwstkkkhxmz","","940.1999999284744","","Was the sound coming from the left or the right?","1","","","1","INDUCTION-JUDGMENT","right","1","","","","","","","","","","","","","","","","","","","","","","","","","","",""
"html-keyboard-response","113","813946","0.0-4.0-1.0-2.30","2","0","my96dwstkkkhxmz","","null","","<p style=""color:#054d00;""><b>Correct!</b></p>","","null","","","","","","","","","","","","","","","","","","","","","","","","","","","","","","","",""
"audio-keyboard-response","114","814746","0.0-4.0-1.0-0.31","2","0","my96dwstkkkhxmz","","null","","sounds/induction/right_rev/fu_SWS.wav","","null","","","","","","","","","","","","","","","","","","","","","","","","","","","","","","","",""
"html-button-response","115","815708","0.0-4.0-1.0-1.31","2","0","my96dwstkkkhxmz","","961.2000000476837","","Was the sound coming from the left or the right?","1","","","1","INDUCTION-JUDGMENT","right","1","","","","","","","","","","","","","","","","","","","","","","","","","","",""
"html-keyboard-response","116","816711","0.0-4.0-1.0-2.31","2","0","my96dwstkkkhxmz","","null","","<p style=""color:#054d00;""><b>Correct!</b></p>","","null","","","","","","","","","","","","","","","","","","","","","","","","","","","","","","","",""
"audio-keyboard-response","117","817514","0.0-4.0-1.0-0.32","2","0","my96dwstkkkhxmz","","null","","sounds/induction/right_rev/me_SWS.wav","","null","","","","","","","","","","","","","","","","","","","","","","","","","","","","","","","",""
"html-button-response","118","818373","0.0-4.0-1.0-1.32","2","0","my96dwstkkkhxmz","","858.3000000715256","","Was the sound coming from the left or the right?","1","","","1","INDUCTION-JUDGMENT","right","1","","","","","","","","","","","","","","","","","","","","","","","","","","",""
"html-keyboard-response","119","819375","0.0-4.0-1.0-2.32","2","0","my96dwstkkkhxmz","","null","","<p style=""color:#054d00;""><b>Correct!</b></p>","","null","","","","","","","","","","","","","","","","","","","","","","","","","","","","","","","",""
"audio-keyboard-response","120","820178","0.0-4.0-1.0-0.33","2","0","my96dwstkkkhxmz","","null","","sounds/induction/right_rev/ni_SWS.wav","","null","","","","","","","","","","","","","","","","","","","","","","","","","","","","","","","",""
"html-button-response","121","821100","0.0-4.0-1.0-1.33","2","0","my96dwstkkkhxmz","","920.5","","Was the sound coming from the left or the right?","1","","","1","INDUCTION-JUDGMENT","right","1","","","","","","","","","","","","","","","","","","","","","","","","","","",""
"html-keyboard-response","122","822104","0.0-4.0-1.0-2.33","2","0","my96dwstkkkhxmz","","null","","<p style=""color:#054d00;""><b>Correct!</b></p>","","null","","","","","","","","","","","","","","","","","","","","","","","","","","","","","","","",""
"audio-keyboard-response","123","822906","0.0-4.0-1.0-0.34","2","0","my96dwstkkkhxmz","","null","","sounds/induction/left_rev/ge_SWS.wav","","null","","","","","","","","","","","","","","","","","","","","","","","","","","","","","","","",""
"html-button-response","124","823869","0.0-4.0-1.0-1.34","2","0","my96dwstkkkhxmz","","962.6000000238419","","Was the sound coming from the left or the right?","0","","","1","INDUCTION-JUDGMENT","left","0","","","","","","","","","","","","","","","","","","","","","","","","","","",""
"html-keyboard-response","125","824873","0.0-4.0-1.0-2.34","2","0","my96dwstkkkhxmz","","null","","<p style=""color:#054d00;""><b>Correct!</b></p>","","null","","","","","","","","","","","","","","","","","","","","","","","","","","","","","","","",""
"audio-keyboard-response","126","825675","0.0-4.0-1.0-0.35","2","0","my96dwstkkkhxmz","","null","","sounds/induction/right_rev/ta_SWS.wav","","null","","","","","","","","","","","","","","","","","","","","","","","","","","","","","","","",""
"html-button-response","127","826574","0.0-4.0-1.0-1.35","2","0","my96dwstkkkhxmz","","898.8000000715256","","Was the sound coming from the left or the right?","1","","","1","INDUCTION-JUDGMENT","right","1","","","","","","","","","","","","","","","","","","","","","","","","","","",""
"html-keyboard-response","128","827578","0.0-4.0-1.0-2.35","2","0","my96dwstkkkhxmz","","null","","<p style=""color:#054d00;""><b>Correct!</b></p>","","null","","","","","","","","","","","","","","","","","","","","","","","","","","","","","","","",""
"audio-keyboard-response","129","828380","0.0-4.0-1.0-0.36","2","0","my96dwstkkkhxmz","","null","","sounds/induction/left_rev/me_SWS.wav","","null","","","","","","","","","","","","","","","","","","","","","","","","","","","","","","","",""
"html-button-response","130","829515","0.0-4.0-1.0-1.36","2","0","my96dwstkkkhxmz","","1135.2000000476837","","Was the sound coming from the left or the right?","0","","","1","INDUCTION-JUDGMENT","left","0","","","","","","","","","","","","","","","","","","","","","","","","","","",""
"html-keyboard-response","131","830521","0.0-4.0-1.0-2.36","2","0","my96dwstkkkhxmz","","null","","<p style=""color:#054d00;""><b>Correct!</b></p>","","null","","","","","","","","","","","","","","","","","","","","","","","","","","","","","","","",""
"audio-keyboard-response","132","831328","0.0-4.0-1.0-0.37","2","0","my96dwstkkkhxmz","","null","","sounds/induction/right_rev/pu_SWS.wav","","null","","","","","","","","","","","","","","","","","","","","","","","","","","","","","","","",""
"html-button-response","133","832534","0.0-4.0-1.0-1.37","2","0","my96dwstkkkhxmz","","1205.3999999761581","","Was the sound coming from the left or the right?","1","","","1","INDUCTION-JUDGMENT","right","1","","","","","","","","","","","","","","","","","","","","","","","","","","",""
"html-keyboard-response","134","833539","0.0-4.0-1.0-2.37","2","0","my96dwstkkkhxmz","","null","","<p style=""color:#054d00;""><b>Correct!</b></p>","","null","","","","","","","","","","","","","","","","","","","","","","","","","","","","","","","",""
"audio-keyboard-response","135","834345","0.0-4.0-1.0-0.38","2","0","my96dwstkkkhxmz","","null","","sounds/induction/right_rev/ta_SWS.wav","","null","","","","","","","","","","","","","","","","","","","","","","","","","","","","","","","",""
"html-button-response","136","837389","0.0-4.0-1.0-1.38","2","0","my96dwstkkkhxmz","","3043.399999976158","","Was the sound coming from the left or the right?","0","","","0","INDUCTION-JUDGMENT","right","1","","","","","","","","","","","","","","","","","","","","","","","","","","",""
"html-keyboard-response","137","838393","0.0-4.0-1.0-2.38","2","0","my96dwstkkkhxmz","","null","","<p style=""color:#690000;""><b>Incorrect!</b></p>","","null","","","","","","","","","","","","","","","","","","","","","","","","","","","","","","","",""
"audio-keyboard-response","138","839204","0.0-4.0-1.0-0.39","2","0","my96dwstkkkhxmz","","null","","sounds/induction/right_rev/re_SWS.wav","","null","","","","","","","","","","","","","","","","","","","","","","","","","","","","","","","",""
"html-button-response","139","840696","0.0-4.0-1.0-1.39","2","0","my96dwstkkkhxmz","","1491","","Was the sound coming from the left or the right?","1","","","1","INDUCTION-JUDGMENT","right","1","","","","","","","","","","","","","","","","","","","","","","","","","","",""
"html-keyboard-response","140","841701","0.0-4.0-1.0-2.39","2","0","my96dwstkkkhxmz","","null","","<p style=""color:#054d00;""><b>Correct!</b></p>","","null","","","","","","","","","","","","","","","","","","","","","","","","","","","","","","","",""
"audio-keyboard-response","141","842500","0.0-4.0-1.0-0.40","2","0","my96dwstkkkhxmz","","null","","sounds/induction/left_rev/ru_SWS.wav","","null","","","","","","","","","","","","","","","","","","","","","","","","","","","","","","","",""
"html-button-response","142","843526","0.0-4.0-1.0-1.40","2","0","my96dwstkkkhxmz","","1025.5","","Was the sound coming from the left or the right?","0","","","1","INDUCTION-JUDGMENT","left","0","","","","","","","","","","","","","","","","","","","","","","","","","","",""
"html-keyboard-response","143","844529","0.0-4.0-1.0-2.40","2","0","my96dwstkkkhxmz","","null","","<p style=""color:#054d00;""><b>Correct!</b></p>","","null","","","","","","","","","","","","","","","","","","","","","","","","","","","","","","","",""
"audio-keyboard-response","144","845333","0.0-4.0-1.0-0.41","2","0","my96dwstkkkhxmz","","null","","sounds/induction/left_rev/ko_SWS.wav","","null","","","","","","","","","","","","","","","","","","","","","","","","","","","","","","","",""
"html-button-response","145","847254","0.0-4.0-1.0-1.41","2","0","my96dwstkkkhxmz","","1920.7000000476837","","Was the sound coming from the left or the right?","0","","","1","INDUCTION-JUDGMENT","left","0","","","","","","","","","","","","","","","","","","","","","","","","","","",""
"html-keyboard-response","146","848256","0.0-4.0-1.0-2.41","2","0","my96dwstkkkhxmz","","null","","<p style=""color:#054d00;""><b>Correct!</b></p>","","null","","","","","","","","","","","","","","","","","","","","","","","","","","","","","","","",""
"audio-keyboard-response","147","849056","0.0-4.0-1.0-0.42","2","0","my96dwstkkkhxmz","","null","","sounds/induction/left_rev/fu_SWS.wav","","null","","","","","","","","","","","","","","","","","","","","","","","","","","","","","","","",""
"html-button-response","148","849902","0.0-4.0-1.0-1.42","2","0","my96dwstkkkhxmz","","845.3000000715256","","Was the sound coming from the left or the right?","0","","","1","INDUCTION-JUDGMENT","left","0","","","","","","","","","","","","","","","","","","","","","","","","","","",""
"html-keyboard-response","149","850904","0.0-4.0-1.0-2.42","2","0","my96dwstkkkhxmz","","null","","<p style=""color:#054d00;""><b>Correct!</b></p>","","null","","","","","","","","","","","","","","","","","","","","","","","","","","","","","","","",""
"audio-keyboard-response","150","851703","0.0-4.0-1.0-0.43","2","0","my96dwstkkkhxmz","","null","","sounds/induction/left_rev/fu_SWS.wav","","null","","","","","","","","","","","","","","","","","","","","","","","","","","","","","","","",""
"html-button-response","151","852805","0.0-4.0-1.0-1.43","2","0","my96dwstkkkhxmz","","1100.8999999761581","","Was the sound coming from the left or the right?","0","","","1","INDUCTION-JUDGMENT","left","0","","","","","","","","","","","","","","","","","","","","","","","","","","",""
"html-keyboard-response","152","853806","0.0-4.0-1.0-2.43","2","0","my96dwstkkkhxmz","","null","","<p style=""color:#054d00;""><b>Correct!</b></p>","","null","","","","","","","","","","","","","","","","","","","","","","","","","","","","","","","",""
"audio-keyboard-response","153","854611","0.0-4.0-1.0-0.44","2","0","my96dwstkkkhxmz","","null","","sounds/induction/right_rev/su_SWS.wav","","null","","","","","","","","","","","","","","","","","","","","","","","","","","","","","","","",""
"html-button-response","154","855956","0.0-4.0-1.0-1.44","2","0","my96dwstkkkhxmz","","1344.5","","Was the sound coming from the left or the right?","1","","","1","INDUCTION-JUDGMENT","right","1","","","","","","","","","","","","","","","","","","","","","","","","","","",""
"html-keyboard-response","155","856958","0.0-4.0-1.0-2.44","2","0","my96dwstkkkhxmz","","null","","<p style=""color:#054d00;""><b>Correct!</b></p>","","null","","","","","","","","","","","","","","","","","","","","","","","","","","","","","","","",""
"audio-keyboard-response","156","857761","0.0-4.0-1.0-0.45","2","0","my96dwstkkkhxmz","","null","","sounds/induction/right_rev/ru_SWS.wav","","null","","","","","","","","","","","","","","","","","","","","","","","","","","","","","","","",""
"html-button-response","157","858702","0.0-4.0-1.0-1.45","2","0","my96dwstkkkhxmz","","939.7999999523163","","Was the sound coming from the left or the right?","1","","","1","INDUCTION-JUDGMENT","right","1","","","","","","","","","","","","","","","","","","","","","","","","","","",""
"html-keyboard-response","158","859704","0.0-4.0-1.0-2.45","2","0","my96dwstkkkhxmz","","null","","<p style=""color:#054d00;""><b>Correct!</b></p>","","null","","","","","","","","","","","","","","","","","","","","","","","","","","","","","","","",""
"audio-keyboard-response","159","860507","0.0-4.0-1.0-0.46","2","0","my96dwstkkkhxmz","","null","","sounds/induction/left_rev/ko_SWS.wav","","null","","","","","","","","","","","","","","","","","","","","","","","","","","","","","","","",""
"html-button-response","160","861470","0.0-4.0-1.0-1.46","2","0","my96dwstkkkhxmz","","962.2999999523163","","Was the sound coming from the left or the right?","0","","","1","INDUCTION-JUDGMENT","left","0","","","","","","","","","","","","","","","","","","","","","","","","","","",""
"html-keyboard-response","161","862473","0.0-4.0-1.0-2.46","2","0","my96dwstkkkhxmz","","null","","<p style=""color:#054d00;""><b>Correct!</b></p>","","null","","","","","","","","","","","","","","","","","","","","","","","","","","","","","","","",""
"audio-keyboard-response","162","863275","0.0-4.0-1.0-0.47","2","0","my96dwstkkkhxmz","","null","","sounds/induction/left_rev/ru_SWS.wav","","null","","","","","","","","","","","","","","","","","","","","","","","","","","","","","","","",""
"html-button-response","163","864993","0.0-4.0-1.0-1.47","2","0","my96dwstkkkhxmz","","1716.3000000715256","","Was the sound coming from the left or the right?","0","","","1","INDUCTION-JUDGMENT","left","0","","","","","","","","","","","","","","","","","","","","","","","","","","",""
"html-keyboard-response","164","865996","0.0-4.0-1.0-2.47","2","0","my96dwstkkkhxmz","","null","","<p style=""color:#054d00;""><b>Correct!</b></p>","","null","","","","","","","","","","","","","","","","","","","","","","","","","","","","","","","",""
"html-button-response","165","885393","0.0-5.0-0.0","2","0","my96dwstkkkhxmz","","18890.199999928474","","<p>Thank you for your answers.</p><p>You will now listen to similar sounds. The main difference is that the sounds will be longer.</p><p>Just as before, you will be asked to judge whether the sound was coming from the left or the right.</p><p>There are 10 of these longer sounds in total.","0","","","","","","","","","","","","","","","","","","","","","","","","","","","","","","","","",""
"audio-keyboard-response","166","888510","0.0-5.0-1.0-0.0","2","0","my96dwstkkkhxmz","","null","","sounds/sentences/left_rev/14_01_cfSWS.wav","","null","","","","","","","","","","","","","","","","","","","","","","","","","","","","","","","",""
"html-button-response","167","890270","0.0-5.0-1.0-1.0","2","0","my96dwstkkkhxmz","","1758.6999999284744","","Was the sound coming from the left or the right?","0","","","1","INDUCTION-JUDGMENT","left","0","","","","","","","","","","","","","","","","","","","","","","","","","","",""
"html-keyboard-response","168","891272","0.0-5.0-1.0-2.0","2","0","my96dwstkkkhxmz","","null","","<p style=""color:#054d00;""><b>Correct!</b></p>","","null","","","","","","","","","","","","","","","","","","","","","","","","","","","","","","","",""
"html-button-response","169","893806","0.0-5.0-1.0-3.0","2","0","my96dwstkkkhxmz","","2031","","<p>Press the button below when you are ready to continue.</p>","0","","","","","","","","","","","","","","","","","","","","","","","","","","","","","","","","",""
"audio-keyboard-response","170","896555","0.0-5.0-1.0-0.1","2","0","my96dwstkkkhxmz","","null","","sounds/sentences/right_rev/14_06_cfSWS.wav","","null","","","","","","","","","","","","","","","","","","","","","","","","","","","","","","","",""
"html-button-response","171","897571","0.0-5.0-1.0-1.1","2","0","my96dwstkkkhxmz","","1015.4000000953674","","Was the sound coming from the left or the right?","1","","","1","INDUCTION-JUDGMENT","right","1","","","","","","","","","","","","","","","","","","","","","","","","","","",""
"html-keyboard-response","172","898572","0.0-5.0-1.0-2.1","2","0","my96dwstkkkhxmz","","null","","<p style=""color:#054d00;""><b>Correct!</b></p>","","null","","","","","","","","","","","","","","","","","","","","","","","","","","","","","","","",""
"html-button-response","173","900184","0.0-5.0-1.0-3.1","2","0","my96dwstkkkhxmz","","1109.6000000238419","","<p>Press the button below when you are ready to continue.</p>","0","","","","","","","","","","","","","","","","","","","","","","","","","","","","","","","","",""
"audio-keyboard-response","174","903077","0.0-5.0-1.0-0.2","2","0","my96dwstkkkhxmz","","null","","sounds/sentences/right_rev/14_07_cfSWS.wav","","null","","","","","","","","","","","","","","","","","","","","","","","","","","","","","","","",""
"html-button-response","175","903781","0.0-5.0-1.0-1.2","2","0","my96dwstkkkhxmz","","702.9000000953674","","Was the sound coming from the left or the right?","1","","","1","INDUCTION-JUDGMENT","right","1","","","","","","","","","","","","","","","","","","","","","","","","","","",""
"html-keyboard-response","176","904785","0.0-5.0-1.0-2.2","2","0","my96dwstkkkhxmz","","null","","<p style=""color:#054d00;""><b>Correct!</b></p>","","null","","","","","","","","","","","","","","","","","","","","","","","","","","","","","","","",""
"html-button-response","177","906500","0.0-5.0-1.0-3.2","2","0","my96dwstkkkhxmz","","1210.1999999284744","","<p>Press the button below when you are ready to continue.</p>","0","","","","","","","","","","","","","","","","","","","","","","","","","","","","","","","","",""
"audio-keyboard-response","178","909523","0.0-5.0-1.0-0.3","2","0","my96dwstkkkhxmz","","null","","sounds/sentences/right_rev/14_10_cfSWS.wav","","null","","","","","","","","","","","","","","","","","","","","","","","","","","","","","","","",""
"html-button-response","179","910198","0.0-5.0-1.0-1.3","2","0","my96dwstkkkhxmz","","673.6000000238419","","Was the sound coming from the left or the right?","1","","","1","INDUCTION-JUDGMENT","right","1","","","","","","","","","","","","","","","","","","","","","","","","","","",""
"html-keyboard-response","180","911201","0.0-5.0-1.0-2.3","2","0","my96dwstkkkhxmz","","null","","<p style=""color:#054d00;""><b>Correct!</b></p>","","null","","","","","","","","","","","","","","","","","","","","","","","","","","","","","","","",""
"html-button-response","181","912191","0.0-5.0-1.0-3.3","2","0","my96dwstkkkhxmz","","484.1999999284744","","<p>Press the button below when you are ready to continue.</p>","0","","","","","","","","","","","","","","","","","","","","","","","","","","","","","","","","",""
"audio-keyboard-response","182","914771","0.0-5.0-1.0-0.4","2","0","my96dwstkkkhxmz","","null","","sounds/sentences/left_rev/14_03_cfSWS.wav","","null","","","","","","","","","","","","","","","","","","","","","","","","","","","","","","","",""
"html-button-response","183","915618","0.0-5.0-1.0-1.4","2","0","my96dwstkkkhxmz","","847.2999999523163","","Was the sound coming from the left or the right?","0","","","1","INDUCTION-JUDGMENT","left","0","","","","","","","","","","","","","","","","","","","","","","","","","","",""
"html-keyboard-response","184","916623","0.0-5.0-1.0-2.4","2","0","my96dwstkkkhxmz","","null","","<p style=""color:#054d00;""><b>Correct!</b></p>","","null","","","","","","","","","","","","","","","","","","","","","","","","","","","","","","","",""
"html-button-response","185","918208","0.0-5.0-1.0-3.4","2","0","my96dwstkkkhxmz","","1080.2000000476837","","<p>Press the button below when you are ready to continue.</p>","0","","","","","","","","","","","","","","","","","","","","","","","","","","","","","","","","",""
"audio-keyboard-response","186","921026","0.0-5.0-1.0-0.5","2","0","my96dwstkkkhxmz","","null","","sounds/sentences/left_rev/14_02_cfSWS.wav","","null","","","","","","","","","","","","","","","","","","","","","","","","","","","","","","","",""
"html-button-response","187","921749","0.0-5.0-1.0-1.5","2","0","my96dwstkkkhxmz","","722.6999999284744","","Was the sound coming from the left or the right?","0","","","1","INDUCTION-JUDGMENT","left","0","","","","","","","","","","","","","","","","","","","","","","","","","","",""
"html-keyboard-response","188","922753","0.0-5.0-1.0-2.5","2","0","my96dwstkkkhxmz","","null","","<p style=""color:#054d00;""><b>Correct!</b></p>","","null","","","","","","","","","","","","","","","","","","","","","","","","","","","","","","","",""
"html-button-response","189","923802","0.0-5.0-1.0-3.5","2","0","my96dwstkkkhxmz","","543.1999999284744","","<p>Press the button below when you are ready to continue.</p>","0","","","","","","","","","","","","","","","","","","","","","","","","","","","","","","","","",""
"audio-keyboard-response","190","926534","0.0-5.0-1.0-0.6","2","0","my96dwstkkkhxmz","","null","","sounds/sentences/right_rev/14_09_cfSWS.wav","","null","","","","","","","","","","","","","","","","","","","","","","","","","","","","","","","",""
"html-button-response","191","927166","0.0-5.0-1.0-1.6","2","0","my96dwstkkkhxmz","","631.6999999284744","","Was the sound coming from the left or the right?","1","","","1","INDUCTION-JUDGMENT","right","1","","","","","","","","","","","","","","","","","","","","","","","","","","",""
"html-keyboard-response","192","928170","0.0-5.0-1.0-2.6","2","0","my96dwstkkkhxmz","","null","","<p style=""color:#054d00;""><b>Correct!</b></p>","","null","","","","","","","","","","","","","","","","","","","","","","","","","","","","","","","",""
"html-button-response","193","929821","0.0-5.0-1.0-3.6","2","0","my96dwstkkkhxmz","","1145.5","","<p>Press the button below when you are ready to continue.</p>","0","","","","","","","","","","","","","","","","","","","","","","","","","","","","","","","","",""
"audio-keyboard-response","194","932372","0.0-5.0-1.0-0.7","2","0","my96dwstkkkhxmz","","null","","sounds/sentences/left_rev/14_04_cfSWS.wav","","null","","","","","","","","","","","","","","","","","","","","","","","","","","","","","","","",""
"html-button-response","195","933185","0.0-5.0-1.0-1.7","2","0","my96dwstkkkhxmz","","812.3000000715256","","Was the sound coming from the left or the right?","0","","","1","INDUCTION-JUDGMENT","left","0","","","","","","","","","","","","","","","","","","","","","","","","","","",""
"html-keyboard-response","196","934189","0.0-5.0-1.0-2.7","2","0","my96dwstkkkhxmz","","null","","<p style=""color:#054d00;""><b>Correct!</b></p>","","null","","","","","","","","","","","","","","","","","","","","","","","","","","","","","","","",""
"html-button-response","197","935675","0.0-5.0-1.0-3.7","2","0","my96dwstkkkhxmz","","980.2000000476837","","<p>Press the button below when you are ready to continue.</p>","0","","","","","","","","","","","","","","","","","","","","","","","","","","","","","","","","",""
"audio-keyboard-response","198","938430","0.0-5.0-1.0-0.8","2","0","my96dwstkkkhxmz","","null","","sounds/sentences/right_rev/14_08_cfSWS.wav","","null","","","","","","","","","","","","","","","","","","","","","","","","","","","","","","","",""
"html-button-response","199","940119","0.0-5.0-1.0-1.8","2","0","my96dwstkkkhxmz","","1688.1999999284744","","Was the sound coming from the left or the right?","1","","","1","INDUCTION-JUDGMENT","right","1","","","","","","","","","","","","","","","","","","","","","","","","","","",""
"html-keyboard-response","200","941121","0.0-5.0-1.0-2.8","2","0","my96dwstkkkhxmz","","null","","<p style=""color:#054d00;""><b>Correct!</b></p>","","null","","","","","","","","","","","","","","","","","","","","","","","","","","","","","","","",""
"html-button-response","201","942395","0.0-5.0-1.0-3.8","2","0","my96dwstkkkhxmz","","768.5","","<p>Press the button below when you are ready to continue.</p>","0","","","","","","","","","","","","","","","","","","","","","","","","","","","","","","","","",""
"audio-keyboard-response","202","945386","0.0-5.0-1.0-0.9","2","0","my96dwstkkkhxmz","","null","","sounds/sentences/left_rev/14_05_cfSWS.wav","","null","","","","","","","","","","","","","","","","","","","","","","","","","","","","","","","",""
"html-button-response","203","946920","0.0-5.0-1.0-1.9","2","0","my96dwstkkkhxmz","","1533.0999999046326","","Was the sound coming from the left or the right?","0","","","1","INDUCTION-JUDGMENT","left","0","","","","","","","","","","","","","","","","","","","","","","","","","","",""
"html-keyboard-response","204","947925","0.0-5.0-1.0-2.9","2","0","my96dwstkkkhxmz","","null","","<p style=""color:#054d00;""><b>Correct!</b></p>","","null","","","","","","","","","","","","","","","","","","","","","","","","","","","","","","","",""
"html-button-response","205","949367","0.0-5.0-1.0-3.9","2","0","my96dwstkkkhxmz","","939.8000000715256","","<p>Press the button below when you are ready to continue.</p>","0","","","","","","","","","","","","","","","","","","","","","","","","","","","","","","","","",""
"html-keyboard-response","206","980299","0.0-6.0-0.0","2","0","my96dwstkkkhxmz","","30428.199999928474","","<p>In this part of the study, you will hear sounds similar to those you just heard.</p><p>Please focus on these sounds, as you may be asked questions about them later.</p><p>Occasionally, the sounds will pause for up to two seconds. When this happens, please press SPACEBAR as quickly as you can.</br>This helps ensure that you are paying attention to the sounds.</p><p>This part of the study will take about 12 minutes to complete, and you will be given the opportunity to take a couple of short breaks every few minutes.</p><p><strong>Press SPACEBAR to begin</strong></p>","","32","","","","","","","","","","","","","","","","","","","","","","","","","","","","","","","",""
"html-keyboard-response","207","981300","0.0-6.0-1.0-0.0","2","0","my96dwstkkkhxmz","","null","","<p style=""font-size: 40px;"">+</p>","","null","","","","","","","","","","","","","","","","","","","","","","","","","","","","","","","",""
"html-keyboard-response","208","1166309","0.0-6.0-1.0-1.0","2","0","my96dwstkkkhxmz","","null","","","","null","","","SL-TRAIN","","","0","1391.2000000476837","1054.6000000238419","sounds/B/TRAIN/SEQ__12.mp3","2","","","","","","","","","","","","","","","","","","","","","",""
"html-button-response","209","1170702","0.0-6.0-1.0-2.0","2","0","my96dwstkkkhxmz","","4391.600000023842","","<p>You may take a short break if you wish.</p>","0","","","","","","","","","","","","","","","","","","","","","","","","","","","","","","","","",""
"html-keyboard-response","210","1171703","0.0-6.0-1.0-3.0","2","0","my96dwstkkkhxmz","","null","","<p style=""font-size: 40px;"">+</p>","","null","","","","","","","","","","","","","","","","","","","","","","","","","","","","","","","",""
"html-keyboard-response","211","1356714","0.0-6.0-1.0-4.0","2","0","my96dwstkkkhxmz","","null","","","","null","","","SL-TRAIN","","","0","1621.5999999046326","912.2999999523163","sounds/B/TRAIN/SEQ__01.mp3","4","","","","","","","","","","","","","","","","","","","","","",""
"html-button-response","212","1360040","0.0-6.0-1.0-5.0","2","0","my96dwstkkkhxmz","","3325.2000000476837","","<p>You may take a short break if you wish.</p>","0","","","","","","","","","","","","","","","","","","","","","","","","","","","","","","","","",""
"html-keyboard-response","213","1361043","0.0-6.0-1.0-6.0","2","0","my96dwstkkkhxmz","","null","","<p style=""font-size: 40px;"">+</p>","","null","","","","","","","","","","","","","","","","","","","","","","","","","","","","","","","",""
"html-keyboard-response","214","1546062","0.0-6.0-1.0-7.0","2","0","my96dwstkkkhxmz","","null","","","","null","","","SL-TRAIN","","","0","1442","1304.3999999761581","sounds/B/TRAIN/SEQ__11.mp3","8","","","","","","","","","","","","","","","","","","","","","",""
"html-button-response","215","1563674","0.0-6.0-1.0-8.0","2","0","my96dwstkkkhxmz","","17609.799999952316","","<p>You may take a short break if you wish.</p>","0","","","","","","","","","","","","","","","","","","","","","","","","","","","","","","","","",""
"html-keyboard-response","216","1564680","0.0-6.0-1.0-9.0","2","0","my96dwstkkkhxmz","","null","","<p style=""font-size: 40px;"">+</p>","","null","","","","","","","","","","","","","","","","","","","","","","","","","","","","","","","",""
"html-keyboard-response","217","1749691","0.0-6.0-1.0-10.0","2","0","my96dwstkkkhxmz","","null","","","","null","","","SL-TRAIN","","","0","1180.4000000953674","1556.5","sounds/B/TRAIN/SEQ__09.mp3","14","","","","","","","","","","","","","","","","","","","","","",""
"html-button-response","218","1897685","0.0-6.0-1.0-11.0","2","0","my96dwstkkkhxmz","","147989.10000002384","","<p>You may take a short break if you wish.</p>","0","","","","","","","","","","","","","","","","","","","","","","","","","","","","","","","","",""
"html-button-response","219","1910777","0.0-7.0-0.0","2","0","my96dwstkkkhxmz","","13090.799999952316","","<p>Welcome to the second part of the study. This is a <u>familiarity task</u>.</p><p>You will now hear short sounds and will be asked to rate how familiar they sound to you <b>based on what you heard in the previous part of the study</b>.</p><p>You will rate 12 sounds in total.</p>","0","","","","","","","","","","","","","","","","","","","","","","","","","","","","","","","","",""
"html-keyboard-response","220","1911782","0.0-7.0-1.0-0.0","2","0","my96dwstkkkhxmz","","null","","","","null","","","","","","","","","","","","","","","","","","","","","","","","","","","","","","","",""
"audio-keyboard-response","221","1913239","0.0-7.0-1.0-1.0","2","0","my96dwstkkkhxmz","","null","","sounds/B/FAM/W004.mp3","","null","","","","","","","","","","","","","","","","","","","","","","","","","","","","","","","",""
"html-keyboard-response","222","1919525","0.0-7.0-1.0-2.0","2","0","my96dwstkkkhxmz","","5779.600000023842","","<p>How familiar did this sound to you?</p><p>1&nbsp;&nbsp;&nbsp;&nbsp;&nbsp;&nbsp;&nbsp;&nbsp;&nbsp;&nbsp;&nbsp;&nbsp;&nbsp;&nbsp;&nbsp;&nbsp;&nbsp;&nbsp;&nbsp;2&nbsp;&nbsp;&nbsp;&nbsp;&nbsp;&nbsp;&nbsp;&nbsp;&nbsp;&nbsp;&nbsp;&nbsp;&nbsp;&nbsp;&nbsp;&nbsp;&nbsp;&nbsp;&nbsp;3&nbsp;&nbsp;&nbsp;&nbsp;&nbsp;&nbsp;&nbsp;&nbsp;&nbsp;&nbsp;&nbsp;&nbsp;&nbsp;&nbsp;&nbsp;&nbsp;&nbsp;&nbsp;&nbsp;4</p><p style=""font-size:14px"">Not at all familiar&nbsp;&nbsp;&nbsp;&nbsp;A little familiar&nbsp;&nbsp;&nbsp;Moderately familiar&nbsp;&nbsp;&nbsp;Extremely familiar</p><p>(press the corresponding number on your keyboard)</p>","","51","","","FAM-RESPONSE","","","","","","","","sounds/B/FAM/W004.mp3","word","","","","","","","","","","","","","","","","","","","",""
"html-keyboard-response","223","1921529","0.0-7.0-1.0-0.1","2","0","my96dwstkkkhxmz","","null","","","","null","","","","","","","","","","","","","","","","","","","","","","","","","","","","","","","",""
"audio-keyboard-response","224","1922466","0.0-7.0-1.0-1.1","2","0","my96dwstkkkhxmz","","null","","sounds/B/FAM/P001.mp3","","null","","","","","","","","","","","","","","","","","","","","","","","","","","","","","","","",""
"html-keyboard-response","225","1924289","0.0-7.0-1.0-2.1","2","0","my96dwstkkkhxmz","","1319.3999999761581","","<p>How familiar did this sound to you?</p><p>1&nbsp;&nbsp;&nbsp;&nbsp;&nbsp;&nbsp;&nbsp;&nbsp;&nbsp;&nbsp;&nbsp;&nbsp;&nbsp;&nbsp;&nbsp;&nbsp;&nbsp;&nbsp;&nbsp;2&nbsp;&nbsp;&nbsp;&nbsp;&nbsp;&nbsp;&nbsp;&nbsp;&nbsp;&nbsp;&nbsp;&nbsp;&nbsp;&nbsp;&nbsp;&nbsp;&nbsp;&nbsp;&nbsp;3&nbsp;&nbsp;&nbsp;&nbsp;&nbsp;&nbsp;&nbsp;&nbsp;&nbsp;&nbsp;&nbsp;&nbsp;&nbsp;&nbsp;&nbsp;&nbsp;&nbsp;&nbsp;&nbsp;4</p><p style=""font-size:14px"">Not at all familiar&nbsp;&nbsp;&nbsp;&nbsp;A little familiar&nbsp;&nbsp;&nbsp;Moderately familiar&nbsp;&nbsp;&nbsp;Extremely familiar</p><p>(press the corresponding number on your keyboard)</p>","","52","","","FAM-RESPONSE","","","","","","","","sounds/B/FAM/P001.mp3","partword","","","","","","","","","","","","","","","","","","","",""
"html-keyboard-response","226","1926295","0.0-7.0-1.0-0.2","2","0","my96dwstkkkhxmz","","null","","","","null","","","","","","","","","","","","","","","","","","","","","","","","","","","","","","","",""
"audio-keyboard-response","227","1927232","0.0-7.0-1.0-1.2","2","0","my96dwstkkkhxmz","","null","","sounds/B/FAM/N004.mp3","","null","","","","","","","","","","","","","","","","","","","","","","","","","","","","","","","",""
"html-keyboard-response","228","1928406","0.0-7.0-1.0-2.2","2","0","my96dwstkkkhxmz","","670.9000000953674","","<p>How familiar did this sound to you?</p><p>1&nbsp;&nbsp;&nbsp;&nbsp;&nbsp;&nbsp;&nbsp;&nbsp;&nbsp;&nbsp;&nbsp;&nbsp;&nbsp;&nbsp;&nbsp;&nbsp;&nbsp;&nbsp;&nbsp;2&nbsp;&nbsp;&nbsp;&nbsp;&nbsp;&nbsp;&nbsp;&nbsp;&nbsp;&nbsp;&nbsp;&nbsp;&nbsp;&nbsp;&nbsp;&nbsp;&nbsp;&nbsp;&nbsp;3&nbsp;&nbsp;&nbsp;&nbsp;&nbsp;&nbsp;&nbsp;&nbsp;&nbsp;&nbsp;&nbsp;&nbsp;&nbsp;&nbsp;&nbsp;&nbsp;&nbsp;&nbsp;&nbsp;4</p><p style=""font-size:14px"">Not at all familiar&nbsp;&nbsp;&nbsp;&nbsp;A little familiar&nbsp;&nbsp;&nbsp;Moderately familiar&nbsp;&nbsp;&nbsp;Extremely familiar</p><p>(press the corresponding number on your keyboard)</p>","","52","","","FAM-RESPONSE","","","","","","","","sounds/B/FAM/N004.mp3","nonword","","","","","","","","","","","","","","","","","","","",""
"html-keyboard-response","229","1930411","0.0-7.0-1.0-0.3","2","0","my96dwstkkkhxmz","","null","","","","null","","","","","","","","","","","","","","","","","","","","","","","","","","","","","","","",""
"audio-keyboard-response","230","1931350","0.0-7.0-1.0-1.3","2","0","my96dwstkkkhxmz","","null","","sounds/B/FAM/N001.mp3","","null","","","","","","","","","","","","","","","","","","","","","","","","","","","","","","","",""
"html-keyboard-response","231","1932970","0.0-7.0-1.0-2.3","2","0","my96dwstkkkhxmz","","1118.8999999761581","","<p>How familiar did this sound to you?</p><p>1&nbsp;&nbsp;&nbsp;&nbsp;&nbsp;&nbsp;&nbsp;&nbsp;&nbsp;&nbsp;&nbsp;&nbsp;&nbsp;&nbsp;&nbsp;&nbsp;&nbsp;&nbsp;&nbsp;2&nbsp;&nbsp;&nbsp;&nbsp;&nbsp;&nbsp;&nbsp;&nbsp;&nbsp;&nbsp;&nbsp;&nbsp;&nbsp;&nbsp;&nbsp;&nbsp;&nbsp;&nbsp;&nbsp;3&nbsp;&nbsp;&nbsp;&nbsp;&nbsp;&nbsp;&nbsp;&nbsp;&nbsp;&nbsp;&nbsp;&nbsp;&nbsp;&nbsp;&nbsp;&nbsp;&nbsp;&nbsp;&nbsp;4</p><p style=""font-size:14px"">Not at all familiar&nbsp;&nbsp;&nbsp;&nbsp;A little familiar&nbsp;&nbsp;&nbsp;Moderately familiar&nbsp;&nbsp;&nbsp;Extremely familiar</p><p>(press the corresponding number on your keyboard)</p>","","51","","","FAM-RESPONSE","","","","","","","","sounds/B/FAM/N001.mp3","nonword","","","","","","","","","","","","","","","","","","","",""
"html-keyboard-response","232","1934976","0.0-7.0-1.0-0.4","2","0","my96dwstkkkhxmz","","null","","","","null","","","","","","","","","","","","","","","","","","","","","","","","","","","","","","","",""
"audio-keyboard-response","233","1935920","0.0-7.0-1.0-1.4","2","0","my96dwstkkkhxmz","","null","","sounds/B/FAM/P003.mp3","","null","","","","","","","","","","","","","","","","","","","","","","","","","","","","","","","",""
"html-keyboard-response","234","1936886","0.0-7.0-1.0-2.4","2","0","my96dwstkkkhxmz","","460.40000009536743","","<p>How familiar did this sound to you?</p><p>1&nbsp;&nbsp;&nbsp;&nbsp;&nbsp;&nbsp;&nbsp;&nbsp;&nbsp;&nbsp;&nbsp;&nbsp;&nbsp;&nbsp;&nbsp;&nbsp;&nbsp;&nbsp;&nbsp;2&nbsp;&nbsp;&nbsp;&nbsp;&nbsp;&nbsp;&nbsp;&nbsp;&nbsp;&nbsp;&nbsp;&nbsp;&nbsp;&nbsp;&nbsp;&nbsp;&nbsp;&nbsp;&nbsp;3&nbsp;&nbsp;&nbsp;&nbsp;&nbsp;&nbsp;&nbsp;&nbsp;&nbsp;&nbsp;&nbsp;&nbsp;&nbsp;&nbsp;&nbsp;&nbsp;&nbsp;&nbsp;&nbsp;4</p><p style=""font-size:14px"">Not at all familiar&nbsp;&nbsp;&nbsp;&nbsp;A little familiar&nbsp;&nbsp;&nbsp;Moderately familiar&nbsp;&nbsp;&nbsp;Extremely familiar</p><p>(press the corresponding number on your keyboard)</p>","","52","","","FAM-RESPONSE","","","","","","","","sounds/B/FAM/P003.mp3","partword","","","","","","","","","","","","","","","","","","","",""
"html-keyboard-response","235","1938892","0.0-7.0-1.0-0.5","2","0","my96dwstkkkhxmz","","null","","","","null","","","","","","","","","","","","","","","","","","","","","","","","","","","","","","","",""
"audio-keyboard-response","236","1939830","0.0-7.0-1.0-1.5","2","0","my96dwstkkkhxmz","","null","","sounds/B/FAM/P002.mp3","","null","","","","","","","","","","","","","","","","","","","","","","","","","","","","","","","",""
"html-keyboard-response","237","1940656","0.0-7.0-1.0-2.5","2","0","my96dwstkkkhxmz","","323.6999999284744","","<p>How familiar did this sound to you?</p><p>1&nbsp;&nbsp;&nbsp;&nbsp;&nbsp;&nbsp;&nbsp;&nbsp;&nbsp;&nbsp;&nbsp;&nbsp;&nbsp;&nbsp;&nbsp;&nbsp;&nbsp;&nbsp;&nbsp;2&nbsp;&nbsp;&nbsp;&nbsp;&nbsp;&nbsp;&nbsp;&nbsp;&nbsp;&nbsp;&nbsp;&nbsp;&nbsp;&nbsp;&nbsp;&nbsp;&nbsp;&nbsp;&nbsp;3&nbsp;&nbsp;&nbsp;&nbsp;&nbsp;&nbsp;&nbsp;&nbsp;&nbsp;&nbsp;&nbsp;&nbsp;&nbsp;&nbsp;&nbsp;&nbsp;&nbsp;&nbsp;&nbsp;4</p><p style=""font-size:14px"">Not at all familiar&nbsp;&nbsp;&nbsp;&nbsp;A little familiar&nbsp;&nbsp;&nbsp;Moderately familiar&nbsp;&nbsp;&nbsp;Extremely familiar</p><p>(press the corresponding number on your keyboard)</p>","","52","","","FAM-RESPONSE","","","","","","","","sounds/B/FAM/P002.mp3","partword","","","","","","","","","","","","","","","","","","","",""
"html-keyboard-response","238","1942666","0.0-7.0-1.0-0.6","2","0","my96dwstkkkhxmz","","null","","","","null","","","","","","","","","","","","","","","","","","","","","","","","","","","","","","","",""
"audio-keyboard-response","239","1943606","0.0-7.0-1.0-1.6","2","0","my96dwstkkkhxmz","","null","","sounds/B/FAM/W001.mp3","","null","","","","","","","","","","","","","","","","","","","","","","","","","","","","","","","",""
"html-keyboard-response","240","1944266","0.0-7.0-1.0-2.6","2","0","my96dwstkkkhxmz","","154.19999992847443","","<p>How familiar did this sound to you?</p><p>1&nbsp;&nbsp;&nbsp;&nbsp;&nbsp;&nbsp;&nbsp;&nbsp;&nbsp;&nbsp;&nbsp;&nbsp;&nbsp;&nbsp;&nbsp;&nbsp;&nbsp;&nbsp;&nbsp;2&nbsp;&nbsp;&nbsp;&nbsp;&nbsp;&nbsp;&nbsp;&nbsp;&nbsp;&nbsp;&nbsp;&nbsp;&nbsp;&nbsp;&nbsp;&nbsp;&nbsp;&nbsp;&nbsp;3&nbsp;&nbsp;&nbsp;&nbsp;&nbsp;&nbsp;&nbsp;&nbsp;&nbsp;&nbsp;&nbsp;&nbsp;&nbsp;&nbsp;&nbsp;&nbsp;&nbsp;&nbsp;&nbsp;4</p><p style=""font-size:14px"">Not at all familiar&nbsp;&nbsp;&nbsp;&nbsp;A little familiar&nbsp;&nbsp;&nbsp;Moderately familiar&nbsp;&nbsp;&nbsp;Extremely familiar</p><p>(press the corresponding number on your keyboard)</p>","","52","","","FAM-RESPONSE","","","","","","","","sounds/B/FAM/W001.mp3","word","","","","","","","","","","","","","","","","","","","",""
"html-keyboard-response","241","1946270","0.0-7.0-1.0-0.7","2","0","my96dwstkkkhxmz","","null","","","","null","","","","","","","","","","","","","","","","","","","","","","","","","","","","","","","",""
"audio-keyboard-response","242","1947208","0.0-7.0-1.0-1.7","2","0","my96dwstkkkhxmz","","null","","sounds/B/FAM/N002.mp3","","null","","","","","","","","","","","","","","","","","","","","","","","","","","","","","","","",""
"html-keyboard-response","243","1948844","0.0-7.0-1.0-2.7","2","0","my96dwstkkkhxmz","","1131.6000000238419","","<p>How familiar did this sound to you?</p><p>1&nbsp;&nbsp;&nbsp;&nbsp;&nbsp;&nbsp;&nbsp;&nbsp;&nbsp;&nbsp;&nbsp;&nbsp;&nbsp;&nbsp;&nbsp;&nbsp;&nbsp;&nbsp;&nbsp;2&nbsp;&nbsp;&nbsp;&nbsp;&nbsp;&nbsp;&nbsp;&nbsp;&nbsp;&nbsp;&nbsp;&nbsp;&nbsp;&nbsp;&nbsp;&nbsp;&nbsp;&nbsp;&nbsp;3&nbsp;&nbsp;&nbsp;&nbsp;&nbsp;&nbsp;&nbsp;&nbsp;&nbsp;&nbsp;&nbsp;&nbsp;&nbsp;&nbsp;&nbsp;&nbsp;&nbsp;&nbsp;&nbsp;4</p><p style=""font-size:14px"">Not at all familiar&nbsp;&nbsp;&nbsp;&nbsp;A little familiar&nbsp;&nbsp;&nbsp;Moderately familiar&nbsp;&nbsp;&nbsp;Extremely familiar</p><p>(press the corresponding number on your keyboard)</p>","","51","","","FAM-RESPONSE","","","","","","","","sounds/B/FAM/N002.mp3","nonword","","","","","","","","","","","","","","","","","","","",""
"html-keyboard-response","244","1950851","0.0-7.0-1.0-0.8","2","0","my96dwstkkkhxmz","","null","","","","null","","","","","","","","","","","","","","","","","","","","","","","","","","","","","","","",""
"audio-keyboard-response","245","1951790","0.0-7.0-1.0-1.8","2","0","my96dwstkkkhxmz","","null","","sounds/B/FAM/W003.mp3","","null","","","","","","","","","","","","","","","","","","","","","","","","","","","","","","","",""
"html-keyboard-response","246","1952830","0.0-7.0-1.0-2.8","2","0","my96dwstkkkhxmz","","539.2000000476837","","<p>How familiar did this sound to you?</p><p>1&nbsp;&nbsp;&nbsp;&nbsp;&nbsp;&nbsp;&nbsp;&nbsp;&nbsp;&nbsp;&nbsp;&nbsp;&nbsp;&nbsp;&nbsp;&nbsp;&nbsp;&nbsp;&nbsp;2&nbsp;&nbsp;&nbsp;&nbsp;&nbsp;&nbsp;&nbsp;&nbsp;&nbsp;&nbsp;&nbsp;&nbsp;&nbsp;&nbsp;&nbsp;&nbsp;&nbsp;&nbsp;&nbsp;3&nbsp;&nbsp;&nbsp;&nbsp;&nbsp;&nbsp;&nbsp;&nbsp;&nbsp;&nbsp;&nbsp;&nbsp;&nbsp;&nbsp;&nbsp;&nbsp;&nbsp;&nbsp;&nbsp;4</p><p style=""font-size:14px"">Not at all familiar&nbsp;&nbsp;&nbsp;&nbsp;A little familiar&nbsp;&nbsp;&nbsp;Moderately familiar&nbsp;&nbsp;&nbsp;Extremely familiar</p><p>(press the corresponding number on your keyboard)</p>","","52","","","FAM-RESPONSE","","","","","","","","sounds/B/FAM/W003.mp3","word","","","","","","","","","","","","","","","","","","","",""
"html-keyboard-response","247","1954839","0.0-7.0-1.0-0.9","2","0","my96dwstkkkhxmz","","null","","","","null","","","","","","","","","","","","","","","","","","","","","","","","","","","","","","","",""
"audio-keyboard-response","248","1955780","0.0-7.0-1.0-1.9","2","0","my96dwstkkkhxmz","","null","","sounds/B/FAM/W002.mp3","","null","","","","","","","","","","","","","","","","","","","","","","","","","","","","","","","",""
"html-keyboard-response","249","1956611","0.0-7.0-1.0-2.9","2","0","my96dwstkkkhxmz","","326.2999999523163","","<p>How familiar did this sound to you?</p><p>1&nbsp;&nbsp;&nbsp;&nbsp;&nbsp;&nbsp;&nbsp;&nbsp;&nbsp;&nbsp;&nbsp;&nbsp;&nbsp;&nbsp;&nbsp;&nbsp;&nbsp;&nbsp;&nbsp;2&nbsp;&nbsp;&nbsp;&nbsp;&nbsp;&nbsp;&nbsp;&nbsp;&nbsp;&nbsp;&nbsp;&nbsp;&nbsp;&nbsp;&nbsp;&nbsp;&nbsp;&nbsp;&nbsp;3&nbsp;&nbsp;&nbsp;&nbsp;&nbsp;&nbsp;&nbsp;&nbsp;&nbsp;&nbsp;&nbsp;&nbsp;&nbsp;&nbsp;&nbsp;&nbsp;&nbsp;&nbsp;&nbsp;4</p><p style=""font-size:14px"">Not at all familiar&nbsp;&nbsp;&nbsp;&nbsp;A little familiar&nbsp;&nbsp;&nbsp;Moderately familiar&nbsp;&nbsp;&nbsp;Extremely familiar</p><p>(press the corresponding number on your keyboard)</p>","","52","","","FAM-RESPONSE","","","","","","","","sounds/B/FAM/W002.mp3","word","","","","","","","","","","","","","","","","","","","",""
"html-keyboard-response","250","1958619","0.0-7.0-1.0-0.10","2","0","my96dwstkkkhxmz","","null","","","","null","","","","","","","","","","","","","","","","","","","","","","","","","","","","","","","",""
"audio-keyboard-response","251","1959557","0.0-7.0-1.0-1.10","2","0","my96dwstkkkhxmz","","null","","sounds/B/FAM/P004.mp3","","null","","","","","","","","","","","","","","","","","","","","","","","","","","","","","","","",""
"html-keyboard-response","252","1960822","0.0-7.0-1.0-2.10","2","0","my96dwstkkkhxmz","","764","","<p>How familiar did this sound to you?</p><p>1&nbsp;&nbsp;&nbsp;&nbsp;&nbsp;&nbsp;&nbsp;&nbsp;&nbsp;&nbsp;&nbsp;&nbsp;&nbsp;&nbsp;&nbsp;&nbsp;&nbsp;&nbsp;&nbsp;2&nbsp;&nbsp;&nbsp;&nbsp;&nbsp;&nbsp;&nbsp;&nbsp;&nbsp;&nbsp;&nbsp;&nbsp;&nbsp;&nbsp;&nbsp;&nbsp;&nbsp;&nbsp;&nbsp;3&nbsp;&nbsp;&nbsp;&nbsp;&nbsp;&nbsp;&nbsp;&nbsp;&nbsp;&nbsp;&nbsp;&nbsp;&nbsp;&nbsp;&nbsp;&nbsp;&nbsp;&nbsp;&nbsp;4</p><p style=""font-size:14px"">Not at all familiar&nbsp;&nbsp;&nbsp;&nbsp;A little familiar&nbsp;&nbsp;&nbsp;Moderately familiar&nbsp;&nbsp;&nbsp;Extremely familiar</p><p>(press the corresponding number on your keyboard)</p>","","51","","","FAM-RESPONSE","","","","","","","","sounds/B/FAM/P004.mp3","partword","","","","","","","","","","","","","","","","","","","",""
"html-keyboard-response","253","1962827","0.0-7.0-1.0-0.11","2","0","my96dwstkkkhxmz","","null","","","","null","","","","","","","","","","","","","","","","","","","","","","","","","","","","","","","",""
"audio-keyboard-response","254","1963767","0.0-7.0-1.0-1.11","2","0","my96dwstkkkhxmz","","null","","sounds/B/FAM/N003.mp3","","null","","","","","","","","","","","","","","","","","","","","","","","","","","","","","","","",""
"html-keyboard-response","255","1965080","0.0-7.0-1.0-2.11","2","0","my96dwstkkkhxmz","","808.9000000953674","","<p>How familiar did this sound to you?</p><p>1&nbsp;&nbsp;&nbsp;&nbsp;&nbsp;&nbsp;&nbsp;&nbsp;&nbsp;&nbsp;&nbsp;&nbsp;&nbsp;&nbsp;&nbsp;&nbsp;&nbsp;&nbsp;&nbsp;2&nbsp;&nbsp;&nbsp;&nbsp;&nbsp;&nbsp;&nbsp;&nbsp;&nbsp;&nbsp;&nbsp;&nbsp;&nbsp;&nbsp;&nbsp;&nbsp;&nbsp;&nbsp;&nbsp;3&nbsp;&nbsp;&nbsp;&nbsp;&nbsp;&nbsp;&nbsp;&nbsp;&nbsp;&nbsp;&nbsp;&nbsp;&nbsp;&nbsp;&nbsp;&nbsp;&nbsp;&nbsp;&nbsp;4</p><p style=""font-size:14px"">Not at all familiar&nbsp;&nbsp;&nbsp;&nbsp;A little familiar&nbsp;&nbsp;&nbsp;Moderately familiar&nbsp;&nbsp;&nbsp;Extremely familiar</p><p>(press the corresponding number on your keyboard)</p>","","51","","","FAM-RESPONSE","","","","","","","","sounds/B/FAM/N003.mp3","nonword","","","","","","","","","","","","","","","","","","","",""
"html-button-response","256","1984844","0.0-8.0-0.0","2","0","my96dwstkkkhxmz","","18757.200000047684","","<p>You will now listen to longer sound sequences.</p><p>Each sound sequence will last about 16 seconds.</p><p>On each trial, you will be given a <u>TARGET SOUND</u>. Your task is to listen very carefully for this sound.</p><p>Every time you hear the <u>TARGET SOUND</u>, you will press the <b>SPACEBAR</b> as quickly and accurately as you can.</p>","0","","","","","","","","","","","","","","","","","","","","","","","","","","","","","","","","",""
"html-button-response","257","1997473","0.0-8.0-1.0","2","0","my96dwstkkkhxmz","","12374.899999976158","","<p>It is very important that you make your responses as quickly and accurately as possible.</p><p>To help you make your responses, you will be able to listen to the <u>TARGET SOUND</u> at the beginning of each trial.</p><p>There will be 36 total trials.</p><p><b>Note: This is meant to be a difficult task. We simply want you to try your best.</p>","0","","","","","","","","","","","","","","","","","","","","","","","","","","","","","","","","",""
"html-button-response","258","1999871","0.0-8.0-2.0-0.0","2","0","my96dwstkkkhxmz","","2140.6999999284744","","<p>Trial 1 of 36</p>","0","","","","","","","","","","","","","","RU","sounds/syllables/ru_SWS.wav","5100,6900,10500,12300","3","","","","","","","","","","","","","","","",""
"html-keyboard-response","259","2003088","0.0-8.0-2.0-1.0","2","0","my96dwstkkkhxmz","","3215.899999976158","","","","80","","","","","","","","","","","","","RU","","5100,6900,10500,12300","3","","","","","","","","","","","","","","","",""
"audio-keyboard-response","260","2003781","0.0-8.0-2.0-2.0-0.0","2","0","my96dwstkkkhxmz","","null","","sounds/syllables/ru_SWS.wav","","null","","","","","","","","","","","","","","","","","","","","","","","","","","","","","","","",""
"html-keyboard-response","261","2005907","0.0-8.0-2.0-2.0-1.0","2","0","my96dwstkkkhxmz","","2124.600000023842","","<p>To replay the <u>TARGET SOUND</u>, press P.</p> When you are ready to begin, press SPACEBAR.","","80","","","","","","","","","","","","","","","","","","","","","","","","","","","","","","","",""
"audio-keyboard-response","262","2006712","0.0-8.0-2.0-2.1-0.1","2","0","my96dwstkkkhxmz","","null","","sounds/syllables/ru_SWS.wav","","null","","","","","","","","","","","","","","","","","","","","","","","","","","","","","","","",""
"html-keyboard-response","263","2007887","0.0-8.0-2.0-2.1-1.1","2","0","my96dwstkkkhxmz","","1174.2999999523163","","<p>To replay the <u>TARGET SOUND</u>, press P.</p> When you are ready to begin, press SPACEBAR.","","80","","","","","","","","","","","","","","","","","","","","","","","","","","","","","","","",""
"audio-keyboard-response","264","2008687","0.0-8.0-2.0-2.2-0.2","2","0","my96dwstkkkhxmz","","null","","sounds/syllables/ru_SWS.wav","","null","","","","","","","","","","","","","","","","","","","","","","","","","","","","","","","",""
"html-keyboard-response","265","2009312","0.0-8.0-2.0-2.2-1.2","2","0","my96dwstkkkhxmz","","624","","<p>To replay the <u>TARGET SOUND</u>, press P.</p> When you are ready to begin, press SPACEBAR.","","32","","","","","","","","","","","","","","","","","","","","","","","","","","","","","","","",""
"audio-keyboard-response","266","2024261","0.0-8.0-2.0-3.0","2","0","my96dwstkkkhxmz","","5381","","sounds/B/TD/RU_08_TD.mp3","","32","","","TD_SUMMARY","","","","","","","","","","RU","","5100,6900,10500,12300","3","5100","6900","10500","12300","278.89999997615814","null","null","null","5378.899999976158_7051.299999952316_10000.399999976158","3","","","","","",""
"html-button-response","267","2026447","0.0-8.0-2.0-0.1","2","0","my96dwstkkkhxmz","","2184.3000000715256","","<p>Trial 2 of 36</p>","0","","","","","","","","","","","","","","GE","sounds/syllables/ge_SWS.wav","900,4500,6300,8100","1","","","","","","","","","","","","","","","",""
"html-keyboard-response","268","2028297","0.0-8.0-2.0-1.1","2","0","my96dwstkkkhxmz","","1848.6999999284744","","","","80","","","","","","","","","","","","","GE","","900,4500,6300,8100","1","","","","","","","","","","","","","","","",""
"audio-keyboard-response","269","2028594","0.0-8.0-2.0-2.3-0.3","2","0","my96dwstkkkhxmz","","null","","sounds/syllables/ge_SWS.wav","","null","","","","","","","","","","","","","","","","","","","","","","","","","","","","","","","",""
"html-keyboard-response","270","2031956","0.0-8.0-2.0-2.3-1.3","2","0","my96dwstkkkhxmz","","3361.100000023842","","<p>To replay the <u>TARGET SOUND</u>, press P.</p> When you are ready to begin, press SPACEBAR.","","80","","","","","","","","","","","","","","","","","","","","","","","","","","","","","","","",""
"audio-keyboard-response","271","2032758","0.0-8.0-2.0-2.4-0.4","2","0","my96dwstkkkhxmz","","null","","sounds/syllables/ge_SWS.wav","","null","","","","","","","","","","","","","","","","","","","","","","","","","","","","","","","",""
"html-keyboard-response","272","2034874","0.0-8.0-2.0-2.4-1.4","2","0","my96dwstkkkhxmz","","2114.7999999523163","","<p>To replay the <u>TARGET SOUND</u>, press P.</p> When you are ready to begin, press SPACEBAR.","","32","","","","","","","","","","","","","","","","","","","","","","","","","","","","","","","",""
"audio-keyboard-response","273","2049827","0.0-8.0-2.0-3.1","2","0","my96dwstkkkhxmz","","569","","sounds/B/TD/GE_01_TD.mp3","","32","","","TD_SUMMARY","","","","","","","","","","GE","","900,4500,6300,8100","1","900","4500","6300","8100","730.5","697","1111.3000000715256","885","___568.5_1630.5_2354.3000000715256_3292.4000000953674_3999.2000000476837_5197_5997.300000071526_7411.300000071526_8985_9654.5_11513.300000071526_12532.5_13473.5_14365.400000095367","2","","","","","",""
"html-button-response","274","2051351","0.0-8.0-2.0-0.2","2","0","my96dwstkkkhxmz","","1523","","<p>Trial 3 of 36</p>","0","","","","","","","","","","","","","","FU","sounds/syllables/fu_SWS.wav","900,6300,8100,12600","1","","","","","","","","","","","","","","","",""
"html-keyboard-response","275","2053045","0.0-8.0-2.0-1.2","2","0","my96dwstkkkhxmz","","1692.8000000715256","","","","80","","","","","","","","","","","","","FU","","900,6300,8100,12600","1","","","","","","","","","","","","","","","",""
"audio-keyboard-response","276","2053342","0.0-8.0-2.0-2.5-0.5","2","0","my96dwstkkkhxmz","","null","","sounds/syllables/fu_SWS.wav","","null","","","","","","","","","","","","","","","","","","","","","","","","","","","","","","","",""
"html-keyboard-response","277","2055292","0.0-8.0-2.0-2.5-1.5","2","0","my96dwstkkkhxmz","","1949.5","","<p>To replay the <u>TARGET SOUND</u>, press P.</p> When you are ready to begin, press SPACEBAR.","","32","","","","","","","","","","","","","","","","","","","","","","","","","","","","","","","",""
"audio-keyboard-response","278","2070243","0.0-8.0-2.0-3.2","2","0","my96dwstkkkhxmz","","534","","sounds/B/TD/FU_04_TD.mp3","","32","","","TD_SUMMARY","","","","","","","","","","FU","","900,6300,8100,12600","1","900","6300","8100","12600","762.3000000715256","943.7000000476837","null","1129.9000000953674","_________________529.7000000476837_1662.3000000715256_2552_3326.100000023842_4313.600000023842_5883.300000071526_7243.700000047684_8217_9802.5_10624.5_12234.400000095367_13729.900000095367","1","","","","","",""
"html-button-response","279","2071718","0.0-8.0-2.0-0.3","2","0","my96dwstkkkhxmz","","1473.7000000476837","","<p>Trial 4 of 36</p>","0","","","","","","","","","","","","","","ME","sounds/syllables/me_SWS.wav","3000,9300,11100,12900","2","","","","","","","","","","","","","","","",""
"html-keyboard-response","280","2073204","0.0-8.0-2.0-1.3","2","0","my96dwstkkkhxmz","","1484.7999999523163","","","","80","","","","","","","","","","","","","ME","","3000,9300,11100,12900","2","","","","","","","","","","","","","","","",""
"audio-keyboard-response","281","2073504","0.0-8.0-2.0-2.6-0.6","2","0","my96dwstkkkhxmz","","null","","sounds/syllables/me_SWS.wav","","null","","","","","","","","","","","","","","","","","","","","","","","","","","","","","","","",""
"html-keyboard-response","282","2076359","0.0-8.0-2.0-2.6-1.6","2","0","my96dwstkkkhxmz","","2854.1999999284744","","<p>To replay the <u>TARGET SOUND</u>, press P.</p> When you are ready to begin, press SPACEBAR.","","80","","","","","","","","","","","","","","","","","","","","","","","","","","","","","","","",""
"audio-keyboard-response","283","2077164","0.0-8.0-2.0-2.7-0.7","2","0","my96dwstkkkhxmz","","null","","sounds/syllables/me_SWS.wav","","null","","","","","","","","","","","","","","","","","","","","","","","","","","","","","","","",""
"html-keyboard-response","284","2078381","0.0-8.0-2.0-2.7-1.7","2","0","my96dwstkkkhxmz","","1215.7000000476837","","<p>To replay the <u>TARGET SOUND</u>, press P.</p> When you are ready to begin, press SPACEBAR.","","32","","","","","","","","","","","","","","","","","","","","","","","","","","","","","","","",""
"audio-keyboard-response","285","2093335","0.0-8.0-2.0-3.3","2","0","my96dwstkkkhxmz","","540","","sounds/B/TD/ME_05_TD.mp3","","32","","","TD_SUMMARY","","","","","","","","","","ME","","3000,9300,11100,12900","2","3000","9300","11100","12900","null","463.60000002384186","null","522.8999999761581","_____________________________546.1000000238419_2987.399999976158_4385.799999952316_6392.799999952316_8106.600000023842_9763.600000023842_10911_12763.899999976158_13422.899999976158","2","","","","","",""
"html-button-response","286","2094776","0.0-8.0-2.0-0.4","2","0","my96dwstkkkhxmz","","1439.0999999046326","","<p>Trial 5 of 36</p>","0","","","","","","","","","","","","","","SU","sounds/syllables/su_SWS.wav","3000,5700,10200,12900","2","","","","","","","","","","","","","","","",""
"html-keyboard-response","287","2096041","0.0-8.0-2.0-1.4","2","0","my96dwstkkkhxmz","","1264.5","","","","80","","","","","","","","","","","","","SU","","3000,5700,10200,12900","2","","","","","","","","","","","","","","","",""
"audio-keyboard-response","288","2096341","0.0-8.0-2.0-2.8-0.8","2","0","my96dwstkkkhxmz","","null","","sounds/syllables/su_SWS.wav","","null","","","","","","","","","","","","","","","","","","","","","","","","","","","","","","","",""
"html-keyboard-response","289","2098527","0.0-8.0-2.0-2.8-1.8","2","0","my96dwstkkkhxmz","","2185.7000000476837","","<p>To replay the <u>TARGET SOUND</u>, press P.</p> When you are ready to begin, press SPACEBAR.","","80","","","","","","","","","","","","","","","","","","","","","","","","","","","","","","","",""
"audio-keyboard-response","290","2099329","0.0-8.0-2.0-2.9-0.9","2","0","my96dwstkkkhxmz","","null","","sounds/syllables/su_SWS.wav","","null","","","","","","","","","","","","","","","","","","","","","","","","","","","","","","","",""
"html-keyboard-response","291","2100529","0.0-8.0-2.0-2.9-1.9","2","0","my96dwstkkkhxmz","","1198.6000000238419","","<p>To replay the <u>TARGET SOUND</u>, press P.</p> When you are ready to begin, press SPACEBAR.","","32","","","","","","","","","","","","","","","","","","","","","","","","","","","","","","","",""
"audio-keyboard-response","292","2115477","0.0-8.0-2.0-3.4","2","0","my96dwstkkkhxmz","","882","","sounds/B/TD/SU_10_TD.mp3","","32","","","TD_SUMMARY","","","","","","","","","","SU","","3000,5700,10200,12900","2","3000","5700","10200","12900","null","215.5","998.1000000238419","546","______________________________________877.8999999761581_2784.3000000715256_5915.5_8341.800000071526_9769.100000023842_11198.100000023842_13446","2","","","","","",""
"html-button-response","293","2116850","0.0-8.0-2.0-0.5","2","0","my96dwstkkkhxmz","","1371.6000000238419","","<p>Trial 6 of 36</p>","0","","","","","","","","","","","","","","TI","sounds/syllables/ti_SWS.wav","900,3600,5400,9000","1","","","","","","","","","","","","","","","",""
"html-keyboard-response","294","2118365","0.0-8.0-2.0-1.5","2","0","my96dwstkkkhxmz","","1513.3999999761581","","","","80","","","","","","","","","","","","","TI","","900,3600,5400,9000","1","","","","","","","","","","","","","","","",""
"audio-keyboard-response","295","2118663","0.0-8.0-2.0-2.10-0.10","2","0","my96dwstkkkhxmz","","null","","sounds/syllables/ti_SWS.wav","","null","","","","","","","","","","","","","","","","","","","","","","","","","","","","","","","",""
"html-keyboard-response","296","2120259","0.0-8.0-2.0-2.10-1.10","2","0","my96dwstkkkhxmz","","1595.6000000238419","","<p>To replay the <u>TARGET SOUND</u>, press P.</p> When you are ready to begin, press SPACEBAR.","","80","","","","","","","","","","","","","","","","","","","","","","","","","","","","","","","",""
"audio-keyboard-response","297","2121060","0.0-8.0-2.0-2.11-0.11","2","0","my96dwstkkkhxmz","","null","","sounds/syllables/ti_SWS.wav","","null","","","","","","","","","","","","","","","","","","","","","","","","","","","","","","","",""
"html-keyboard-response","298","2122335","0.0-8.0-2.0-2.11-1.11","2","0","my96dwstkkkhxmz","","1273.6000000238419","","<p>To replay the <u>TARGET SOUND</u>, press P.</p> When you are ready to begin, press SPACEBAR.","","32","","","","","","","","","","","","","","","","","","","","","","","","","","","","","","","",""
"audio-keyboard-response","299","2137283","0.0-8.0-2.0-3.5","2","0","my96dwstkkkhxmz","","610","","sounds/B/TD/TI_03_TD.mp3","","32","","","TD_SUMMARY","","","","","","","","","","TI","","900,3600,5400,9000","1","900","3600","5400","9000","889","716.1000000238419","448.7999999523163","null","_____________________________________________610.3999999761581_1116.2999999523163_1789_2787.5_3477.899999976158_4316.100000023842_5185_5848.799999952316_6971.699999928474_8634_11404.600000023842_11643.5_13585.299999952316_14064.899999976158","2","","","","","",""
"html-button-response","300","2138819","0.0-8.0-2.0-0.6","2","0","my96dwstkkkhxmz","","1533.7999999523163","","<p>Trial 7 of 36</p>","0","","","","","","","","","","","","","","GE","sounds/syllables/ge_SWS.wav","3600,6300,9000,11700","1","","","","","","","","","","","","","","","",""
"html-keyboard-response","301","2142662","0.0-8.0-2.0-1.6","2","0","my96dwstkkkhxmz","","3840.7999999523163","","","","80","","","","","","","","","","","","","GE","","3600,6300,9000,11700","1","","","","","","","","","","","","","","","",""
"audio-keyboard-response","302","2142959","0.0-8.0-2.0-2.12-0.12","2","0","my96dwstkkkhxmz","","null","","sounds/syllables/ge_SWS.wav","","null","","","","","","","","","","","","","","","","","","","","","","","","","","","","","","","",""
"html-keyboard-response","303","2144943","0.0-8.0-2.0-2.12-1.12","2","0","my96dwstkkkhxmz","","1983.2999999523163","","<p>To replay the <u>TARGET SOUND</u>, press P.</p> When you are ready to begin, press SPACEBAR.","","80","","","","","","","","","","","","","","","","","","","","","","","","","","","","","","","",""
"audio-keyboard-response","304","2145745","0.0-8.0-2.0-2.13-0.13","2","0","my96dwstkkkhxmz","","null","","sounds/syllables/ge_SWS.wav","","null","","","","","","","","","","","","","","","","","","","","","","","","","","","","","","","",""
"html-keyboard-response","305","2146381","0.0-8.0-2.0-2.13-1.13","2","0","my96dwstkkkhxmz","","635.3999999761581","","<p>To replay the <u>TARGET SOUND</u>, press P.</p> When you are ready to begin, press SPACEBAR.","","32","","","","","","","","","","","","","","","","","","","","","","","","","","","","","","","",""
"audio-keyboard-response","306","2161337","0.0-8.0-2.0-3.6","2","0","my96dwstkkkhxmz","","551","","sounds/B/TD/GE_08_TD.mp3","","32","","","TD_SUMMARY","","","","","","","","","","GE","","3600,6300,9000,11700","1","3600","6300","9000","11700","771","724","null","351.7999999523163","___________________________________________________________552.6000000238419_1572.5_2633.100000023842_3622_4371_5838.600000023842_7024_8173.100000023842_9061.600000023842_10667.600000023842_12051.799999952316_13151.600000023842_13422.799999952316_14178.5","2","","","","","",""
"html-button-response","307","2162319","0.0-8.0-2.0-0.7","2","0","my96dwstkkkhxmz","","980.3999999761581","","<p>Trial 8 of 36</p>","0","","","","","","","","","","","","","","FE","sounds/syllables/fe_SWS.wav","2400,5100,8700,12300","3","","","","","","","","","","","","","","","",""
"html-keyboard-response","308","2174630","0.0-8.0-2.0-1.7","2","0","my96dwstkkkhxmz","","12309.699999928474","","","","80","","","","","","","","","","","","","FE","","2400,5100,8700,12300","3","","","","","","","","","","","","","","","",""
"audio-keyboard-response","309","2174934","0.0-8.0-2.0-2.14-0.14","2","0","my96dwstkkkhxmz","","null","","sounds/syllables/fe_SWS.wav","","null","","","","","","","","","","","","","","","","","","","","","","","","","","","","","","","",""
"html-keyboard-response","310","2175948","0.0-8.0-2.0-2.14-1.14","2","0","my96dwstkkkhxmz","","1014","","<p>To replay the <u>TARGET SOUND</u>, press P.</p> When you are ready to begin, press SPACEBAR.","","80","","","","","","","","","","","","","","","","","","","","","","","","","","","","","","","",""
"audio-keyboard-response","311","2176752","0.0-8.0-2.0-2.15-0.15","2","0","my96dwstkkkhxmz","","null","","sounds/syllables/fe_SWS.wav","","null","","","","","","","","","","","","","","","","","","","","","","","","","","","","","","","",""
"html-keyboard-response","312","2177383","0.0-8.0-2.0-2.15-1.15","2","0","my96dwstkkkhxmz","","630","","<p>To replay the <u>TARGET SOUND</u>, press P.</p> When you are ready to begin, press SPACEBAR.","","80","","","","","","","","","","","","","","","","","","","","","","","","","","","","","","","",""
"audio-keyboard-response","313","2178189","0.0-8.0-2.0-2.16-0.16","2","0","my96dwstkkkhxmz","","null","","sounds/syllables/fe_SWS.wav","","null","","","","","","","","","","","","","","","","","","","","","","","","","","","","","","","",""
"html-keyboard-response","314","2178731","0.0-8.0-2.0-2.16-1.16","2","0","my96dwstkkkhxmz","","541.5999999046326","","<p>To replay the <u>TARGET SOUND</u>, press P.</p> When you are ready to begin, press SPACEBAR.","","32","","","","","","","","","","","","","","","","","","","","","","","","","","","","","","","",""
"audio-keyboard-response","315","2193682","0.0-8.0-2.0-3.7","2","0","my96dwstkkkhxmz","","1120","","sounds/B/TD/FE_06_TD.mp3","","32","","","TD_SUMMARY","","","","","","","","","","FE","","2400,5100,8700,12300","3","2400","5100","8700","12300","null","927","669.7000000476837","null","_________________________________________________________________________1127.8000000715256_6027_6529.700000047684_7719.900000095367_9369.700000047684_10453.700000047684_11751.800000071526_13516.300000071526","3","","","","","",""
"html-button-response","316","2195448","0.0-8.0-2.0-0.8","2","0","my96dwstkkkhxmz","","1764.3000000715256","","<p>Trial 9 of 36</p>","0","","","","","","","","","","","","","","PU","sounds/syllables/pu_SWS.wav","4500,6300,8100,12600","1","","","","","","","","","","","","","","","",""
"html-keyboard-response","317","2200804","0.0-8.0-2.0-1.8","2","0","my96dwstkkkhxmz","","5354.5","","","","80","","","","","","","","","","","","","PU","","4500,6300,8100,12600","1","","","","","","","","","","","","","","","",""
"audio-keyboard-response","318","2201103","0.0-8.0-2.0-2.17-0.17","2","0","my96dwstkkkhxmz","","null","","sounds/syllables/pu_SWS.wav","","null","","","","","","","","","","","","","","","","","","","","","","","","","","","","","","","",""
"html-keyboard-response","319","2202545","0.0-8.0-2.0-2.17-1.17","2","0","my96dwstkkkhxmz","","1440.7000000476837","","<p>To replay the <u>TARGET SOUND</u>, press P.</p> When you are ready to begin, press SPACEBAR.","","80","","","","","","","","","","","","","","","","","","","","","","","","","","","","","","","",""
"audio-keyboard-response","320","2203344","0.0-8.0-2.0-2.18-0.18","2","0","my96dwstkkkhxmz","","null","","sounds/syllables/pu_SWS.wav","","null","","","","","","","","","","","","","","","","","","","","","","","","","","","","","","","",""
"html-keyboard-response","321","2204653","0.0-8.0-2.0-2.18-1.18","2","0","my96dwstkkkhxmz","","1308","","<p>To replay the <u>TARGET SOUND</u>, press P.</p> When you are ready to begin, press SPACEBAR.","","32","","","","","","","","","","","","","","","","","","","","","","","","","","","","","","","",""
"audio-keyboard-response","322","2219605","0.0-8.0-2.0-3.8","2","0","my96dwstkkkhxmz","","354","","sounds/B/TD/PU_08_TD.mp3","","32","","","TD_SUMMARY","","","","","","","","","","PU","","4500,6300,8100,12600","1","4500","6300","8100","12600","1005.6000000238419","292.3000000715256","null","1171.1000000238419","_________________________________________________________________________________357.3000000715256_1115.8999999761581_3022.600000023842_4229.600000023842_5505.600000023842_6316.5_6592.300000071526_7585.300000071526_9747.300000071526_11379.600000023842_13771.100000023842","2","","","","","",""
"html-button-response","323","2222576","0.0-8.0-2.0-0.9","2","0","my96dwstkkkhxmz","","2969.8000000715256","","<p>Trial 10 of 36</p>","0","","","","","","","","","","","","","","TA","sounds/syllables/ta_SWS.wav","1500,6900,11400,13200","3","","","","","","","","","","","","","","","",""
"html-keyboard-response","324","2223978","0.0-8.0-2.0-1.9","2","0","my96dwstkkkhxmz","","1399.9000000953674","","","","80","","","","","","","","","","","","","TA","","1500,6900,11400,13200","3","","","","","","","","","","","","","","","",""
"audio-keyboard-response","325","2224278","0.0-8.0-2.0-2.19-0.19","2","0","my96dwstkkkhxmz","","null","","sounds/syllables/ta_SWS.wav","","null","","","","","","","","","","","","","","","","","","","","","","","","","","","","","","","",""
"html-keyboard-response","326","2224965","0.0-8.0-2.0-2.19-1.19","2","0","my96dwstkkkhxmz","","686.2999999523163","","<p>To replay the <u>TARGET SOUND</u>, press P.</p> When you are ready to begin, press SPACEBAR.","","32","","","","","","","","","","","","","","","","","","","","","","","","","","","","","","","",""
"audio-keyboard-response","327","2239911","0.0-8.0-2.0-3.9","2","0","my96dwstkkkhxmz","","650","","sounds/B/TD/TA_03_TD.mp3","","32","","","TD_SUMMARY","","","","","","","","","","TA","","1500,6900,11400,13200","3","1500","6900","11400","13200","null","637.3999999761581","null","null","____________________________________________________________________________________________646.1999999284744_1677.2999999523163_3540.600000023842_5536.699999928474_6173.5_6522.399999976158_7537.399999976158_8680.699999928474_9963.399999976158_10556.199999928474_10746.399999976158_11338.100000023842","1","","","","","",""
"html-button-response","328","2245345","0.0-8.0-2.0-0.10","2","0","my96dwstkkkhxmz","","5432.200000047684","","<p>Trial 11 of 36</p>","0","","","","","","","","","","","","","","ME","sounds/syllables/me_SWS.wav","1200,9300,11100,12900","2","","","","","","","","","","","","","","","",""
"html-keyboard-response","329","2246428","0.0-8.0-2.0-1.10","2","0","my96dwstkkkhxmz","","1081.7000000476837","","","","80","","","","","","","","","","","","","ME","","1200,9300,11100,12900","2","","","","","","","","","","","","","","","",""
"audio-keyboard-response","330","2246727","0.0-8.0-2.0-2.20-0.20","2","0","my96dwstkkkhxmz","","null","","sounds/syllables/me_SWS.wav","","null","","","","","","","","","","","","","","","","","","","","","","","","","","","","","","","",""
"html-keyboard-response","331","2247969","0.0-8.0-2.0-2.20-1.20","2","0","my96dwstkkkhxmz","","1240.8999999761581","","<p>To replay the <u>TARGET SOUND</u>, press P.</p> When you are ready to begin, press SPACEBAR.","","80","","","","","","","","","","","","","","","","","","","","","","","","","","","","","","","",""
"audio-keyboard-response","332","2248766","0.0-8.0-2.0-2.21-0.21","2","0","my96dwstkkkhxmz","","null","","sounds/syllables/me_SWS.wav","","null","","","","","","","","","","","","","","","","","","","","","","","","","","","","","","","",""
"html-keyboard-response","333","2258570","0.0-8.0-2.0-2.21-1.21","2","0","my96dwstkkkhxmz","","9802.400000095367","","<p>To replay the <u>TARGET SOUND</u>, press P.</p> When you are ready to begin, press SPACEBAR.","","80","","","","","","","","","","","","","","","","","","","","","","","","","","","","","","","",""
"audio-keyboard-response","334","2259371","0.0-8.0-2.0-2.22-0.22","2","0","my96dwstkkkhxmz","","null","","sounds/syllables/me_SWS.wav","","null","","","","","","","","","","","","","","","","","","","","","","","","","","","","","","","",""
"html-keyboard-response","335","2260871","0.0-8.0-2.0-2.22-1.22","2","0","my96dwstkkkhxmz","","1499.7000000476837","","<p>To replay the <u>TARGET SOUND</u>, press P.</p> When you are ready to begin, press SPACEBAR.","","80","","","","","","","","","","","","","","","","","","","","","","","","","","","","","","","",""
