"trial_type","trial_index","time_elapsed","internal_node_id","counterbalance","lang_instruct","ParticipantID","view_history","rt","url","stimulus","button_pressed","key_press","correctRESP","correct","designation","location","correctanswer","timeouts","pause_rt01","pause_rt02","train_file","numKeyPress","sound","fam_type","SYLLABLE","EXEMPLAR","TD_LOCS","TD_TYPE","TDLOC_01","TDLOC_02","TDLOC_03","TDLOC_04","TD_RT_01","TD_RT_02","TD_RT_03","TD_RT_04","TD_SUBJ_RTs","number_of_plays","responses","slider_start","response","question_order","syllable","syllable_type"
"pavlovia","0","6","0.0-0.0","1","0","bzvttyq4nk2s41f","","","","","","","","","","","","","","","","","","","","","","","","","","","","","","","","","","","","","",""
"instructions","1","71931","0.0-1.0","1","0","bzvttyq4nk2s41f","[{""page_index"":0,""viewing_time"":3105.5999999940395},{""page_index"":1,""viewing_time"":68818.70000000298}]","71927.39999999106","","","","","","","","","","","","","","","","","","","","","","","","","","","","","","","","","","","",""
"external-html","2","75589","0.0-2.0","1","0","bzvttyq4nk2s41f","","3526.0999999940395","consent/consent.html","","","","","","","","","","","","","","","","","","","","","","","","","","","","","","","","","","",""
"html-button-response","3","91617","0.0-3.0-0.0-0.0","1","0","bzvttyq4nk2s41f","","16025.90000000596","","<p>Welcome to the study. You will first complete a short volume calibration and headphone check.</p><p>Please make sure you are in a quiet listening environment, that you are wearing headphones, and that your computer's volume is turned on.<p></p>","0","","","","","","","","","","","","","","","","","","","","","","","","","","","","","","","","",""
"html-button-response","4","96845","0.0-3.0-0.0-1.0","1","0","bzvttyq4nk2s41f","","4971.29999999702","","<p>The volume calibration will be first.</p><p>You will hear a thirty-second noise. Please adjust your computer's volume so that this noise is being presented at a comfortable level.<p></p>","0","","","","","","","","","","","","","","","","","","","","","","","","","","","","","","","","",""
"audio-button-response","5","108012","0.0-3.0-0.0-2.0","1","0","bzvttyq4nk2s41f","","10016","","audCalib/volumetest.mp3","0","","","","","","","","","","","","","","","","","","","","","","","","","","","","","","","","",""
"html-button-response","6","114109","0.0-3.0-1.0-0.0","1","0","bzvttyq4nk2s41f","","6095.399999991059","","<p>You will now complete a short headphone check.</p><p>On each trial, you will hear three tones. One of these tones will be quieter than the others. Your task is to identify whether the quiet tone occured first, second, or third.</p><p>There are six trials in total.<p></p>","0","","","","","","","","","","","","","","","","","","","","","","","","","","","","","","","","",""
"html-keyboard-response","7","114870","0.0-3.0-1.0-1.0-0.0","1","0","bzvttyq4nk2s41f","","null","","<div style=""font-size:60px;"">+</div>","","null","","","","","","","","","","","","","","","","","","","","","","","","","","","","","","","",""
"audio-button-response","8","120680","0.0-3.0-1.0-1.0-1.0","1","0","bzvttyq4nk2s41f","","5808","","audCalib/t3_2.mp3","2","","2","1","headphone-test","","","","","","","","","","","","","","","","","","","","","","","","","","","","",""
"html-keyboard-response","9","121436","0.0-3.0-1.0-1.0-0.1","1","0","bzvttyq4nk2s41f","","null","","<div style=""font-size:60px;"">+</div>","","null","","","","","","","","","","","","","","","","","","","","","","","","","","","","","","","",""
"audio-button-response","10","126701","0.0-3.0-1.0-1.0-1.1","1","0","bzvttyq4nk2s41f","","5264","","audCalib/t1_2.mp3","0","","0","1","headphone-test","","","","","","","","","","","","","","","","","","","","","","","","","","","","",""
"html-keyboard-response","11","127460","0.0-3.0-1.0-1.0-0.2","1","0","bzvttyq4nk2s41f","","null","","<div style=""font-size:60px;"">+</div>","","null","","","","","","","","","","","","","","","","","","","","","","","","","","","","","","","",""
"audio-button-response","12","132282","0.0-3.0-1.0-1.0-1.2","1","0","bzvttyq4nk2s41f","","4816","","audCalib/t1_1.mp3","0","","0","1","headphone-test","","","","","","","","","","","","","","","","","","","","","","","","","","","","",""
"html-keyboard-response","13","133044","0.0-3.0-1.0-1.0-0.3","1","0","bzvttyq4nk2s41f","","null","","<div style=""font-size:60px;"">+</div>","","null","","","","","","","","","","","","","","","","","","","","","","","","","","","","","","","",""
"audio-button-response","14","138132","0.0-3.0-1.0-1.0-1.3","1","0","bzvttyq4nk2s41f","","5083","","audCalib/t2_2.mp3","1","","1","1","headphone-test","","","","","","","","","","","","","","","","","","","","","","","","","","","","",""
"html-keyboard-response","15","138894","0.0-3.0-1.0-1.0-0.4","1","0","bzvttyq4nk2s41f","","null","","<div style=""font-size:60px;"">+</div>","","null","","","","","","","","","","","","","","","","","","","","","","","","","","","","","","","",""
"audio-button-response","16","143923","0.0-3.0-1.0-1.0-1.4","1","0","bzvttyq4nk2s41f","","5024","","audCalib/t3_1.mp3","2","","2","1","headphone-test","","","","","","","","","","","","","","","","","","","","","","","","","","","","",""
"html-keyboard-response","17","144680","0.0-3.0-1.0-1.0-0.5","1","0","bzvttyq4nk2s41f","","null","","<div style=""font-size:60px;"">+</div>","","null","","","","","","","","","","","","","","","","","","","","","","","","","","","","","","","",""
"audio-button-response","18","149472","0.0-3.0-1.0-1.0-1.5","1","0","bzvttyq4nk2s41f","","4784","","audCalib/t2_1.mp3","1","","1","1","headphone-test","","","","","","","","","","","","","","","","","","","","","","","","","","","","",""
"html-button-response","19","151337","0.0-3.0-2.0","1","0","bzvttyq4nk2s41f","","1609.300000011921","","<p>The volume calibration and headphone check are now complete.</p>","0","","","","","","","","","","","","","","","","","","","","","","","","","","","","","","","","",""
"instructions","20","162595","0.0-4.0-0.0","1","0","bzvttyq4nk2s41f","[{""page_index"":0,""viewing_time"":1604},{""page_index"":1,""viewing_time"":7447.70000000298},{""page_index"":2,""viewing_time"":2204.1000000089407}]","11256.5","","","","","","","","","","","","","","","","","","","","","","","","","","","","","","","","","","","",""
"audio-keyboard-response","21","162900","0.0-4.0-1.0-0.0","1","0","bzvttyq4nk2s41f","","null","","sounds/induction/right_rev/ta_SWS.wav","","null","","","","","","","","","","","","","","","","","","","","","","","","","","","","","","","",""
"html-button-response","22","164257","0.0-4.0-1.0-1.0","1","0","bzvttyq4nk2s41f","","1355","","Was the sound coming from the left or the right?","1","","","1","INDUCTION-JUDGMENT","right","1","","","","","","","","","","","","","","","","","","","","","","","","","","",""
"html-keyboard-response","23","165261","0.0-4.0-1.0-2.0","1","0","bzvttyq4nk2s41f","","null","","<p style=""color:#054d00;""><b>Correct!</b></p>","","null","","","","","","","","","","","","","","","","","","","","","","","","","","","","","","","",""
"audio-keyboard-response","24","166063","0.0-4.0-1.0-0.1","1","0","bzvttyq4nk2s41f","","null","","sounds/induction/right_rev/me_SWS.wav","","null","","","","","","","","","","","","","","","","","","","","","","","","","","","","","","","",""
"html-button-response","25","166929","0.0-4.0-1.0-1.1","1","0","bzvttyq4nk2s41f","","864.5","","Was the sound coming from the left or the right?","1","","","1","INDUCTION-JUDGMENT","right","1","","","","","","","","","","","","","","","","","","","","","","","","","","",""
"html-keyboard-response","26","167933","0.0-4.0-1.0-2.1","1","0","bzvttyq4nk2s41f","","null","","<p style=""color:#054d00;""><b>Correct!</b></p>","","null","","","","","","","","","","","","","","","","","","","","","","","","","","","","","","","",""
"audio-keyboard-response","27","168740","0.0-4.0-1.0-0.2","1","0","bzvttyq4nk2s41f","","null","","sounds/induction/left_rev/pu_SWS.wav","","null","","","","","","","","","","","","","","","","","","","","","","","","","","","","","","","",""
"html-button-response","28","169563","0.0-4.0-1.0-1.2","1","0","bzvttyq4nk2s41f","","821.0999999940395","","Was the sound coming from the left or the right?","0","","","1","INDUCTION-JUDGMENT","left","0","","","","","","","","","","","","","","","","","","","","","","","","","","",""
"html-keyboard-response","29","170570","0.0-4.0-1.0-2.2","1","0","bzvttyq4nk2s41f","","null","","<p style=""color:#054d00;""><b>Correct!</b></p>","","null","","","","","","","","","","","","","","","","","","","","","","","","","","","","","","","",""
"audio-keyboard-response","30","171374","0.0-4.0-1.0-0.3","1","0","bzvttyq4nk2s41f","","null","","sounds/induction/right_rev/ti_SWS.wav","","null","","","","","","","","","","","","","","","","","","","","","","","","","","","","","","","",""
"html-button-response","31","172601","0.0-4.0-1.0-1.3","1","0","bzvttyq4nk2s41f","","1224.7000000029802","","Was the sound coming from the left or the right?","1","","","1","INDUCTION-JUDGMENT","right","1","","","","","","","","","","","","","","","","","","","","","","","","","","",""
"html-keyboard-response","32","173606","0.0-4.0-1.0-2.3","1","0","bzvttyq4nk2s41f","","null","","<p style=""color:#054d00;""><b>Correct!</b></p>","","null","","","","","","","","","","","","","","","","","","","","","","","","","","","","","","","",""
"audio-keyboard-response","33","174414","0.0-4.0-1.0-0.4","1","0","bzvttyq4nk2s41f","","null","","sounds/induction/right_rev/ko_SWS.wav","","null","","","","","","","","","","","","","","","","","","","","","","","","","","","","","","","",""
"html-button-response","34","175667","0.0-4.0-1.0-1.4","1","0","bzvttyq4nk2s41f","","1249.7999999970198","","Was the sound coming from the left or the right?","1","","","1","INDUCTION-JUDGMENT","right","1","","","","","","","","","","","","","","","","","","","","","","","","","","",""
"html-keyboard-response","35","176670","0.0-4.0-1.0-2.4","1","0","bzvttyq4nk2s41f","","null","","<p style=""color:#054d00;""><b>Correct!</b></p>","","null","","","","","","","","","","","","","","","","","","","","","","","","","","","","","","","",""
"audio-keyboard-response","36","177476","0.0-4.0-1.0-0.5","1","0","bzvttyq4nk2s41f","","null","","sounds/induction/left_rev/pu_SWS.wav","","null","","","","","","","","","","","","","","","","","","","","","","","","","","","","","","","",""
"html-button-response","37","178315","0.0-4.0-1.0-1.5","1","0","bzvttyq4nk2s41f","","836.7000000029802","","Was the sound coming from the left or the right?","0","","","1","INDUCTION-JUDGMENT","left","0","","","","","","","","","","","","","","","","","","","","","","","","","","",""
"html-keyboard-response","38","179319","0.0-4.0-1.0-2.5","1","0","bzvttyq4nk2s41f","","null","","<p style=""color:#054d00;""><b>Correct!</b></p>","","null","","","","","","","","","","","","","","","","","","","","","","","","","","","","","","","",""
"audio-keyboard-response","39","180126","0.0-4.0-1.0-0.6","1","0","bzvttyq4nk2s41f","","null","","sounds/induction/right_rev/pu_SWS.wav","","null","","","","","","","","","","","","","","","","","","","","","","","","","","","","","","","",""
"html-button-response","40","181144","0.0-4.0-1.0-1.6","1","0","bzvttyq4nk2s41f","","1016","","Was the sound coming from the left or the right?","0","","","0","INDUCTION-JUDGMENT","right","1","","","","","","","","","","","","","","","","","","","","","","","","","","",""
"html-keyboard-response","41","182147","0.0-4.0-1.0-2.6","1","0","bzvttyq4nk2s41f","","null","","<p style=""color:#690000;""><b>Incorrect!</b></p>","","null","","","","","","","","","","","","","","","","","","","","","","","","","","","","","","","",""
"audio-keyboard-response","42","182953","0.0-4.0-1.0-0.7","1","0","bzvttyq4nk2s41f","","null","","sounds/induction/right_rev/ni_SWS.wav","","null","","","","","","","","","","","","","","","","","","","","","","","","","","","","","","","",""
"html-button-response","43","184084","0.0-4.0-1.0-1.7","1","0","bzvttyq4nk2s41f","","1129.0999999940395","","Was the sound coming from the left or the right?","1","","","1","INDUCTION-JUDGMENT","right","1","","","","","","","","","","","","","","","","","","","","","","","","","","",""
"html-keyboard-response","44","185089","0.0-4.0-1.0-2.7","1","0","bzvttyq4nk2s41f","","null","","<p style=""color:#054d00;""><b>Correct!</b></p>","","null","","","","","","","","","","","","","","","","","","","","","","","","","","","","","","","",""
"audio-keyboard-response","45","185897","0.0-4.0-1.0-0.8","1","0","bzvttyq4nk2s41f","","null","","sounds/induction/right_rev/ti_SWS.wav","","null","","","","","","","","","","","","","","","","","","","","","","","","","","","","","","","",""
"html-button-response","46","186542","0.0-4.0-1.0-1.8","1","0","bzvttyq4nk2s41f","","643.5999999940395","","Was the sound coming from the left or the right?","1","","","1","INDUCTION-JUDGMENT","right","1","","","","","","","","","","","","","","","","","","","","","","","","","","",""
"html-keyboard-response","47","187549","0.0-4.0-1.0-2.8","1","0","bzvttyq4nk2s41f","","null","","<p style=""color:#054d00;""><b>Correct!</b></p>","","null","","","","","","","","","","","","","","","","","","","","","","","","","","","","","","","",""
"audio-keyboard-response","48","188355","0.0-4.0-1.0-0.9","1","0","bzvttyq4nk2s41f","","null","","sounds/induction/left_rev/ni_SWS.wav","","null","","","","","","","","","","","","","","","","","","","","","","","","","","","","","","","",""
"html-button-response","49","189155","0.0-4.0-1.0-1.9","1","0","bzvttyq4nk2s41f","","797.5","","Was the sound coming from the left or the right?","0","","","1","INDUCTION-JUDGMENT","left","0","","","","","","","","","","","","","","","","","","","","","","","","","","",""
"html-keyboard-response","50","190158","0.0-4.0-1.0-2.9","1","0","bzvttyq4nk2s41f","","null","","<p style=""color:#054d00;""><b>Correct!</b></p>","","null","","","","","","","","","","","","","","","","","","","","","","","","","","","","","","","",""
"audio-keyboard-response","51","190963","0.0-4.0-1.0-0.10","1","0","bzvttyq4nk2s41f","","null","","sounds/induction/right_rev/ni_SWS.wav","","null","","","","","","","","","","","","","","","","","","","","","","","","","","","","","","","",""
"html-button-response","52","191673","0.0-4.0-1.0-1.10","1","0","bzvttyq4nk2s41f","","708.6999999880791","","Was the sound coming from the left or the right?","1","","","1","INDUCTION-JUDGMENT","right","1","","","","","","","","","","","","","","","","","","","","","","","","","","",""
"html-keyboard-response","53","192680","0.0-4.0-1.0-2.10","1","0","bzvttyq4nk2s41f","","null","","<p style=""color:#054d00;""><b>Correct!</b></p>","","null","","","","","","","","","","","","","","","","","","","","","","","","","","","","","","","",""
"audio-keyboard-response","54","193485","0.0-4.0-1.0-0.11","1","0","bzvttyq4nk2s41f","","null","","sounds/induction/left_rev/fe_SWS.wav","","null","","","","","","","","","","","","","","","","","","","","","","","","","","","","","","","",""
"html-button-response","55","194192","0.0-4.0-1.0-1.11","1","0","bzvttyq4nk2s41f","","705.2999999970198","","Was the sound coming from the left or the right?","0","","","1","INDUCTION-JUDGMENT","left","0","","","","","","","","","","","","","","","","","","","","","","","","","","",""
"html-keyboard-response","56","195198","0.0-4.0-1.0-2.11","1","0","bzvttyq4nk2s41f","","null","","<p style=""color:#054d00;""><b>Correct!</b></p>","","null","","","","","","","","","","","","","","","","","","","","","","","","","","","","","","","",""
"audio-keyboard-response","57","196008","0.0-4.0-1.0-0.12","1","0","bzvttyq4nk2s41f","","null","","sounds/induction/left_rev/ta_SWS.wav","","null","","","","","","","","","","","","","","","","","","","","","","","","","","","","","","","",""
"html-button-response","58","197089","0.0-4.0-1.0-1.12","1","0","bzvttyq4nk2s41f","","1079.300000011921","","Was the sound coming from the left or the right?","0","","","1","INDUCTION-JUDGMENT","left","0","","","","","","","","","","","","","","","","","","","","","","","","","","",""
"html-keyboard-response","59","198095","0.0-4.0-1.0-2.12","1","0","bzvttyq4nk2s41f","","null","","<p style=""color:#054d00;""><b>Correct!</b></p>","","null","","","","","","","","","","","","","","","","","","","","","","","","","","","","","","","",""
"audio-keyboard-response","60","198899","0.0-4.0-1.0-0.13","1","0","bzvttyq4nk2s41f","","null","","sounds/induction/right_rev/ge_SWS.wav","","null","","","","","","","","","","","","","","","","","","","","","","","","","","","","","","","",""
"html-button-response","61","199555","0.0-4.0-1.0-1.13","1","0","bzvttyq4nk2s41f","","655.7000000029802","","Was the sound coming from the left or the right?","1","","","1","INDUCTION-JUDGMENT","right","1","","","","","","","","","","","","","","","","","","","","","","","","","","",""
"html-keyboard-response","62","200558","0.0-4.0-1.0-2.13","1","0","bzvttyq4nk2s41f","","null","","<p style=""color:#054d00;""><b>Correct!</b></p>","","null","","","","","","","","","","","","","","","","","","","","","","","","","","","","","","","",""
"audio-keyboard-response","63","201362","0.0-4.0-1.0-0.14","1","0","bzvttyq4nk2s41f","","null","","sounds/induction/left_rev/ta_SWS.wav","","null","","","","","","","","","","","","","","","","","","","","","","","","","","","","","","","",""
"html-button-response","64","202007","0.0-4.0-1.0-1.14","1","0","bzvttyq4nk2s41f","","643.5999999940395","","Was the sound coming from the left or the right?","0","","","1","INDUCTION-JUDGMENT","left","0","","","","","","","","","","","","","","","","","","","","","","","","","","",""
"html-keyboard-response","65","203010","0.0-4.0-1.0-2.14","1","0","bzvttyq4nk2s41f","","null","","<p style=""color:#054d00;""><b>Correct!</b></p>","","null","","","","","","","","","","","","","","","","","","","","","","","","","","","","","","","",""
"audio-keyboard-response","66","203816","0.0-4.0-1.0-0.15","1","0","bzvttyq4nk2s41f","","null","","sounds/induction/right_rev/ko_SWS.wav","","null","","","","","","","","","","","","","","","","","","","","","","","","","","","","","","","",""
"html-button-response","67","204541","0.0-4.0-1.0-1.15","1","0","bzvttyq4nk2s41f","","723.5999999940395","","Was the sound coming from the left or the right?","1","","","1","INDUCTION-JUDGMENT","right","1","","","","","","","","","","","","","","","","","","","","","","","","","","",""
"html-keyboard-response","68","205547","0.0-4.0-1.0-2.15","1","0","bzvttyq4nk2s41f","","null","","<p style=""color:#054d00;""><b>Correct!</b></p>","","null","","","","","","","","","","","","","","","","","","","","","","","","","","","","","","","",""
"audio-keyboard-response","69","206354","0.0-4.0-1.0-0.16","1","0","bzvttyq4nk2s41f","","null","","sounds/induction/right_rev/ge_SWS.wav","","null","","","","","","","","","","","","","","","","","","","","","","","","","","","","","","","",""
"html-button-response","70","206974","0.0-4.0-1.0-1.16","1","0","bzvttyq4nk2s41f","","617.8999999910593","","Was the sound coming from the left or the right?","0","","","0","INDUCTION-JUDGMENT","right","1","","","","","","","","","","","","","","","","","","","","","","","","","","",""
"html-keyboard-response","71","207980","0.0-4.0-1.0-2.16","1","0","bzvttyq4nk2s41f","","null","","<p style=""color:#690000;""><b>Incorrect!</b></p>","","null","","","","","","","","","","","","","","","","","","","","","","","","","","","","","","","",""
"audio-keyboard-response","72","208786","0.0-4.0-1.0-0.17","1","0","bzvttyq4nk2s41f","","null","","sounds/induction/left_rev/fu_SWS.wav","","null","","","","","","","","","","","","","","","","","","","","","","","","","","","","","","","",""
"html-button-response","73","209591","0.0-4.0-1.0-1.17","1","0","bzvttyq4nk2s41f","","803.2999999970198","","Was the sound coming from the left or the right?","0","","","1","INDUCTION-JUDGMENT","left","0","","","","","","","","","","","","","","","","","","","","","","","","","","",""
"html-keyboard-response","74","210593","0.0-4.0-1.0-2.17","1","0","bzvttyq4nk2s41f","","null","","<p style=""color:#054d00;""><b>Correct!</b></p>","","null","","","","","","","","","","","","","","","","","","","","","","","","","","","","","","","",""
"audio-keyboard-response","75","211399","0.0-4.0-1.0-0.18","1","0","bzvttyq4nk2s41f","","null","","sounds/induction/left_rev/me_SWS.wav","","null","","","","","","","","","","","","","","","","","","","","","","","","","","","","","","","",""
"html-button-response","76","212071","0.0-4.0-1.0-1.18","1","0","bzvttyq4nk2s41f","","670.7000000029802","","Was the sound coming from the left or the right?","0","","","1","INDUCTION-JUDGMENT","left","0","","","","","","","","","","","","","","","","","","","","","","","","","","",""
"html-keyboard-response","77","213075","0.0-4.0-1.0-2.18","1","0","bzvttyq4nk2s41f","","null","","<p style=""color:#054d00;""><b>Correct!</b></p>","","null","","","","","","","","","","","","","","","","","","","","","","","","","","","","","","","",""
"audio-keyboard-response","78","213884","0.0-4.0-1.0-0.19","1","0","bzvttyq4nk2s41f","","null","","sounds/induction/left_rev/ru_SWS.wav","","null","","","","","","","","","","","","","","","","","","","","","","","","","","","","","","","",""
"html-button-response","79","214668","0.0-4.0-1.0-1.19","1","0","bzvttyq4nk2s41f","","782","","Was the sound coming from the left or the right?","0","","","1","INDUCTION-JUDGMENT","left","0","","","","","","","","","","","","","","","","","","","","","","","","","","",""
"html-keyboard-response","80","215674","0.0-4.0-1.0-2.19","1","0","bzvttyq4nk2s41f","","null","","<p style=""color:#054d00;""><b>Correct!</b></p>","","null","","","","","","","","","","","","","","","","","","","","","","","","","","","","","","","",""
"audio-keyboard-response","81","216482","0.0-4.0-1.0-0.20","1","0","bzvttyq4nk2s41f","","null","","sounds/induction/left_rev/ni_SWS.wav","","null","","","","","","","","","","","","","","","","","","","","","","","","","","","","","","","",""
"html-button-response","82","217128","0.0-4.0-1.0-1.20","1","0","bzvttyq4nk2s41f","","645.2000000029802","","Was the sound coming from the left or the right?","0","","","1","INDUCTION-JUDGMENT","left","0","","","","","","","","","","","","","","","","","","","","","","","","","","",""
"html-keyboard-response","83","218135","0.0-4.0-1.0-2.20","1","0","bzvttyq4nk2s41f","","null","","<p style=""color:#054d00;""><b>Correct!</b></p>","","null","","","","","","","","","","","","","","","","","","","","","","","","","","","","","","","",""
"audio-keyboard-response","84","218940","0.0-4.0-1.0-0.21","1","0","bzvttyq4nk2s41f","","null","","sounds/induction/left_rev/ti_SWS.wav","","null","","","","","","","","","","","","","","","","","","","","","","","","","","","","","","","",""
"html-button-response","85","219625","0.0-4.0-1.0-1.21","1","0","bzvttyq4nk2s41f","","682.9000000059605","","Was the sound coming from the left or the right?","0","","","1","INDUCTION-JUDGMENT","left","0","","","","","","","","","","","","","","","","","","","","","","","","","","",""
"html-keyboard-response","86","220631","0.0-4.0-1.0-2.21","1","0","bzvttyq4nk2s41f","","null","","<p style=""color:#054d00;""><b>Correct!</b></p>","","null","","","","","","","","","","","","","","","","","","","","","","","","","","","","","","","",""
"audio-keyboard-response","87","221436","0.0-4.0-1.0-0.22","1","0","bzvttyq4nk2s41f","","null","","sounds/induction/left_rev/ge_SWS.wav","","null","","","","","","","","","","","","","","","","","","","","","","","","","","","","","","","",""
"html-button-response","88","222858","0.0-4.0-1.0-1.22","1","0","bzvttyq4nk2s41f","","1420","","Was the sound coming from the left or the right?","0","","","1","INDUCTION-JUDGMENT","left","0","","","","","","","","","","","","","","","","","","","","","","","","","","",""
"html-keyboard-response","89","223859","0.0-4.0-1.0-2.22","1","0","bzvttyq4nk2s41f","","null","","<p style=""color:#054d00;""><b>Correct!</b></p>","","null","","","","","","","","","","","","","","","","","","","","","","","","","","","","","","","",""
"audio-keyboard-response","90","224668","0.0-4.0-1.0-0.23","1","0","bzvttyq4nk2s41f","","null","","sounds/induction/left_rev/fu_SWS.wav","","null","","","","","","","","","","","","","","","","","","","","","","","","","","","","","","","",""
"html-button-response","91","225880","0.0-4.0-1.0-1.23","1","0","bzvttyq4nk2s41f","","1211.6000000089407","","Was the sound coming from the left or the right?","0","","","1","INDUCTION-JUDGMENT","left","0","","","","","","","","","","","","","","","","","","","","","","","","","","",""
"html-keyboard-response","92","226882","0.0-4.0-1.0-2.23","1","0","bzvttyq4nk2s41f","","null","","<p style=""color:#054d00;""><b>Correct!</b></p>","","null","","","","","","","","","","","","","","","","","","","","","","","","","","","","","","","",""
"audio-keyboard-response","93","227686","0.0-4.0-1.0-0.24","1","0","bzvttyq4nk2s41f","","null","","sounds/induction/right_rev/re_SWS.wav","","null","","","","","","","","","","","","","","","","","","","","","","","","","","","","","","","",""
"html-button-response","94","228548","0.0-4.0-1.0-1.24","1","0","bzvttyq4nk2s41f","","860.5999999940395","","Was the sound coming from the left or the right?","1","","","1","INDUCTION-JUDGMENT","right","1","","","","","","","","","","","","","","","","","","","","","","","","","","",""
"html-keyboard-response","95","229555","0.0-4.0-1.0-2.24","1","0","bzvttyq4nk2s41f","","null","","<p style=""color:#054d00;""><b>Correct!</b></p>","","null","","","","","","","","","","","","","","","","","","","","","","","","","","","","","","","",""
"audio-keyboard-response","96","230358","0.0-4.0-1.0-0.25","1","0","bzvttyq4nk2s41f","","null","","sounds/induction/right_rev/su_SWS.wav","","null","","","","","","","","","","","","","","","","","","","","","","","","","","","","","","","",""
"html-button-response","97","231184","0.0-4.0-1.0-1.25","1","0","bzvttyq4nk2s41f","","823.5999999940395","","Was the sound coming from the left or the right?","1","","","1","INDUCTION-JUDGMENT","right","1","","","","","","","","","","","","","","","","","","","","","","","","","","",""
"html-keyboard-response","98","232190","0.0-4.0-1.0-2.25","1","0","bzvttyq4nk2s41f","","null","","<p style=""color:#054d00;""><b>Correct!</b></p>","","null","","","","","","","","","","","","","","","","","","","","","","","","","","","","","","","",""
"audio-keyboard-response","99","232993","0.0-4.0-1.0-0.26","1","0","bzvttyq4nk2s41f","","null","","sounds/induction/left_rev/ti_SWS.wav","","null","","","","","","","","","","","","","","","","","","","","","","","","","","","","","","","",""
"html-button-response","100","234019","0.0-4.0-1.0-1.26","1","0","bzvttyq4nk2s41f","","1024.4000000059605","","Was the sound coming from the left or the right?","0","","","1","INDUCTION-JUDGMENT","left","0","","","","","","","","","","","","","","","","","","","","","","","","","","",""
"html-keyboard-response","101","235025","0.0-4.0-1.0-2.26","1","0","bzvttyq4nk2s41f","","null","","<p style=""color:#054d00;""><b>Correct!</b></p>","","null","","","","","","","","","","","","","","","","","","","","","","","","","","","","","","","",""
"audio-keyboard-response","102","235830","0.0-4.0-1.0-0.27","1","0","bzvttyq4nk2s41f","","null","","sounds/induction/right_rev/me_SWS.wav","","null","","","","","","","","","","","","","","","","","","","","","","","","","","","","","","","",""
"html-button-response","103","236418","0.0-4.0-1.0-1.27","1","0","bzvttyq4nk2s41f","","586.5","","Was the sound coming from the left or the right?","1","","","1","INDUCTION-JUDGMENT","right","1","","","","","","","","","","","","","","","","","","","","","","","","","","",""
"html-keyboard-response","104","237422","0.0-4.0-1.0-2.27","1","0","bzvttyq4nk2s41f","","null","","<p style=""color:#054d00;""><b>Correct!</b></p>","","null","","","","","","","","","","","","","","","","","","","","","","","","","","","","","","","",""
"audio-keyboard-response","105","238230","0.0-4.0-1.0-0.28","1","0","bzvttyq4nk2s41f","","null","","sounds/induction/right_rev/fe_SWS.wav","","null","","","","","","","","","","","","","","","","","","","","","","","","","","","","","","","",""
"html-button-response","106","238908","0.0-4.0-1.0-1.28","1","0","bzvttyq4nk2s41f","","676.2000000029802","","Was the sound coming from the left or the right?","1","","","1","INDUCTION-JUDGMENT","right","1","","","","","","","","","","","","","","","","","","","","","","","","","","",""
"html-keyboard-response","107","239912","0.0-4.0-1.0-2.28","1","0","bzvttyq4nk2s41f","","null","","<p style=""color:#054d00;""><b>Correct!</b></p>","","null","","","","","","","","","","","","","","","","","","","","","","","","","","","","","","","",""
"audio-keyboard-response","108","240715","0.0-4.0-1.0-0.29","1","0","bzvttyq4nk2s41f","","null","","sounds/induction/right_rev/pu_SWS.wav","","null","","","","","","","","","","","","","","","","","","","","","","","","","","","","","","","",""
"html-button-response","109","242446","0.0-4.0-1.0-1.29","1","0","bzvttyq4nk2s41f","","1729.2000000029802","","Was the sound coming from the left or the right?","1","","","1","INDUCTION-JUDGMENT","right","1","","","","","","","","","","","","","","","","","","","","","","","","","","",""
"html-keyboard-response","110","243450","0.0-4.0-1.0-2.29","1","0","bzvttyq4nk2s41f","","null","","<p style=""color:#054d00;""><b>Correct!</b></p>","","null","","","","","","","","","","","","","","","","","","","","","","","","","","","","","","","",""
"audio-keyboard-response","111","244256","0.0-4.0-1.0-0.30","1","0","bzvttyq4nk2s41f","","null","","sounds/induction/right_rev/ru_SWS.wav","","null","","","","","","","","","","","","","","","","","","","","","","","","","","","","","","","",""
"html-button-response","112","245014","0.0-4.0-1.0-1.30","1","0","bzvttyq4nk2s41f","","755.7000000029802","","Was the sound coming from the left or the right?","1","","","1","INDUCTION-JUDGMENT","right","1","","","","","","","","","","","","","","","","","","","","","","","","","","",""
"html-keyboard-response","113","246019","0.0-4.0-1.0-2.30","1","0","bzvttyq4nk2s41f","","null","","<p style=""color:#054d00;""><b>Correct!</b></p>","","null","","","","","","","","","","","","","","","","","","","","","","","","","","","","","","","",""
"audio-keyboard-response","114","246822","0.0-4.0-1.0-0.31","1","0","bzvttyq4nk2s41f","","null","","sounds/induction/right_rev/ru_SWS.wav","","null","","","","","","","","","","","","","","","","","","","","","","","","","","","","","","","",""
"html-button-response","115","247441","0.0-4.0-1.0-1.31","1","0","bzvttyq4nk2s41f","","617.7000000029802","","Was the sound coming from the left or the right?","1","","","1","INDUCTION-JUDGMENT","right","1","","","","","","","","","","","","","","","","","","","","","","","","","","",""
"html-keyboard-response","116","248445","0.0-4.0-1.0-2.31","1","0","bzvttyq4nk2s41f","","null","","<p style=""color:#054d00;""><b>Correct!</b></p>","","null","","","","","","","","","","","","","","","","","","","","","","","","","","","","","","","",""
"audio-keyboard-response","117","249248","0.0-4.0-1.0-0.32","1","0","bzvttyq4nk2s41f","","null","","sounds/induction/left_rev/ko_SWS.wav","","null","","","","","","","","","","","","","","","","","","","","","","","","","","","","","","","",""
"html-button-response","118","249924","0.0-4.0-1.0-1.32","1","0","bzvttyq4nk2s41f","","674.5999999940395","","Was the sound coming from the left or the right?","0","","","1","INDUCTION-JUDGMENT","left","0","","","","","","","","","","","","","","","","","","","","","","","","","","",""
"html-keyboard-response","119","250927","0.0-4.0-1.0-2.32","1","0","bzvttyq4nk2s41f","","null","","<p style=""color:#054d00;""><b>Correct!</b></p>","","null","","","","","","","","","","","","","","","","","","","","","","","","","","","","","","","",""
"audio-keyboard-response","120","251733","0.0-4.0-1.0-0.33","1","0","bzvttyq4nk2s41f","","null","","sounds/induction/right_rev/su_SWS.wav","","null","","","","","","","","","","","","","","","","","","","","","","","","","","","","","","","",""
"html-button-response","121","252595","0.0-4.0-1.0-1.33","1","0","bzvttyq4nk2s41f","","860.3000000119209","","Was the sound coming from the left or the right?","1","","","1","INDUCTION-JUDGMENT","right","1","","","","","","","","","","","","","","","","","","","","","","","","","","",""
"html-keyboard-response","122","253598","0.0-4.0-1.0-2.33","1","0","bzvttyq4nk2s41f","","null","","<p style=""color:#054d00;""><b>Correct!</b></p>","","null","","","","","","","","","","","","","","","","","","","","","","","","","","","","","","","",""
"audio-keyboard-response","123","254400","0.0-4.0-1.0-0.34","1","0","bzvttyq4nk2s41f","","null","","sounds/induction/left_rev/me_SWS.wav","","null","","","","","","","","","","","","","","","","","","","","","","","","","","","","","","","",""
"html-button-response","124","255302","0.0-4.0-1.0-1.34","1","0","bzvttyq4nk2s41f","","900.5","","Was the sound coming from the left or the right?","0","","","1","INDUCTION-JUDGMENT","left","0","","","","","","","","","","","","","","","","","","","","","","","","","","",""
"html-keyboard-response","125","256308","0.0-4.0-1.0-2.34","1","0","bzvttyq4nk2s41f","","null","","<p style=""color:#054d00;""><b>Correct!</b></p>","","null","","","","","","","","","","","","","","","","","","","","","","","","","","","","","","","",""
"audio-keyboard-response","126","257115","0.0-4.0-1.0-0.35","1","0","bzvttyq4nk2s41f","","null","","sounds/induction/left_rev/su_SWS.wav","","null","","","","","","","","","","","","","","","","","","","","","","","","","","","","","","","",""
"html-button-response","127","257769","0.0-4.0-1.0-1.35","1","0","bzvttyq4nk2s41f","","653.1000000089407","","Was the sound coming from the left or the right?","0","","","1","INDUCTION-JUDGMENT","left","0","","","","","","","","","","","","","","","","","","","","","","","","","","",""
"html-keyboard-response","128","258772","0.0-4.0-1.0-2.35","1","0","bzvttyq4nk2s41f","","null","","<p style=""color:#054d00;""><b>Correct!</b></p>","","null","","","","","","","","","","","","","","","","","","","","","","","","","","","","","","","",""
"audio-keyboard-response","129","259578","0.0-4.0-1.0-0.36","1","0","bzvttyq4nk2s41f","","null","","sounds/induction/right_rev/fu_SWS.wav","","null","","","","","","","","","","","","","","","","","","","","","","","","","","","","","","","",""
"html-button-response","130","260365","0.0-4.0-1.0-1.36","1","0","bzvttyq4nk2s41f","","784.9000000059605","","Was the sound coming from the left or the right?","1","","","1","INDUCTION-JUDGMENT","right","1","","","","","","","","","","","","","","","","","","","","","","","","","","",""
"html-keyboard-response","131","261372","0.0-4.0-1.0-2.36","1","0","bzvttyq4nk2s41f","","null","","<p style=""color:#054d00;""><b>Correct!</b></p>","","null","","","","","","","","","","","","","","","","","","","","","","","","","","","","","","","",""
"audio-keyboard-response","132","262176","0.0-4.0-1.0-0.37","1","0","bzvttyq4nk2s41f","","null","","sounds/induction/left_rev/su_SWS.wav","","null","","","","","","","","","","","","","","","","","","","","","","","","","","","","","","","",""
"html-button-response","133","262884","0.0-4.0-1.0-1.37","1","0","bzvttyq4nk2s41f","","706.9000000059605","","Was the sound coming from the left or the right?","0","","","1","INDUCTION-JUDGMENT","left","0","","","","","","","","","","","","","","","","","","","","","","","","","","",""
"html-keyboard-response","134","263888","0.0-4.0-1.0-2.37","1","0","bzvttyq4nk2s41f","","null","","<p style=""color:#054d00;""><b>Correct!</b></p>","","null","","","","","","","","","","","","","","","","","","","","","","","","","","","","","","","",""
"audio-keyboard-response","135","264693","0.0-4.0-1.0-0.38","1","0","bzvttyq4nk2s41f","","null","","sounds/induction/left_rev/re_SWS.wav","","null","","","","","","","","","","","","","","","","","","","","","","","","","","","","","","","",""
"html-button-response","136","265501","0.0-4.0-1.0-1.38","1","0","bzvttyq4nk2s41f","","806.5999999940395","","Was the sound coming from the left or the right?","0","","","1","INDUCTION-JUDGMENT","left","0","","","","","","","","","","","","","","","","","","","","","","","","","","",""
"html-keyboard-response","137","266504","0.0-4.0-1.0-2.38","1","0","bzvttyq4nk2s41f","","null","","<p style=""color:#054d00;""><b>Correct!</b></p>","","null","","","","","","","","","","","","","","","","","","","","","","","","","","","","","","","",""
"audio-keyboard-response","138","267311","0.0-4.0-1.0-0.39","1","0","bzvttyq4nk2s41f","","null","","sounds/induction/right_rev/fe_SWS.wav","","null","","","","","","","","","","","","","","","","","","","","","","","","","","","","","","","",""
"html-button-response","139","268441","0.0-4.0-1.0-1.39","1","0","bzvttyq4nk2s41f","","1127.6000000089407","","Was the sound coming from the left or the right?","1","","","1","INDUCTION-JUDGMENT","right","1","","","","","","","","","","","","","","","","","","","","","","","","","","",""
"html-keyboard-response","140","269447","0.0-4.0-1.0-2.39","1","0","bzvttyq4nk2s41f","","null","","<p style=""color:#054d00;""><b>Correct!</b></p>","","null","","","","","","","","","","","","","","","","","","","","","","","","","","","","","","","",""
"audio-keyboard-response","141","270250","0.0-4.0-1.0-0.40","1","0","bzvttyq4nk2s41f","","null","","sounds/induction/right_rev/fu_SWS.wav","","null","","","","","","","","","","","","","","","","","","","","","","","","","","","","","","","",""
"html-button-response","142","270821","0.0-4.0-1.0-1.40","1","0","bzvttyq4nk2s41f","","568.9000000059605","","Was the sound coming from the left or the right?","1","","","1","INDUCTION-JUDGMENT","right","1","","","","","","","","","","","","","","","","","","","","","","","","","","",""
"html-keyboard-response","143","271824","0.0-4.0-1.0-2.40","1","0","bzvttyq4nk2s41f","","null","","<p style=""color:#054d00;""><b>Correct!</b></p>","","null","","","","","","","","","","","","","","","","","","","","","","","","","","","","","","","",""
"audio-keyboard-response","144","272628","0.0-4.0-1.0-0.41","1","0","bzvttyq4nk2s41f","","null","","sounds/induction/right_rev/ta_SWS.wav","","null","","","","","","","","","","","","","","","","","","","","","","","","","","","","","","","",""
"html-button-response","145","273236","0.0-4.0-1.0-1.41","1","0","bzvttyq4nk2s41f","","605.7999999970198","","Was the sound coming from the left or the right?","1","","","1","INDUCTION-JUDGMENT","right","1","","","","","","","","","","","","","","","","","","","","","","","","","","",""
"html-keyboard-response","146","274241","0.0-4.0-1.0-2.41","1","0","bzvttyq4nk2s41f","","null","","<p style=""color:#054d00;""><b>Correct!</b></p>","","null","","","","","","","","","","","","","","","","","","","","","","","","","","","","","","","",""
"audio-keyboard-response","147","275050","0.0-4.0-1.0-0.42","1","0","bzvttyq4nk2s41f","","null","","sounds/induction/left_rev/ru_SWS.wav","","null","","","","","","","","","","","","","","","","","","","","","","","","","","","","","","","",""
"html-button-response","148","276236","0.0-4.0-1.0-1.42","1","0","bzvttyq4nk2s41f","","1184.5","","Was the sound coming from the left or the right?","0","","","1","INDUCTION-JUDGMENT","left","0","","","","","","","","","","","","","","","","","","","","","","","","","","",""
"html-keyboard-response","149","277239","0.0-4.0-1.0-2.42","1","0","bzvttyq4nk2s41f","","null","","<p style=""color:#054d00;""><b>Correct!</b></p>","","null","","","","","","","","","","","","","","","","","","","","","","","","","","","","","","","",""
"audio-keyboard-response","150","278041","0.0-4.0-1.0-0.43","1","0","bzvttyq4nk2s41f","","null","","sounds/induction/left_rev/re_SWS.wav","","null","","","","","","","","","","","","","","","","","","","","","","","","","","","","","","","",""
"html-button-response","151","278643","0.0-4.0-1.0-1.43","1","0","bzvttyq4nk2s41f","","600.2000000029802","","Was the sound coming from the left or the right?","0","","","1","INDUCTION-JUDGMENT","left","0","","","","","","","","","","","","","","","","","","","","","","","","","","",""
"html-keyboard-response","152","279648","0.0-4.0-1.0-2.43","1","0","bzvttyq4nk2s41f","","null","","<p style=""color:#054d00;""><b>Correct!</b></p>","","null","","","","","","","","","","","","","","","","","","","","","","","","","","","","","","","",""
"audio-keyboard-response","153","280452","0.0-4.0-1.0-0.44","1","0","bzvttyq4nk2s41f","","null","","sounds/induction/left_rev/fe_SWS.wav","","null","","","","","","","","","","","","","","","","","","","","","","","","","","","","","","","",""
"html-button-response","154","280937","0.0-4.0-1.0-1.44","1","0","bzvttyq4nk2s41f","","482.5","","Was the sound coming from the left or the right?","0","","","1","INDUCTION-JUDGMENT","left","0","","","","","","","","","","","","","","","","","","","","","","","","","","",""
"html-keyboard-response","155","281941","0.0-4.0-1.0-2.44","1","0","bzvttyq4nk2s41f","","null","","<p style=""color:#054d00;""><b>Correct!</b></p>","","null","","","","","","","","","","","","","","","","","","","","","","","","","","","","","","","",""
"audio-keyboard-response","156","282751","0.0-4.0-1.0-0.45","1","0","bzvttyq4nk2s41f","","null","","sounds/induction/left_rev/ge_SWS.wav","","null","","","","","","","","","","","","","","","","","","","","","","","","","","","","","","","",""
"html-button-response","157","283329","0.0-4.0-1.0-1.45","1","0","bzvttyq4nk2s41f","","576.3000000119209","","Was the sound coming from the left or the right?","0","","","1","INDUCTION-JUDGMENT","left","0","","","","","","","","","","","","","","","","","","","","","","","","","","",""
"html-keyboard-response","158","284336","0.0-4.0-1.0-2.45","1","0","bzvttyq4nk2s41f","","null","","<p style=""color:#054d00;""><b>Correct!</b></p>","","null","","","","","","","","","","","","","","","","","","","","","","","","","","","","","","","",""
"audio-keyboard-response","159","285140","0.0-4.0-1.0-0.46","1","0","bzvttyq4nk2s41f","","null","","sounds/induction/right_rev/re_SWS.wav","","null","","","","","","","","","","","","","","","","","","","","","","","","","","","","","","","",""
"html-button-response","160","285992","0.0-4.0-1.0-1.46","1","0","bzvttyq4nk2s41f","","849.5999999940395","","Was the sound coming from the left or the right?","1","","","1","INDUCTION-JUDGMENT","right","1","","","","","","","","","","","","","","","","","","","","","","","","","","",""
"html-keyboard-response","161","286998","0.0-4.0-1.0-2.46","1","0","bzvttyq4nk2s41f","","null","","<p style=""color:#054d00;""><b>Correct!</b></p>","","null","","","","","","","","","","","","","","","","","","","","","","","","","","","","","","","",""
"audio-keyboard-response","162","287801","0.0-4.0-1.0-0.47","1","0","bzvttyq4nk2s41f","","null","","sounds/induction/left_rev/ko_SWS.wav","","null","","","","","","","","","","","","","","","","","","","","","","","","","","","","","","","",""
"html-button-response","163","288511","0.0-4.0-1.0-1.47","1","0","bzvttyq4nk2s41f","","708.7000000029802","","Was the sound coming from the left or the right?","0","","","1","INDUCTION-JUDGMENT","left","0","","","","","","","","","","","","","","","","","","","","","","","","","","",""
"html-keyboard-response","164","289515","0.0-4.0-1.0-2.47","1","0","bzvttyq4nk2s41f","","null","","<p style=""color:#054d00;""><b>Correct!</b></p>","","null","","","","","","","","","","","","","","","","","","","","","","","","","","","","","","","",""
"html-button-response","165","295733","0.0-5.0-0.0","1","0","bzvttyq4nk2s41f","","5710.399999991059","","<p>Thank you for your answers.</p><p>You will now listen to similar sounds. The main difference is that the sounds will be longer.</p><p>Just as before, you will be asked to judge whether the sound was coming from the left or the right.</p><p>There are 10 of these longer sounds in total.","0","","","","","","","","","","","","","","","","","","","","","","","","","","","","","","","","",""
"audio-keyboard-response","166","298723","0.0-5.0-1.0-0.0","1","0","bzvttyq4nk2s41f","","null","","sounds/sentences/left_rev/14_05_cfSWS.wav","","null","","","","","","","","","","","","","","","","","","","","","","","","","","","","","","","",""
"html-button-response","167","299641","0.0-5.0-1.0-1.0","1","0","bzvttyq4nk2s41f","","915","","Was the sound coming from the left or the right?","0","","","1","INDUCTION-JUDGMENT","left","0","","","","","","","","","","","","","","","","","","","","","","","","","","",""
"html-keyboard-response","168","300648","0.0-5.0-1.0-2.0","1","0","bzvttyq4nk2s41f","","null","","<p style=""color:#054d00;""><b>Correct!</b></p>","","null","","","","","","","","","","","","","","","","","","","","","","","","","","","","","","","",""
"html-button-response","169","302814","0.0-5.0-1.0-3.0","1","0","bzvttyq4nk2s41f","","1664.4000000059605","","<p>Press the button below when you are ready to continue.</p>","0","","","","","","","","","","","","","","","","","","","","","","","","","","","","","","","","",""
"audio-keyboard-response","170","305571","0.0-5.0-1.0-0.1","1","0","bzvttyq4nk2s41f","","null","","sounds/sentences/right_rev/14_08_cfSWS.wav","","null","","","","","","","","","","","","","","","","","","","","","","","","","","","","","","","",""
"html-button-response","171","306331","0.0-5.0-1.0-1.1","1","0","bzvttyq4nk2s41f","","757.7000000029802","","Was the sound coming from the left or the right?","1","","","1","INDUCTION-JUDGMENT","right","1","","","","","","","","","","","","","","","","","","","","","","","","","","",""
"html-keyboard-response","172","307338","0.0-5.0-1.0-2.1","1","0","bzvttyq4nk2s41f","","null","","<p style=""color:#054d00;""><b>Correct!</b></p>","","null","","","","","","","","","","","","","","","","","","","","","","","","","","","","","","","",""
"html-button-response","173","308778","0.0-5.0-1.0-3.1","1","0","bzvttyq4nk2s41f","","932.3999999910593","","<p>Press the button below when you are ready to continue.</p>","0","","","","","","","","","","","","","","","","","","","","","","","","","","","","","","","","",""
"audio-keyboard-response","174","311597","0.0-5.0-1.0-0.2","1","0","bzvttyq4nk2s41f","","null","","sounds/sentences/left_rev/14_02_cfSWS.wav","","null","","","","","","","","","","","","","","","","","","","","","","","","","","","","","","","",""
"html-button-response","175","312490","0.0-5.0-1.0-1.2","1","0","bzvttyq4nk2s41f","","890.1999999880791","","Was the sound coming from the left or the right?","0","","","1","INDUCTION-JUDGMENT","left","0","","","","","","","","","","","","","","","","","","","","","","","","","","",""
"html-keyboard-response","176","313497","0.0-5.0-1.0-2.2","1","0","bzvttyq4nk2s41f","","null","","<p style=""color:#054d00;""><b>Correct!</b></p>","","null","","","","","","","","","","","","","","","","","","","","","","","","","","","","","","","",""
"html-button-response","177","314850","0.0-5.0-1.0-3.2","1","0","bzvttyq4nk2s41f","","848.5","","<p>Press the button below when you are ready to continue.</p>","0","","","","","","","","","","","","","","","","","","","","","","","","","","","","","","","","",""
"audio-keyboard-response","178","317869","0.0-5.0-1.0-0.3","1","0","bzvttyq4nk2s41f","","null","","sounds/sentences/right_rev/14_10_cfSWS.wav","","null","","","","","","","","","","","","","","","","","","","","","","","","","","","","","","","",""
"html-button-response","179","318624","0.0-5.0-1.0-1.3","1","0","bzvttyq4nk2s41f","","752.1999999880791","","Was the sound coming from the left or the right?","1","","","1","INDUCTION-JUDGMENT","right","1","","","","","","","","","","","","","","","","","","","","","","","","","","",""
"html-keyboard-response","180","319627","0.0-5.0-1.0-2.3","1","0","bzvttyq4nk2s41f","","null","","<p style=""color:#054d00;""><b>Correct!</b></p>","","null","","","","","","","","","","","","","","","","","","","","","","","","","","","","","","","",""
"html-button-response","181","321443","0.0-5.0-1.0-3.3","1","0","bzvttyq4nk2s41f","","1313.7999999970198","","<p>Press the button below when you are ready to continue.</p>","0","","","","","","","","","","","","","","","","","","","","","","","","","","","","","","","","",""
"audio-keyboard-response","182","324173","0.0-5.0-1.0-0.4","1","0","bzvttyq4nk2s41f","","null","","sounds/sentences/right_rev/14_09_cfSWS.wav","","null","","","","","","","","","","","","","","","","","","","","","","","","","","","","","","","",""
"html-button-response","183","325358","0.0-5.0-1.0-1.4","1","0","bzvttyq4nk2s41f","","1182.5999999940395","","Was the sound coming from the left or the right?","1","","","1","INDUCTION-JUDGMENT","right","1","","","","","","","","","","","","","","","","","","","","","","","","","","",""
"html-keyboard-response","184","326364","0.0-5.0-1.0-2.4","1","0","bzvttyq4nk2s41f","","null","","<p style=""color:#054d00;""><b>Correct!</b></p>","","null","","","","","","","","","","","","","","","","","","","","","","","","","","","","","","","",""
"html-button-response","185","328586","0.0-5.0-1.0-3.4","1","0","bzvttyq4nk2s41f","","1719.9000000059605","","<p>Press the button below when you are ready to continue.</p>","0","","","","","","","","","","","","","","","","","","","","","","","","","","","","","","","","",""
"audio-keyboard-response","186","331138","0.0-5.0-1.0-0.5","1","0","bzvttyq4nk2s41f","","null","","sounds/sentences/left_rev/14_04_cfSWS.wav","","null","","","","","","","","","","","","","","","","","","","","","","","","","","","","","","","",""
"html-button-response","187","332253","0.0-5.0-1.0-1.5","1","0","bzvttyq4nk2s41f","","1112.4000000059605","","Was the sound coming from the left or the right?","0","","","1","INDUCTION-JUDGMENT","left","0","","","","","","","","","","","","","","","","","","","","","","","","","","",""
"html-keyboard-response","188","333259","0.0-5.0-1.0-2.5","1","0","bzvttyq4nk2s41f","","null","","<p style=""color:#054d00;""><b>Correct!</b></p>","","null","","","","","","","","","","","","","","","","","","","","","","","","","","","","","","","",""
"html-button-response","189","334706","0.0-5.0-1.0-3.5","1","0","bzvttyq4nk2s41f","","940.8999999910593","","<p>Press the button below when you are ready to continue.</p>","0","","","","","","","","","","","","","","","","","","","","","","","","","","","","","","","","",""
"audio-keyboard-response","190","337596","0.0-5.0-1.0-0.6","1","0","bzvttyq4nk2s41f","","null","","sounds/sentences/right_rev/14_07_cfSWS.wav","","null","","","","","","","","","","","","","","","","","","","","","","","","","","","","","","","",""
"html-button-response","191","338336","0.0-5.0-1.0-1.6","1","0","bzvttyq4nk2s41f","","736.7999999970198","","Was the sound coming from the left or the right?","1","","","1","INDUCTION-JUDGMENT","right","1","","","","","","","","","","","","","","","","","","","","","","","","","","",""
"html-keyboard-response","192","339339","0.0-5.0-1.0-2.6","1","0","bzvttyq4nk2s41f","","null","","<p style=""color:#054d00;""><b>Correct!</b></p>","","null","","","","","","","","","","","","","","","","","","","","","","","","","","","","","","","",""
"html-button-response","193","340682","0.0-5.0-1.0-3.6","1","0","bzvttyq4nk2s41f","","840.1999999880791","","<p>Press the button below when you are ready to continue.</p>","0","","","","","","","","","","","","","","","","","","","","","","","","","","","","","","","","",""
"audio-keyboard-response","194","343425","0.0-5.0-1.0-0.7","1","0","bzvttyq4nk2s41f","","null","","sounds/sentences/right_rev/14_06_cfSWS.wav","","null","","","","","","","","","","","","","","","","","","","","","","","","","","","","","","","",""
"html-button-response","195","344154","0.0-5.0-1.0-1.7","1","0","bzvttyq4nk2s41f","","726.3999999910593","","Was the sound coming from the left or the right?","1","","","1","INDUCTION-JUDGMENT","right","1","","","","","","","","","","","","","","","","","","","","","","","","","","",""
"html-keyboard-response","196","345161","0.0-5.0-1.0-2.7","1","0","bzvttyq4nk2s41f","","null","","<p style=""color:#054d00;""><b>Correct!</b></p>","","null","","","","","","","","","","","","","","","","","","","","","","","","","","","","","","","",""
"html-button-response","197","346942","0.0-5.0-1.0-3.7","1","0","bzvttyq4nk2s41f","","1274.0999999940395","","<p>Press the button below when you are ready to continue.</p>","0","","","","","","","","","","","","","","","","","","","","","","","","","","","","","","","","",""
"audio-keyboard-response","198","349532","0.0-5.0-1.0-0.8","1","0","bzvttyq4nk2s41f","","null","","sounds/sentences/left_rev/14_03_cfSWS.wav","","null","","","","","","","","","","","","","","","","","","","","","","","","","","","","","","","",""
"html-button-response","199","350498","0.0-5.0-1.0-1.8","1","0","bzvttyq4nk2s41f","","963.9000000059605","","Was the sound coming from the left or the right?","0","","","1","INDUCTION-JUDGMENT","left","0","","","","","","","","","","","","","","","","","","","","","","","","","","",""
"html-keyboard-response","200","351502","0.0-5.0-1.0-2.8","1","0","bzvttyq4nk2s41f","","null","","<p style=""color:#054d00;""><b>Correct!</b></p>","","null","","","","","","","","","","","","","","","","","","","","","","","","","","","","","","","",""
"html-button-response","201","353095","0.0-5.0-1.0-3.8","1","0","bzvttyq4nk2s41f","","1087.199999988079","","<p>Press the button below when you are ready to continue.</p>","0","","","","","","","","","","","","","","","","","","","","","","","","","","","","","","","","",""
"audio-keyboard-response","202","356214","0.0-5.0-1.0-0.9","1","0","bzvttyq4nk2s41f","","null","","sounds/sentences/left_rev/14_01_cfSWS.wav","","null","","","","","","","","","","","","","","","","","","","","","","","","","","","","","","","",""
"html-button-response","203","357324","0.0-5.0-1.0-1.9","1","0","bzvttyq4nk2s41f","","1106.8999999910593","","Was the sound coming from the left or the right?","0","","","1","INDUCTION-JUDGMENT","left","0","","","","","","","","","","","","","","","","","","","","","","","","","","",""
"html-keyboard-response","204","358326","0.0-5.0-1.0-2.9","1","0","bzvttyq4nk2s41f","","null","","<p style=""color:#054d00;""><b>Correct!</b></p>","","null","","","","","","","","","","","","","","","","","","","","","","","","","","","","","","","",""
"html-button-response","205","359828","0.0-5.0-1.0-3.9","1","0","bzvttyq4nk2s41f","","999.4000000059605","","<p>Press the button below when you are ready to continue.</p>","0","","","","","","","","","","","","","","","","","","","","","","","","","","","","","","","","",""
"html-keyboard-response","206","407108","0.0-6.0-0.0","1","0","bzvttyq4nk2s41f","","46777.79999999702","","<p>In this part of the study, you will hear sounds similar to those you just heard.</p><p>Please focus on these sounds, as you may be asked questions about them later.</p><p>Occasionally, the sounds will pause for up to two seconds. When this happens, please press SPACEBAR as quickly as you can.</br>This helps ensure that you are paying attention to the sounds.</p><p>This part of the study will take about 12 minutes to complete, and you will be given the opportunity to take a couple of short breaks every few minutes.</p><p><strong>Press SPACEBAR to begin</strong></p>","","32","","","","","","","","","","","","","","","","","","","","","","","","","","","","","","","",""
"html-keyboard-response","207","408111","0.0-6.0-1.0-0.0","1","0","bzvttyq4nk2s41f","","null","","<p style=""font-size: 40px;"">+</p>","","null","","","","","","","","","","","","","","","","","","","","","","","","","","","","","","","",""
"html-keyboard-response","208","593112","0.0-6.0-1.0-1.0","1","0","bzvttyq4nk2s41f","","null","","","","null","","","SL-TRAIN","","","0","922.0999999940395","1650.5","sounds/A/TRAIN/SEQ__02.mp3","5","","","","","","","","","","","","","","","","","","","","","",""
"html-button-response","209","620862","0.0-6.0-1.0-2.0","1","0","bzvttyq4nk2s41f","","27748.29999999702","","<p>You may take a short break if you wish.</p>","0","","","","","","","","","","","","","","","","","","","","","","","","","","","","","","","","",""
"html-keyboard-response","210","621867","0.0-6.0-1.0-3.0","1","0","bzvttyq4nk2s41f","","null","","<p style=""font-size: 40px;"">+</p>","","null","","","","","","","","","","","","","","","","","","","","","","","","","","","","","","","",""
"html-keyboard-response","211","807061","0.0-6.0-1.0-4.0","1","0","bzvttyq4nk2s41f","","null","","","","null","","","SL-TRAIN","","","0","1542.2999999970198","1605.7000000029802","sounds/A/TRAIN/SEQ__08.mp3","4","","","","","","","","","","","","","","","","","","","","","",""
"html-button-response","212","812213","0.0-6.0-1.0-5.0","1","0","bzvttyq4nk2s41f","","5149.800000011921","","<p>You may take a short break if you wish.</p>","0","","","","","","","","","","","","","","","","","","","","","","","","","","","","","","","","",""
"html-keyboard-response","213","813215","0.0-6.0-1.0-6.0","1","0","bzvttyq4nk2s41f","","null","","<p style=""font-size: 40px;"">+</p>","","null","","","","","","","","","","","","","","","","","","","","","","","","","","","","","","","",""
"html-keyboard-response","214","998223","0.0-6.0-1.0-7.0","1","0","bzvttyq4nk2s41f","","null","","","","null","","","SL-TRAIN","","","0","1688.9000000059605","1359.2999999970198","sounds/A/TRAIN/SEQ__06.mp3","9","","","","","","","","","","","","","","","","","","","","","",""
"html-button-response","215","1092976","0.0-6.0-1.0-8.0","1","0","bzvttyq4nk2s41f","","94751.20000000298","","<p>You may take a short break if you wish.</p>","0","","","","","","","","","","","","","","","","","","","","","","","","","","","","","","","","",""
"html-keyboard-response","216","1093977","0.0-6.0-1.0-9.0","1","0","bzvttyq4nk2s41f","","null","","<p style=""font-size: 40px;"">+</p>","","null","","","","","","","","","","","","","","","","","","","","","","","","","","","","","","","",""
"html-keyboard-response","217","1278985","0.0-6.0-1.0-10.0","1","0","bzvttyq4nk2s41f","","null","","","","null","","","SL-TRAIN","","","0","1456.5","1342.2000000029802","sounds/A/TRAIN/SEQ__05.mp3","12","","","","","","","","","","","","","","","","","","","","","",""
"html-button-response","218","1291655","0.0-6.0-1.0-11.0","1","0","bzvttyq4nk2s41f","","12668.10000000894","","<p>You may take a short break if you wish.</p>","0","","","","","","","","","","","","","","","","","","","","","","","","","","","","","","","","",""
"html-button-response","219","1313848","0.0-7.0-0.0","1","0","bzvttyq4nk2s41f","","22191.5","","<p>Welcome to the second part of the study. This is a <u>familiarity task</u>.</p><p>You will now hear short sounds and will be asked to rate how familiar they sound to you <b>based on what you heard in the previous part of the study</b>.</p><p>You will rate 12 sounds in total.</p>","0","","","","","","","","","","","","","","","","","","","","","","","","","","","","","","","","",""
"html-keyboard-response","220","1314852","0.0-7.0-1.0-0.0","1","0","bzvttyq4nk2s41f","","null","","","","null","","","","","","","","","","","","","","","","","","","","","","","","","","","","","","","",""
"audio-keyboard-response","221","1316320","0.0-7.0-1.0-1.0","1","0","bzvttyq4nk2s41f","","null","","sounds/A/FAM/N002.mp3","","null","","","","","","","","","","","","","","","","","","","","","","","","","","","","","","","",""
"html-keyboard-response","222","1322542","0.0-7.0-1.0-2.0","1","0","bzvttyq4nk2s41f","","5719.899999991059","","<p>How familiar did this sound to you?</p><p>1&nbsp;&nbsp;&nbsp;&nbsp;&nbsp;&nbsp;&nbsp;&nbsp;&nbsp;&nbsp;&nbsp;&nbsp;&nbsp;&nbsp;&nbsp;&nbsp;&nbsp;&nbsp;&nbsp;2&nbsp;&nbsp;&nbsp;&nbsp;&nbsp;&nbsp;&nbsp;&nbsp;&nbsp;&nbsp;&nbsp;&nbsp;&nbsp;&nbsp;&nbsp;&nbsp;&nbsp;&nbsp;&nbsp;3&nbsp;&nbsp;&nbsp;&nbsp;&nbsp;&nbsp;&nbsp;&nbsp;&nbsp;&nbsp;&nbsp;&nbsp;&nbsp;&nbsp;&nbsp;&nbsp;&nbsp;&nbsp;&nbsp;4</p><p style=""font-size:14px"">Not at all familiar&nbsp;&nbsp;&nbsp;&nbsp;A little familiar&nbsp;&nbsp;&nbsp;Moderately familiar&nbsp;&nbsp;&nbsp;Extremely familiar</p><p>(press the corresponding number on your keyboard)</p>","","52","","","FAM-RESPONSE","","","","","","","","sounds/A/FAM/N002.mp3","nonword","","","","","","","","","","","","","","","","","","","",""
"html-keyboard-response","223","1324554","0.0-7.0-1.0-0.1","1","0","bzvttyq4nk2s41f","","null","","","","null","","","","","","","","","","","","","","","","","","","","","","","","","","","","","","","",""
"audio-keyboard-response","224","1325499","0.0-7.0-1.0-1.1","1","0","bzvttyq4nk2s41f","","null","","sounds/A/FAM/P002.mp3","","null","","","","","","","","","","","","","","","","","","","","","","","","","","","","","","","",""
"html-keyboard-response","225","1327900","0.0-7.0-1.0-2.1","1","0","bzvttyq4nk2s41f","","1899.5","","<p>How familiar did this sound to you?</p><p>1&nbsp;&nbsp;&nbsp;&nbsp;&nbsp;&nbsp;&nbsp;&nbsp;&nbsp;&nbsp;&nbsp;&nbsp;&nbsp;&nbsp;&nbsp;&nbsp;&nbsp;&nbsp;&nbsp;2&nbsp;&nbsp;&nbsp;&nbsp;&nbsp;&nbsp;&nbsp;&nbsp;&nbsp;&nbsp;&nbsp;&nbsp;&nbsp;&nbsp;&nbsp;&nbsp;&nbsp;&nbsp;&nbsp;3&nbsp;&nbsp;&nbsp;&nbsp;&nbsp;&nbsp;&nbsp;&nbsp;&nbsp;&nbsp;&nbsp;&nbsp;&nbsp;&nbsp;&nbsp;&nbsp;&nbsp;&nbsp;&nbsp;4</p><p style=""font-size:14px"">Not at all familiar&nbsp;&nbsp;&nbsp;&nbsp;A little familiar&nbsp;&nbsp;&nbsp;Moderately familiar&nbsp;&nbsp;&nbsp;Extremely familiar</p><p>(press the corresponding number on your keyboard)</p>","","51","","","FAM-RESPONSE","","","","","","","","sounds/A/FAM/P002.mp3","partword","","","","","","","","","","","","","","","","","","","",""
"html-keyboard-response","226","1329908","0.0-7.0-1.0-0.2","1","0","bzvttyq4nk2s41f","","null","","","","null","","","","","","","","","","","","","","","","","","","","","","","","","","","","","","","",""
"audio-keyboard-response","227","1330853","0.0-7.0-1.0-1.2","1","0","bzvttyq4nk2s41f","","null","","sounds/A/FAM/W003.mp3","","null","","","","","","","","","","","","","","","","","","","","","","","","","","","","","","","",""
"html-keyboard-response","228","1333530","0.0-7.0-1.0-2.2","1","0","bzvttyq4nk2s41f","","2170.7999999970198","","<p>How familiar did this sound to you?</p><p>1&nbsp;&nbsp;&nbsp;&nbsp;&nbsp;&nbsp;&nbsp;&nbsp;&nbsp;&nbsp;&nbsp;&nbsp;&nbsp;&nbsp;&nbsp;&nbsp;&nbsp;&nbsp;&nbsp;2&nbsp;&nbsp;&nbsp;&nbsp;&nbsp;&nbsp;&nbsp;&nbsp;&nbsp;&nbsp;&nbsp;&nbsp;&nbsp;&nbsp;&nbsp;&nbsp;&nbsp;&nbsp;&nbsp;3&nbsp;&nbsp;&nbsp;&nbsp;&nbsp;&nbsp;&nbsp;&nbsp;&nbsp;&nbsp;&nbsp;&nbsp;&nbsp;&nbsp;&nbsp;&nbsp;&nbsp;&nbsp;&nbsp;4</p><p style=""font-size:14px"">Not at all familiar&nbsp;&nbsp;&nbsp;&nbsp;A little familiar&nbsp;&nbsp;&nbsp;Moderately familiar&nbsp;&nbsp;&nbsp;Extremely familiar</p><p>(press the corresponding number on your keyboard)</p>","","52","","","FAM-RESPONSE","","","","","","","","sounds/A/FAM/W003.mp3","word","","","","","","","","","","","","","","","","","","","",""
"html-keyboard-response","229","1335540","0.0-7.0-1.0-0.3","1","0","bzvttyq4nk2s41f","","null","","","","null","","","","","","","","","","","","","","","","","","","","","","","","","","","","","","","",""
"audio-keyboard-response","230","1336485","0.0-7.0-1.0-1.3","1","0","bzvttyq4nk2s41f","","null","","sounds/A/FAM/N004.mp3","","null","","","","","","","","","","","","","","","","","","","","","","","","","","","","","","","",""
"html-keyboard-response","231","1339409","0.0-7.0-1.0-2.3","1","0","bzvttyq4nk2s41f","","2417.5","","<p>How familiar did this sound to you?</p><p>1&nbsp;&nbsp;&nbsp;&nbsp;&nbsp;&nbsp;&nbsp;&nbsp;&nbsp;&nbsp;&nbsp;&nbsp;&nbsp;&nbsp;&nbsp;&nbsp;&nbsp;&nbsp;&nbsp;2&nbsp;&nbsp;&nbsp;&nbsp;&nbsp;&nbsp;&nbsp;&nbsp;&nbsp;&nbsp;&nbsp;&nbsp;&nbsp;&nbsp;&nbsp;&nbsp;&nbsp;&nbsp;&nbsp;3&nbsp;&nbsp;&nbsp;&nbsp;&nbsp;&nbsp;&nbsp;&nbsp;&nbsp;&nbsp;&nbsp;&nbsp;&nbsp;&nbsp;&nbsp;&nbsp;&nbsp;&nbsp;&nbsp;4</p><p style=""font-size:14px"">Not at all familiar&nbsp;&nbsp;&nbsp;&nbsp;A little familiar&nbsp;&nbsp;&nbsp;Moderately familiar&nbsp;&nbsp;&nbsp;Extremely familiar</p><p>(press the corresponding number on your keyboard)</p>","","50","","","FAM-RESPONSE","","","","","","","","sounds/A/FAM/N004.mp3","nonword","","","","","","","","","","","","","","","","","","","",""
"html-keyboard-response","232","1341419","0.0-7.0-1.0-0.4","1","0","bzvttyq4nk2s41f","","null","","","","null","","","","","","","","","","","","","","","","","","","","","","","","","","","","","","","",""
"audio-keyboard-response","233","1342363","0.0-7.0-1.0-1.4","1","0","bzvttyq4nk2s41f","","null","","sounds/A/FAM/N003.mp3","","null","","","","","","","","","","","","","","","","","","","","","","","","","","","","","","","",""
"html-keyboard-response","234","1345129","0.0-7.0-1.0-2.4","1","0","bzvttyq4nk2s41f","","2260.0999999940395","","<p>How familiar did this sound to you?</p><p>1&nbsp;&nbsp;&nbsp;&nbsp;&nbsp;&nbsp;&nbsp;&nbsp;&nbsp;&nbsp;&nbsp;&nbsp;&nbsp;&nbsp;&nbsp;&nbsp;&nbsp;&nbsp;&nbsp;2&nbsp;&nbsp;&nbsp;&nbsp;&nbsp;&nbsp;&nbsp;&nbsp;&nbsp;&nbsp;&nbsp;&nbsp;&nbsp;&nbsp;&nbsp;&nbsp;&nbsp;&nbsp;&nbsp;3&nbsp;&nbsp;&nbsp;&nbsp;&nbsp;&nbsp;&nbsp;&nbsp;&nbsp;&nbsp;&nbsp;&nbsp;&nbsp;&nbsp;&nbsp;&nbsp;&nbsp;&nbsp;&nbsp;4</p><p style=""font-size:14px"">Not at all familiar&nbsp;&nbsp;&nbsp;&nbsp;A little familiar&nbsp;&nbsp;&nbsp;Moderately familiar&nbsp;&nbsp;&nbsp;Extremely familiar</p><p>(press the corresponding number on your keyboard)</p>","","50","","","FAM-RESPONSE","","","","","","","","sounds/A/FAM/N003.mp3","nonword","","","","","","","","","","","","","","","","","","","",""
"html-keyboard-response","235","1347138","0.0-7.0-1.0-0.5","1","0","bzvttyq4nk2s41f","","null","","","","null","","","","","","","","","","","","","","","","","","","","","","","","","","","","","","","",""
"audio-keyboard-response","236","1348080","0.0-7.0-1.0-1.5","1","0","bzvttyq4nk2s41f","","null","","sounds/A/FAM/W002.mp3","","null","","","","","","","","","","","","","","","","","","","","","","","","","","","","","","","",""
"html-keyboard-response","237","1350236","0.0-7.0-1.0-2.5","1","0","bzvttyq4nk2s41f","","1652.2999999970198","","<p>How familiar did this sound to you?</p><p>1&nbsp;&nbsp;&nbsp;&nbsp;&nbsp;&nbsp;&nbsp;&nbsp;&nbsp;&nbsp;&nbsp;&nbsp;&nbsp;&nbsp;&nbsp;&nbsp;&nbsp;&nbsp;&nbsp;2&nbsp;&nbsp;&nbsp;&nbsp;&nbsp;&nbsp;&nbsp;&nbsp;&nbsp;&nbsp;&nbsp;&nbsp;&nbsp;&nbsp;&nbsp;&nbsp;&nbsp;&nbsp;&nbsp;3&nbsp;&nbsp;&nbsp;&nbsp;&nbsp;&nbsp;&nbsp;&nbsp;&nbsp;&nbsp;&nbsp;&nbsp;&nbsp;&nbsp;&nbsp;&nbsp;&nbsp;&nbsp;&nbsp;4</p><p style=""font-size:14px"">Not at all familiar&nbsp;&nbsp;&nbsp;&nbsp;A little familiar&nbsp;&nbsp;&nbsp;Moderately familiar&nbsp;&nbsp;&nbsp;Extremely familiar</p><p>(press the corresponding number on your keyboard)</p>","","52","","","FAM-RESPONSE","","","","","","","","sounds/A/FAM/W002.mp3","word","","","","","","","","","","","","","","","","","","","",""
"html-keyboard-response","238","1352242","0.0-7.0-1.0-0.6","1","0","bzvttyq4nk2s41f","","null","","","","null","","","","","","","","","","","","","","","","","","","","","","","","","","","","","","","",""
"audio-keyboard-response","239","1353184","0.0-7.0-1.0-1.6","1","0","bzvttyq4nk2s41f","","null","","sounds/A/FAM/W004.mp3","","null","","","","","","","","","","","","","","","","","","","","","","","","","","","","","","","",""
"html-keyboard-response","240","1355290","0.0-7.0-1.0-2.6","1","0","bzvttyq4nk2s41f","","1600.0999999940395","","<p>How familiar did this sound to you?</p><p>1&nbsp;&nbsp;&nbsp;&nbsp;&nbsp;&nbsp;&nbsp;&nbsp;&nbsp;&nbsp;&nbsp;&nbsp;&nbsp;&nbsp;&nbsp;&nbsp;&nbsp;&nbsp;&nbsp;2&nbsp;&nbsp;&nbsp;&nbsp;&nbsp;&nbsp;&nbsp;&nbsp;&nbsp;&nbsp;&nbsp;&nbsp;&nbsp;&nbsp;&nbsp;&nbsp;&nbsp;&nbsp;&nbsp;3&nbsp;&nbsp;&nbsp;&nbsp;&nbsp;&nbsp;&nbsp;&nbsp;&nbsp;&nbsp;&nbsp;&nbsp;&nbsp;&nbsp;&nbsp;&nbsp;&nbsp;&nbsp;&nbsp;4</p><p style=""font-size:14px"">Not at all familiar&nbsp;&nbsp;&nbsp;&nbsp;A little familiar&nbsp;&nbsp;&nbsp;Moderately familiar&nbsp;&nbsp;&nbsp;Extremely familiar</p><p>(press the corresponding number on your keyboard)</p>","","51","","","FAM-RESPONSE","","","","","","","","sounds/A/FAM/W004.mp3","word","","","","","","","","","","","","","","","","","","","",""
"html-keyboard-response","241","1357298","0.0-7.0-1.0-0.7","1","0","bzvttyq4nk2s41f","","null","","","","null","","","","","","","","","","","","","","","","","","","","","","","","","","","","","","","",""
"audio-keyboard-response","242","1358240","0.0-7.0-1.0-1.7","1","0","bzvttyq4nk2s41f","","null","","sounds/A/FAM/P001.mp3","","null","","","","","","","","","","","","","","","","","","","","","","","","","","","","","","","",""
"html-keyboard-response","243","1363087","0.0-7.0-1.0-2.7","1","0","bzvttyq4nk2s41f","","4345.20000000298","","<p>How familiar did this sound to you?</p><p>1&nbsp;&nbsp;&nbsp;&nbsp;&nbsp;&nbsp;&nbsp;&nbsp;&nbsp;&nbsp;&nbsp;&nbsp;&nbsp;&nbsp;&nbsp;&nbsp;&nbsp;&nbsp;&nbsp;2&nbsp;&nbsp;&nbsp;&nbsp;&nbsp;&nbsp;&nbsp;&nbsp;&nbsp;&nbsp;&nbsp;&nbsp;&nbsp;&nbsp;&nbsp;&nbsp;&nbsp;&nbsp;&nbsp;3&nbsp;&nbsp;&nbsp;&nbsp;&nbsp;&nbsp;&nbsp;&nbsp;&nbsp;&nbsp;&nbsp;&nbsp;&nbsp;&nbsp;&nbsp;&nbsp;&nbsp;&nbsp;&nbsp;4</p><p style=""font-size:14px"">Not at all familiar&nbsp;&nbsp;&nbsp;&nbsp;A little familiar&nbsp;&nbsp;&nbsp;Moderately familiar&nbsp;&nbsp;&nbsp;Extremely familiar</p><p>(press the corresponding number on your keyboard)</p>","","51","","","FAM-RESPONSE","","","","","","","","sounds/A/FAM/P001.mp3","partword","","","","","","","","","","","","","","","","","","","",""
"html-keyboard-response","244","1365098","0.0-7.0-1.0-0.8","1","0","bzvttyq4nk2s41f","","null","","","","null","","","","","","","","","","","","","","","","","","","","","","","","","","","","","","","",""
"audio-keyboard-response","245","1366043","0.0-7.0-1.0-1.8","1","0","bzvttyq4nk2s41f","","null","","sounds/A/FAM/N001.mp3","","null","","","","","","","","","","","","","","","","","","","","","","","","","","","","","","","",""
"html-keyboard-response","246","1371027","0.0-7.0-1.0-2.8","1","0","bzvttyq4nk2s41f","","4480.79999999702","","<p>How familiar did this sound to you?</p><p>1&nbsp;&nbsp;&nbsp;&nbsp;&nbsp;&nbsp;&nbsp;&nbsp;&nbsp;&nbsp;&nbsp;&nbsp;&nbsp;&nbsp;&nbsp;&nbsp;&nbsp;&nbsp;&nbsp;2&nbsp;&nbsp;&nbsp;&nbsp;&nbsp;&nbsp;&nbsp;&nbsp;&nbsp;&nbsp;&nbsp;&nbsp;&nbsp;&nbsp;&nbsp;&nbsp;&nbsp;&nbsp;&nbsp;3&nbsp;&nbsp;&nbsp;&nbsp;&nbsp;&nbsp;&nbsp;&nbsp;&nbsp;&nbsp;&nbsp;&nbsp;&nbsp;&nbsp;&nbsp;&nbsp;&nbsp;&nbsp;&nbsp;4</p><p style=""font-size:14px"">Not at all familiar&nbsp;&nbsp;&nbsp;&nbsp;A little familiar&nbsp;&nbsp;&nbsp;Moderately familiar&nbsp;&nbsp;&nbsp;Extremely familiar</p><p>(press the corresponding number on your keyboard)</p>","","52","","","FAM-RESPONSE","","","","","","","","sounds/A/FAM/N001.mp3","nonword","","","","","","","","","","","","","","","","","","","",""
"html-keyboard-response","247","1373038","0.0-7.0-1.0-0.9","1","0","bzvttyq4nk2s41f","","null","","","","null","","","","","","","","","","","","","","","","","","","","","","","","","","","","","","","",""
"audio-keyboard-response","248","1373984","0.0-7.0-1.0-1.9","1","0","bzvttyq4nk2s41f","","null","","sounds/A/FAM/P004.mp3","","null","","","","","","","","","","","","","","","","","","","","","","","","","","","","","","","",""
"html-keyboard-response","249","1375284","0.0-7.0-1.0-2.9","1","0","bzvttyq4nk2s41f","","793.0999999940395","","<p>How familiar did this sound to you?</p><p>1&nbsp;&nbsp;&nbsp;&nbsp;&nbsp;&nbsp;&nbsp;&nbsp;&nbsp;&nbsp;&nbsp;&nbsp;&nbsp;&nbsp;&nbsp;&nbsp;&nbsp;&nbsp;&nbsp;2&nbsp;&nbsp;&nbsp;&nbsp;&nbsp;&nbsp;&nbsp;&nbsp;&nbsp;&nbsp;&nbsp;&nbsp;&nbsp;&nbsp;&nbsp;&nbsp;&nbsp;&nbsp;&nbsp;3&nbsp;&nbsp;&nbsp;&nbsp;&nbsp;&nbsp;&nbsp;&nbsp;&nbsp;&nbsp;&nbsp;&nbsp;&nbsp;&nbsp;&nbsp;&nbsp;&nbsp;&nbsp;&nbsp;4</p><p style=""font-size:14px"">Not at all familiar&nbsp;&nbsp;&nbsp;&nbsp;A little familiar&nbsp;&nbsp;&nbsp;Moderately familiar&nbsp;&nbsp;&nbsp;Extremely familiar</p><p>(press the corresponding number on your keyboard)</p>","","52","","","FAM-RESPONSE","","","","","","","","sounds/A/FAM/P004.mp3","partword","","","","","","","","","","","","","","","","","","","",""
"html-keyboard-response","250","1377289","0.0-7.0-1.0-0.10","1","0","bzvttyq4nk2s41f","","null","","","","null","","","","","","","","","","","","","","","","","","","","","","","","","","","","","","","",""
"audio-keyboard-response","251","1378235","0.0-7.0-1.0-1.10","1","0","bzvttyq4nk2s41f","","null","","sounds/A/FAM/P003.mp3","","null","","","","","","","","","","","","","","","","","","","","","","","","","","","","","","","",""
"html-keyboard-response","252","1380977","0.0-7.0-1.0-2.10","1","0","bzvttyq4nk2s41f","","2235.5","","<p>How familiar did this sound to you?</p><p>1&nbsp;&nbsp;&nbsp;&nbsp;&nbsp;&nbsp;&nbsp;&nbsp;&nbsp;&nbsp;&nbsp;&nbsp;&nbsp;&nbsp;&nbsp;&nbsp;&nbsp;&nbsp;&nbsp;2&nbsp;&nbsp;&nbsp;&nbsp;&nbsp;&nbsp;&nbsp;&nbsp;&nbsp;&nbsp;&nbsp;&nbsp;&nbsp;&nbsp;&nbsp;&nbsp;&nbsp;&nbsp;&nbsp;3&nbsp;&nbsp;&nbsp;&nbsp;&nbsp;&nbsp;&nbsp;&nbsp;&nbsp;&nbsp;&nbsp;&nbsp;&nbsp;&nbsp;&nbsp;&nbsp;&nbsp;&nbsp;&nbsp;4</p><p style=""font-size:14px"">Not at all familiar&nbsp;&nbsp;&nbsp;&nbsp;A little familiar&nbsp;&nbsp;&nbsp;Moderately familiar&nbsp;&nbsp;&nbsp;Extremely familiar</p><p>(press the corresponding number on your keyboard)</p>","","50","","","FAM-RESPONSE","","","","","","","","sounds/A/FAM/P003.mp3","partword","","","","","","","","","","","","","","","","","","","",""
"html-keyboard-response","253","1382985","0.0-7.0-1.0-0.11","1","0","bzvttyq4nk2s41f","","null","","","","null","","","","","","","","","","","","","","","","","","","","","","","","","","","","","","","",""
"audio-keyboard-response","254","1383931","0.0-7.0-1.0-1.11","1","0","bzvttyq4nk2s41f","","null","","sounds/A/FAM/W001.mp3","","null","","","","","","","","","","","","","","","","","","","","","","","","","","","","","","","",""
"html-keyboard-response","255","1386039","0.0-7.0-1.0-2.11","1","0","bzvttyq4nk2s41f","","1601.9000000059605","","<p>How familiar did this sound to you?</p><p>1&nbsp;&nbsp;&nbsp;&nbsp;&nbsp;&nbsp;&nbsp;&nbsp;&nbsp;&nbsp;&nbsp;&nbsp;&nbsp;&nbsp;&nbsp;&nbsp;&nbsp;&nbsp;&nbsp;2&nbsp;&nbsp;&nbsp;&nbsp;&nbsp;&nbsp;&nbsp;&nbsp;&nbsp;&nbsp;&nbsp;&nbsp;&nbsp;&nbsp;&nbsp;&nbsp;&nbsp;&nbsp;&nbsp;3&nbsp;&nbsp;&nbsp;&nbsp;&nbsp;&nbsp;&nbsp;&nbsp;&nbsp;&nbsp;&nbsp;&nbsp;&nbsp;&nbsp;&nbsp;&nbsp;&nbsp;&nbsp;&nbsp;4</p><p style=""font-size:14px"">Not at all familiar&nbsp;&nbsp;&nbsp;&nbsp;A little familiar&nbsp;&nbsp;&nbsp;Moderately familiar&nbsp;&nbsp;&nbsp;Extremely familiar</p><p>(press the corresponding number on your keyboard)</p>","","50","","","FAM-RESPONSE","","","","","","","","sounds/A/FAM/W001.mp3","word","","","","","","","","","","","","","","","","","","","",""
"html-button-response","256","1396337","0.0-8.0-0.0","1","0","bzvttyq4nk2s41f","","9291.79999999702","","<p>You will now listen to longer sound sequences.</p><p>Each sound sequence will last about 16 seconds.</p><p>On each trial, you will be given a <u>TARGET SOUND</u>. Your task is to listen very carefully for this sound.</p><p>Every time you hear the <u>TARGET SOUND</u>, you will press the <b>SPACEBAR</b> as quickly and accurately as you can.</p>","0","","","","","","","","","","","","","","","","","","","","","","","","","","","","","","","","",""
"html-button-response","257","1403982","0.0-8.0-1.0","1","0","bzvttyq4nk2s41f","","7389.899999991059","","<p>It is very important that you make your responses as quickly and accurately as possible.</p><p>To help you make your responses, you will be able to listen to the <u>TARGET SOUND</u> at the beginning of each trial.</p><p>There will be 36 total trials.</p><p><b>Note: This is meant to be a difficult task. We simply want you to try your best.</p>","0","","","","","","","","","","","","","","","","","","","","","","","","","","","","","","","","",""
"html-button-response","258","1406883","0.0-8.0-2.0-0.0","1","0","bzvttyq4nk2s41f","","2645.7000000029802","","<p>Trial 1 of 36</p>","0","","","","","","","","","","","","","","TI","sounds/syllables/ti_SWS.wav","3000,4800,8400,11100","2","","","","","","","","","","","","","","","",""
"html-keyboard-response","259","1408874","0.0-8.0-2.0-1.0","1","0","bzvttyq4nk2s41f","","1989.2000000029802","","","","80","","","","","","","","","","","","","TI","","3000,4800,8400,11100","2","","","","","","","","","","","","","","","",""
"audio-keyboard-response","260","1409178","0.0-8.0-2.0-2.0-0.0","1","0","bzvttyq4nk2s41f","","null","","sounds/syllables/ti_SWS.wav","","null","","","","","","","","","","","","","","","","","","","","","","","","","","","","","","","",""
"html-keyboard-response","261","1411953","0.0-8.0-2.0-2.0-1.0","1","0","bzvttyq4nk2s41f","","2773.8999999910593","","<p>To replay the <u>TARGET SOUND</u>, press P.</p> When you are ready to begin, press SPACEBAR.","","80","","","","","","","","","","","","","","","","","","","","","","","","","","","","","","","",""
"audio-keyboard-response","262","1412757","0.0-8.0-2.0-2.1-0.1","1","0","bzvttyq4nk2s41f","","null","","sounds/syllables/ti_SWS.wav","","null","","","","","","","","","","","","","","","","","","","","","","","","","","","","","","","",""
"html-keyboard-response","263","1413420","0.0-8.0-2.0-2.1-1.1","1","0","bzvttyq4nk2s41f","","662.0999999940395","","<p>To replay the <u>TARGET SOUND</u>, press P.</p> When you are ready to begin, press SPACEBAR.","","32","","","","","","","","","","","","","","","","","","","","","","","","","","","","","","","",""
"audio-keyboard-response","264","1428373","0.0-8.0-2.0-3.0","1","0","bzvttyq4nk2s41f","","1163","","sounds/A/TD/TI_08_TD.mp3","","32","","","TD_SUMMARY","","","","","","","","","","TI","","3000,4800,8400,11100","2","3000","4800","8400","11100","580.2999999970198","312.20000000298023","null","null","1164.2999999970198_3580.2999999970198_5112.20000000298_7080.29999999702_10688.09999999404_12431.5_13763.79999999702","2","","","","","",""
"html-button-response","265","1429975","0.0-8.0-2.0-0.1","1","0","bzvttyq4nk2s41f","","1597.7999999970198","","<p>Trial 2 of 36</p>","0","","","","","","","","","","","","","","TA","sounds/syllables/ta_SWS.wav","900,5400,10800,12600","1","","","","","","","","","","","","","","","",""
"html-keyboard-response","266","1431922","0.0-8.0-2.0-1.1","1","0","bzvttyq4nk2s41f","","1944.9000000059605","","","","80","","","","","","","","","","","","","TA","","900,5400,10800,12600","1","","","","","","","","","","","","","","","",""
"audio-keyboard-response","267","1432223","0.0-8.0-2.0-2.2-0.2","1","0","bzvttyq4nk2s41f","","null","","sounds/syllables/ta_SWS.wav","","null","","","","","","","","","","","","","","","","","","","","","","","","","","","","","","","",""
"html-keyboard-response","268","1433974","0.0-8.0-2.0-2.2-1.2","1","0","bzvttyq4nk2s41f","","1748.7999999970198","","<p>To replay the <u>TARGET SOUND</u>, press P.</p> When you are ready to begin, press SPACEBAR.","","80","","","","","","","","","","","","","","","","","","","","","","","","","","","","","","","",""
"audio-keyboard-response","269","1434783","0.0-8.0-2.0-2.3-0.3","1","0","bzvttyq4nk2s41f","","null","","sounds/syllables/ta_SWS.wav","","null","","","","","","","","","","","","","","","","","","","","","","","","","","","","","","","",""
"html-keyboard-response","270","1435619","0.0-8.0-2.0-2.3-1.3","1","0","bzvttyq4nk2s41f","","833.9000000059605","","<p>To replay the <u>TARGET SOUND</u>, press P.</p> When you are ready to begin, press SPACEBAR.","","32","","","","","","","","","","","","","","","","","","","","","","","","","","","","","","","",""
"audio-keyboard-response","271","1450565","0.0-8.0-2.0-3.1","1","0","bzvttyq4nk2s41f","","485","","sounds/A/TD/TA_07_TD.mp3","","32","","","TD_SUMMARY","","","","","","","","","","TA","","900,5400,10800,12600","1","900","5400","10800","12600","824.3000000119209","468","790","576.9000000059605","_______485.1000000089407_1724.300000011921_3031.1000000089407_4450.800000011921_5868_7776.300000011921_9241.20000000298_11590_13176.90000000596","2","","","","","",""
"html-button-response","272","1452516","0.0-8.0-2.0-0.2","1","0","bzvttyq4nk2s41f","","1946.7000000029802","","<p>Trial 3 of 36</p>","0","","","","","","","","","","","","","","NI","sounds/syllables/ni_SWS.wav","2400,4200,6000,10500","3","","","","","","","","","","","","","","","",""
"html-keyboard-response","273","1454166","0.0-8.0-2.0-1.2","1","0","bzvttyq4nk2s41f","","1648.1000000089407","","","","80","","","","","","","","","","","","","NI","","2400,4200,6000,10500","3","","","","","","","","","","","","","","","",""
"audio-keyboard-response","274","1454469","0.0-8.0-2.0-2.4-0.4","1","0","bzvttyq4nk2s41f","","null","","sounds/syllables/ni_SWS.wav","","null","","","","","","","","","","","","","","","","","","","","","","","","","","","","","","","",""
"html-keyboard-response","275","1455339","0.0-8.0-2.0-2.4-1.4","1","0","bzvttyq4nk2s41f","","868.2999999970198","","<p>To replay the <u>TARGET SOUND</u>, press P.</p> When you are ready to begin, press SPACEBAR.","","80","","","","","","","","","","","","","","","","","","","","","","","","","","","","","","","",""
"audio-keyboard-response","276","1456143","0.0-8.0-2.0-2.5-0.5","1","0","bzvttyq4nk2s41f","","null","","sounds/syllables/ni_SWS.wav","","null","","","","","","","","","","","","","","","","","","","","","","","","","","","","","","","",""
"html-keyboard-response","277","1456766","0.0-8.0-2.0-2.5-1.5","1","0","bzvttyq4nk2s41f","","621.2999999970198","","<p>To replay the <u>TARGET SOUND</u>, press P.</p> When you are ready to begin, press SPACEBAR.","","32","","","","","","","","","","","","","","","","","","","","","","","","","","","","","","","",""
"audio-keyboard-response","278","1471717","0.0-8.0-2.0-3.2","1","0","bzvttyq4nk2s41f","","1808","","sounds/A/TD/NI_09_TD.mp3","","32","","","TD_SUMMARY","","","","","","","","","","NI","","2400,4200,6000,10500","3","2400","4200","6000","10500","707.2999999970198","617.6999999880791","591.5999999940395","685.3999999910593","________________1807.5999999940395_3107.2999999970198_3648.5_4817.699999988079_6591.5999999940395_7209.199999988079_8917.39999999106_10965.29999999702_11185.39999999106_12709.29999999702","2","","","","","",""
"html-button-response","279","1472983","0.0-8.0-2.0-0.3","1","0","bzvttyq4nk2s41f","","1263.2999999970198","","<p>Trial 4 of 36</p>","0","","","","","","","","","","","","","","KO","sounds/syllables/ko_SWS.wav","3300,5100,9600,11400","3","","","","","","","","","","","","","","","",""
"html-keyboard-response","280","1475010","0.0-8.0-2.0-1.3","1","0","bzvttyq4nk2s41f","","2025.5999999940395","","","","80","","","","","","","","","","","","","KO","","3300,5100,9600,11400","3","","","","","","","","","","","","","","","",""
"audio-keyboard-response","281","1475311","0.0-8.0-2.0-2.6-0.6","1","0","bzvttyq4nk2s41f","","null","","sounds/syllables/ko_SWS.wav","","null","","","","","","","","","","","","","","","","","","","","","","","","","","","","","","","",""
"html-keyboard-response","282","1476601","0.0-8.0-2.0-2.6-1.6","1","0","bzvttyq4nk2s41f","","1288.5","","<p>To replay the <u>TARGET SOUND</u>, press P.</p> When you are ready to begin, press SPACEBAR.","","80","","","","","","","","","","","","","","","","","","","","","","","","","","","","","","","",""
"audio-keyboard-response","283","1477407","0.0-8.0-2.0-2.7-0.7","1","0","bzvttyq4nk2s41f","","null","","sounds/syllables/ko_SWS.wav","","null","","","","","","","","","","","","","","","","","","","","","","","","","","","","","","","",""
"html-keyboard-response","284","1478190","0.0-8.0-2.0-2.7-1.7","1","0","bzvttyq4nk2s41f","","780.5","","<p>To replay the <u>TARGET SOUND</u>, press P.</p> When you are ready to begin, press SPACEBAR.","","32","","","","","","","","","","","","","","","","","","","","","","","","","","","","","","","",""
"audio-keyboard-response","285","1493141","0.0-8.0-2.0-3.3","1","0","bzvttyq4nk2s41f","","837","","sounds/A/TD/KO_01_TD.mp3","","32","","","TD_SUMMARY","","","","","","","","","","KO","","3300,5100,9600,11400","3","3300","5100","9600","11400","null","null","null","232.70000000298023","__________________________837_2089.6000000089407_3189.4000000059605_4667.600000008941_6570.5_7261.5_9105.70000000298_10847.90000000596_11632.70000000298_12953.60000000894","2","","","","","",""
"html-button-response","286","1494793","0.0-8.0-2.0-0.4","1","0","bzvttyq4nk2s41f","","1648.7000000029802","","<p>Trial 5 of 36</p>","0","","","","","","","","","","","","","","FE","sounds/syllables/fe_SWS.wav","900,7200,9000,11700","1","","","","","","","","","","","","","","","",""
"html-keyboard-response","287","1496481","0.0-8.0-2.0-1.4","1","0","bzvttyq4nk2s41f","","1686.2000000029802","","","","80","","","","","","","","","","","","","FE","","900,7200,9000,11700","1","","","","","","","","","","","","","","","",""
"audio-keyboard-response","288","1496783","0.0-8.0-2.0-2.8-0.8","1","0","bzvttyq4nk2s41f","","null","","sounds/syllables/fe_SWS.wav","","null","","","","","","","","","","","","","","","","","","","","","","","","","","","","","","","",""
"html-keyboard-response","289","1497777","0.0-8.0-2.0-2.8-1.8","1","0","bzvttyq4nk2s41f","","992.3000000119209","","<p>To replay the <u>TARGET SOUND</u>, press P.</p> When you are ready to begin, press SPACEBAR.","","80","","","","","","","","","","","","","","","","","","","","","","","","","","","","","","","",""
"audio-keyboard-response","290","1498586","0.0-8.0-2.0-2.9-0.9","1","0","bzvttyq4nk2s41f","","null","","sounds/syllables/fe_SWS.wav","","null","","","","","","","","","","","","","","","","","","","","","","","","","","","","","","","",""
"html-keyboard-response","291","1499058","0.0-8.0-2.0-2.9-1.9","1","0","bzvttyq4nk2s41f","","470.5","","<p>To replay the <u>TARGET SOUND</u>, press P.</p> When you are ready to begin, press SPACEBAR.","","32","","","","","","","","","","","","","","","","","","","","","","","","","","","","","","","",""
"audio-keyboard-response","292","1514011","0.0-8.0-2.0-3.4","1","0","bzvttyq4nk2s41f","","491","","sounds/A/TD/FE_10_TD.mp3","","32","","","TD_SUMMARY","","","","","","","","","","FE","","900,7200,9000,11700","1","900","7200","9000","11700","null","1070.9000000059605","null","null","____________________________________492_3259.7000000029802_3939.4000000059605_8270.90000000596_8787_11809.40000000596_13691.20000000298","2","","","","","",""
"html-button-response","293","1515771","0.0-8.0-2.0-0.5","1","0","bzvttyq4nk2s41f","","1757.4000000059605","","<p>Trial 6 of 36</p>","0","","","","","","","","","","","","","","SU","sounds/syllables/su_SWS.wav","4200,6900,8700,13200","3","","","","","","","","","","","","","","","",""
"html-keyboard-response","294","1516892","0.0-8.0-2.0-1.5","1","0","bzvttyq4nk2s41f","","1119","","","","80","","","","","","","","","","","","","SU","","4200,6900,8700,13200","3","","","","","","","","","","","","","","","",""
"audio-keyboard-response","295","1517194","0.0-8.0-2.0-2.10-0.10","1","0","bzvttyq4nk2s41f","","null","","sounds/syllables/su_SWS.wav","","null","","","","","","","","","","","","","","","","","","","","","","","","","","","","","","","",""
"html-keyboard-response","296","1517775","0.0-8.0-2.0-2.10-1.10","1","0","bzvttyq4nk2s41f","","579.7999999970198","","<p>To replay the <u>TARGET SOUND</u>, press P.</p> When you are ready to begin, press SPACEBAR.","","80","","","","","","","","","","","","","","","","","","","","","","","","","","","","","","","",""
"audio-keyboard-response","297","1518581","0.0-8.0-2.0-2.11-0.11","1","0","bzvttyq4nk2s41f","","null","","sounds/syllables/su_SWS.wav","","null","","","","","","","","","","","","","","","","","","","","","","","","","","","","","","","",""
"html-keyboard-response","298","1519337","0.0-8.0-2.0-2.11-1.11","1","0","bzvttyq4nk2s41f","","754.5","","<p>To replay the <u>TARGET SOUND</u>, press P.</p> When you are ready to begin, press SPACEBAR.","","32","","","","","","","","","","","","","","","","","","","","","","","","","","","","","","","",""
"audio-keyboard-response","299","1534283","0.0-8.0-2.0-3.5","1","0","bzvttyq4nk2s41f","","528","","sounds/A/TD/SU_06_TD.mp3","","32","","","TD_SUMMARY","","","","","","","","","","SU","","4200,6900,8700,13200","3","4200","6900","8700","13200","1128.2000000029802","999.8999999910593","970.2999999970198","326.09999999403954","___________________________________________525_2122.8999999910593_4738.20000000298_5328.20000000298_7899.899999991059_9670.29999999702_12050.89999999106_13526.09999999404","2","","","","","",""
"html-button-response","300","1607049","0.0-8.0-2.0-0.6","1","0","bzvttyq4nk2s41f","","72763.29999999702","","<p>Trial 7 of 36</p>","0","","","","","","","","","","","","","","NI","sounds/syllables/ni_SWS.wav","1500,6900,8700,10500","3","","","","","","","","","","","","","","","",""
"html-keyboard-response","301","1613054","0.0-8.0-2.0-1.6","1","0","bzvttyq4nk2s41f","","6002.5999999940395","","","","80","","","","","","","","","","","","","NI","","1500,6900,8700,10500","3","","","","","","","","","","","","","","","",""
"audio-keyboard-response","302","1613738","0.0-8.0-2.0-2.12-0.12","1","0","bzvttyq4nk2s41f","","null","","sounds/syllables/ni_SWS.wav","","null","","","","","","","","","","","","","","","","","","","","","","","","","","","","","","","",""
"html-keyboard-response","303","1614251","0.0-8.0-2.0-2.12-1.12","1","0","bzvttyq4nk2s41f","","510.70000000298023","","<p>To replay the <u>TARGET SOUND</u>, press P.</p> When you are ready to begin, press SPACEBAR.","","80","","","","","","","","","","","","","","","","","","","","","","","","","","","","","","","",""
"audio-keyboard-response","304","1615056","0.0-8.0-2.0-2.13-0.13","1","0","bzvttyq4nk2s41f","","null","","sounds/syllables/ni_SWS.wav","","null","","","","","","","","","","","","","","","","","","","","","","","","","","","","","","","",""
"html-keyboard-response","305","1615559","0.0-8.0-2.0-2.13-1.13","1","0","bzvttyq4nk2s41f","","501.29999999701977","","<p>To replay the <u>TARGET SOUND</u>, press P.</p> When you are ready to begin, press SPACEBAR.","","32","","","","","","","","","","","","","","","","","","","","","","","","","","","","","","","",""
"audio-keyboard-response","306","1630507","0.0-8.0-2.0-3.6","1","0","bzvttyq4nk2s41f","","565","","sounds/A/TD/NI_06_TD.mp3","","32","","","TD_SUMMARY","","","","","","","","","","NI","","1500,6900,8700,10500","3","1500","6900","8700","10500","564.9000000059605","1189","650.9000000059605","null","___________________________________________________562.9000000059605_2064.9000000059605_2801_4284_5170_6830.300000011921_8089_9350.90000000596_10541.10000000894_11927_13237.20000000298","2","","","","","",""
"html-button-response","307","1666603","0.0-8.0-2.0-0.7","1","0","bzvttyq4nk2s41f","","36093.59999999404","","<p>Trial 8 of 36</p>","0","","","","","","","","","","","","","","ME","sounds/syllables/me_SWS.wav","6000,7800,11400,13200","3","","","","","","","","","","","","","","","",""
"html-keyboard-response","308","1668001","0.0-8.0-2.0-1.7","1","0","bzvttyq4nk2s41f","","1395.5","","","","80","","","","","","","","","","","","","ME","","6000,7800,11400,13200","3","","","","","","","","","","","","","","","",""
"audio-keyboard-response","309","1668701","0.0-8.0-2.0-2.14-0.14","1","0","bzvttyq4nk2s41f","","null","","sounds/syllables/me_SWS.wav","","null","","","","","","","","","","","","","","","","","","","","","","","","","","","","","","","",""
"html-keyboard-response","310","1674261","0.0-8.0-2.0-2.14-1.14","1","0","bzvttyq4nk2s41f","","5558.4000000059605","","<p>To replay the <u>TARGET SOUND</u>, press P.</p> When you are ready to begin, press SPACEBAR.","","80","","","","","","","","","","","","","","","","","","","","","","","","","","","","","","","",""
"audio-keyboard-response","311","1675065","0.0-8.0-2.0-2.15-0.15","1","0","bzvttyq4nk2s41f","","null","","sounds/syllables/me_SWS.wav","","null","","","","","","","","","","","","","","","","","","","","","","","","","","","","","","","",""
"html-keyboard-response","312","1676130","0.0-8.0-2.0-2.15-1.15","1","0","bzvttyq4nk2s41f","","1063.8999999910593","","<p>To replay the <u>TARGET SOUND</u>, press P.</p> When you are ready to begin, press SPACEBAR.","","80","","","","","","","","","","","","","","","","","","","","","","","","","","","","","","","",""
"audio-keyboard-response","313","1676931","0.0-8.0-2.0-2.16-0.16","1","0","bzvttyq4nk2s41f","","null","","sounds/syllables/me_SWS.wav","","null","","","","","","","","","","","","","","","","","","","","","","","","","","","","","","","",""
"html-keyboard-response","314","1677752","0.0-8.0-2.0-2.16-1.16","1","0","bzvttyq4nk2s41f","","818.9000000059605","","<p>To replay the <u>TARGET SOUND</u>, press P.</p> When you are ready to begin, press SPACEBAR.","","32","","","","","","","","","","","","","","","","","","","","","","","","","","","","","","","",""
"audio-keyboard-response","315","1692702","0.0-8.0-2.0-3.7","1","0","bzvttyq4nk2s41f","","587","","sounds/A/TD/ME_07_TD.mp3","","32","","","TD_SUMMARY","","","","","","","","","","ME","","6000,7800,11400,13200","3","6000","7800","11400","13200","1190.699999988079","null","null","440.59999999403954","______________________________________________________________587.1999999880791_1437.5999999940395_3735.0999999940395_5327.79999999702_7190.699999988079_9275.79999999702_11575.39999999106_13640.59999999404","3","","","","","",""
"html-button-response","316","1718060","0.0-8.0-2.0-0.8","1","0","bzvttyq4nk2s41f","","25353.89999999106","","<p>Trial 9 of 36</p>","0","","","","","","","","","","","","","","KO","sounds/syllables/ko_SWS.wav","2400,4200,6900,8700","3","","","","","","","","","","","","","","","",""
"html-keyboard-response","317","1719095","0.0-8.0-2.0-1.8","1","0","bzvttyq4nk2s41f","","1032.7999999970198","","","","80","","","","","","","","","","","","","KO","","2400,4200,6900,8700","3","","","","","","","","","","","","","","","",""
"audio-keyboard-response","318","1719400","0.0-8.0-2.0-2.17-0.17","1","0","bzvttyq4nk2s41f","","null","","sounds/syllables/ko_SWS.wav","","null","","","","","","","","","","","","","","","","","","","","","","","","","","","","","","","",""
"html-keyboard-response","319","1719995","0.0-8.0-2.0-2.17-1.17","1","0","bzvttyq4nk2s41f","","592.7999999970198","","<p>To replay the <u>TARGET SOUND</u>, press P.</p> When you are ready to begin, press SPACEBAR.","","80","","","","","","","","","","","","","","","","","","","","","","","","","","","","","","","",""
"audio-keyboard-response","320","1720798","0.0-8.0-2.0-2.18-0.18","1","0","bzvttyq4nk2s41f","","null","","sounds/syllables/ko_SWS.wav","","null","","","","","","","","","","","","","","","","","","","","","","","","","","","","","","","",""
"html-keyboard-response","321","1721299","0.0-8.0-2.0-2.18-1.18","1","0","bzvttyq4nk2s41f","","500.20000000298023","","<p>To replay the <u>TARGET SOUND</u>, press P.</p> When you are ready to begin, press SPACEBAR.","","80","","","","","","","","","","","","","","","","","","","","","","","","","","","","","","","",""
"audio-keyboard-response","322","1722104","0.0-8.0-2.0-2.19-0.19","1","0","bzvttyq4nk2s41f","","null","","sounds/syllables/ko_SWS.wav","","null","","","","","","","","","","","","","","","","","","","","","","","","","","","","","","","",""
"html-keyboard-response","323","1722548","0.0-8.0-2.0-2.19-1.19","1","0","bzvttyq4nk2s41f","","441.79999999701977","","<p>To replay the <u>TARGET SOUND</u>, press P.</p> When you are ready to begin, press SPACEBAR.","","32","","","","","","","","","","","","","","","","","","","","","","","","","","","","","","","",""
"audio-keyboard-response","324","1737497","0.0-8.0-2.0-3.8","1","0","bzvttyq4nk2s41f","","1285","","sounds/A/TD/KO_08_TD.mp3","","32","","","TD_SUMMARY","","","","","","","","","","KO","","2400,4200,6900,8700","3","2400","4200","6900","8700","null","null","1185.3999999910593","986.5","______________________________________________________________________1284.7999999970198_4193.899999991059_7012.399999991059_8085.399999991059_9686.5_11324.29999999702_13570.199999988079","3","","","","","",""
"html-button-response","325","1745351","0.0-8.0-2.0-0.9","1","0","bzvttyq4nk2s41f","","7851","","<p>Trial 10 of 36</p>","0","","","","","","","","","","","","","","GE","sounds/syllables/ge_SWS.wav","3000,4800,7500,10200","2","","","","","","","","","","","","","","","",""
"html-keyboard-response","326","1746390","0.0-8.0-2.0-1.9","1","0","bzvttyq4nk2s41f","","1036.7000000029802","","","","80","","","","","","","","","","","","","GE","","3000,4800,7500,10200","2","","","","","","","","","","","","","","","",""
"audio-keyboard-response","327","1746691","0.0-8.0-2.0-2.20-0.20","1","0","bzvttyq4nk2s41f","","null","","sounds/syllables/ge_SWS.wav","","null","","","","","","","","","","","","","","","","","","","","","","","","","","","","","","","",""
"html-keyboard-response","328","1747360","0.0-8.0-2.0-2.20-1.20","1","0","bzvttyq4nk2s41f","","668.3999999910593","","<p>To replay the <u>TARGET SOUND</u>, press P.</p> When you are ready to begin, press SPACEBAR.","","80","","","","","","","","","","","","","","","","","","","","","","","","","","","","","","","",""
"audio-keyboard-response","329","1748163","0.0-8.0-2.0-2.21-0.21","1","0","bzvttyq4nk2s41f","","null","","sounds/syllables/ge_SWS.wav","","null","","","","","","","","","","","","","","","","","","","","","","","","","","","","","","","",""
"html-keyboard-response","330","1748905","0.0-8.0-2.0-2.21-1.21","1","0","bzvttyq4nk2s41f","","740.9000000059605","","<p>To replay the <u>TARGET SOUND</u>, press P.</p> When you are ready to begin, press SPACEBAR.","","32","","","","","","","","","","","","","","","","","","","","","","","","","","","","","","","",""
"audio-keyboard-response","331","1763859","0.0-8.0-2.0-3.9","1","0","bzvttyq4nk2s41f","","512","","sounds/A/TD/GE_08_TD.mp3","","32","","","TD_SUMMARY","","","","","","","","","","GE","","3000,4800,7500,10200","2","3000","4800","7500","10200","null","884","null","938.7999999970198","_____________________________________________________________________________514.8999999910593_2863.5_5684_6119.399999991059_7475.0999999940395_10256_11138.79999999702_11507.79999999702_12387_13205.79999999702_14439.89999999106","2","","","","","",""
"html-button-response","332","1784530","0.0-8.0-2.0-0.10","1","0","bzvttyq4nk2s41f","","20667.40000000596","","<p>Trial 11 of 36</p>","0","","","","","","","","","","","","","","FU","sounds/syllables/fu_SWS.wav","2100,3900,7500,12000","2","","","","","","","","","","","","","","","",""
"html-keyboard-response","333","1787450","0.0-8.0-2.0-1.10","1","0","bzvttyq4nk2s41f","","2917.5999999940395","","","","80","","","","","","","","","","","","","FU","","2100,3900,7500,12000","2","","","","","","","","","","","","","","","",""
"audio-keyboard-response","334","1787754","0.0-8.0-2.0-2.22-0.22","1","0","bzvttyq4nk2s41f","","null","","sounds/syllables/fu_SWS.wav","","null","","","","","","","","","","","","","","","","","","","","","","","","","","","","","","","",""
"html-keyboard-response","335","1802369","0.0-8.0-2.0-2.22-1.22","1","0","bzvttyq4nk2s41f","","14613.29999999702","","<p>To replay the <u>TARGET SOUND</u>, press P.</p> When you are ready to begin, press SPACEBAR.","","80","","","","","","","","","","","","","","","","","","","","","","","","","","","","","","","",""
"audio-keyboard-response","336","1803173","0.0-8.0-2.0-2.23-0.23","1","0","bzvttyq4nk2s41f","","null","","sounds/syllables/fu_SWS.wav","","null","","","","","","","","","","","","","","","","","","","","","","","","","","","","","","","",""
