"trial_type","trial_index","time_elapsed","internal_node_id","counterbalance","lang_instruct","ParticipantID","view_history","rt","url","stimulus","button_pressed","key_press","correctRESP","correct","designation","location","correctanswer","responses","sentence","keywords","typed_resp","keyword1_acc","keyword2_acc","keyword3_acc","keyword4_acc","keyword5_acc","total_acc","prop_acc"
"pavlovia","0","3","0.0-0.0","2","1","r0qhbsswej0k9xs","","","","","","","","","","","","","","","","","","","","","",""
"instructions","1","74101","0.0-1.0","2","1","r0qhbsswej0k9xs","[{""page_index"":0,""viewing_time"":2019},{""page_index"":1,""viewing_time"":72074}]","74099","","","","","","","","","","","","","","","","","","","",""
"external-html","2","78494","0.0-2.0","2","1","r0qhbsswej0k9xs","","4273","consent/consent.html","","","","","","","","","","","","","","","","","","",""
"html-button-response","3","81101","0.0-3.0-0.0-0.0","2","1","r0qhbsswej0k9xs","","2605.9999999999854","","<p>Welcome to the study. You will first complete a short volume calibration and headphone check.</p><p>Please make sure you are in a quiet listening environment, that you are wearing headphones, and that your computer's volume is turned on.<p></p>","0","","","","","","","","","","","","","","","","",""
"html-button-response","4","82629","0.0-3.0-0.0-1.0","2","1","r0qhbsswej0k9xs","","1276.0000000000146","","<p>The volume calibration will be first.</p><p>You will hear a thirty-second noise. Please adjust your computer's volume so that this noise is being presented at a comfortable level.<p></p>","0","","","","","","","","","","","","","","","","",""
"audio-button-response","5","87950","0.0-3.0-0.0-2.0","2","1","r0qhbsswej0k9xs","","4419","","audCalib/volumetest.mp3","0","","","","","","","","","","","","","","","","",""
"html-button-response","6","90778","0.0-3.0-1.0-0.0","2","1","r0qhbsswej0k9xs","","2827","","<p>You will now complete a short headphone check.</p><p>On each trial, you will hear three tones. One of these tones will be quieter than the others. Your task is to identify whether the quiet tone occured first, second, or third.</p><p>There are six trials in total.<p></p>","0","","","","","","","","","","","","","","","","",""
"html-keyboard-response","7","91531","0.0-3.0-1.0-1.0-0.0","2","1","r0qhbsswej0k9xs","","null","","<div style=""font-size:60px;"">+</div>","","null","","","","","","","","","","","","","","","",""
"audio-button-response","8","102141","0.0-3.0-1.0-1.0-1.0","2","1","r0qhbsswej0k9xs","","10608","","audCalib/t1_1.mp3","0","","0","1","headphone-test","","","","","","","","","","","","",""
"html-keyboard-response","9","102895","0.0-3.0-1.0-1.0-0.1","2","1","r0qhbsswej0k9xs","","null","","<div style=""font-size:60px;"">+</div>","","null","","","","","","","","","","","","","","","",""
"audio-button-response","10","107136","0.0-3.0-1.0-1.0-1.1","2","1","r0qhbsswej0k9xs","","4240","","audCalib/t1_2.mp3","0","","0","1","headphone-test","","","","","","","","","","","","",""
"html-keyboard-response","11","107889","0.0-3.0-1.0-1.0-0.2","2","1","r0qhbsswej0k9xs","","null","","<div style=""font-size:60px;"">+</div>","","null","","","","","","","","","","","","","","","",""
"audio-button-response","12","112299","0.0-3.0-1.0-1.0-1.2","2","1","r0qhbsswej0k9xs","","4408","","audCalib/t2_2.mp3","1","","1","1","headphone-test","","","","","","","","","","","","",""
"html-keyboard-response","13","113051","0.0-3.0-1.0-1.0-0.3","2","1","r0qhbsswej0k9xs","","null","","<div style=""font-size:60px;"">+</div>","","null","","","","","","","","","","","","","","","",""
"audio-button-response","14","118231","0.0-3.0-1.0-1.0-1.3","2","1","r0qhbsswej0k9xs","","5179","","audCalib/t3_2.mp3","2","","2","1","headphone-test","","","","","","","","","","","","",""
"html-keyboard-response","15","118984","0.0-3.0-1.0-1.0-0.4","2","1","r0qhbsswej0k9xs","","null","","<div style=""font-size:60px;"">+</div>","","null","","","","","","","","","","","","","","","",""
"audio-button-response","16","123437","0.0-3.0-1.0-1.0-1.4","2","1","r0qhbsswej0k9xs","","4451","","audCalib/t2_1.mp3","1","","1","1","headphone-test","","","","","","","","","","","","",""
"html-keyboard-response","17","124191","0.0-3.0-1.0-1.0-0.5","2","1","r0qhbsswej0k9xs","","null","","<div style=""font-size:60px;"">+</div>","","null","","","","","","","","","","","","","","","",""
"audio-button-response","18","128595","0.0-3.0-1.0-1.0-1.5","2","1","r0qhbsswej0k9xs","","4403","","audCalib/t3_1.mp3","2","","2","1","headphone-test","","","","","","","","","","","","",""
"html-button-response","19","131456","0.0-3.0-2.0","2","1","r0qhbsswej0k9xs","","2609","","<p>The volume calibration and headphone check are now complete.</p>","0","","","","","","","","","","","","","","","","",""
"instructions","20","150392","0.0-4.0-0.0","2","1","r0qhbsswej0k9xs","[{""page_index"":0,""viewing_time"":1642},{""page_index"":1,""viewing_time"":12564},{""page_index"":2,""viewing_time"":4728}]","18935","","","","","","","","","","","","","","","","","","","",""
"audio-keyboard-response","21","150696","0.0-4.0-1.0-0.0","2","1","r0qhbsswej0k9xs","","null","","sounds/induction/right/su_SWS.wav","","null","","","","","","","","","","","","","","","",""
"html-button-response","22","153407","0.0-4.0-1.0-1.0","2","1","r0qhbsswej0k9xs","","2709.999999999971","","What sound did you hear?","0","","","0","INDUCTION-JUDGMENT","right","1","","","","","","","","","","",""
"html-keyboard-response","23","154409","0.0-4.0-1.0-2.0","2","1","r0qhbsswej0k9xs","","null","","<p style=""color:red;""><b>Incorrect!</b></p>","","null","","","","","","","","","","","","","","","",""
"audio-keyboard-response","24","155212","0.0-4.0-1.0-0.1","2","1","r0qhbsswej0k9xs","","null","","sounds/induction/right/ta_SWS.wav","","null","","","","","","","","","","","","","","","",""
"html-button-response","25","157127","0.0-4.0-1.0-1.1","2","1","r0qhbsswej0k9xs","","1913","","What sound did you hear?","0","","","0","INDUCTION-JUDGMENT","right","1","","","","","","","","","","",""
"html-keyboard-response","26","158129","0.0-4.0-1.0-2.1","2","1","r0qhbsswej0k9xs","","null","","<p style=""color:red;""><b>Incorrect!</b></p>","","null","","","","","","","","","","","","","","","",""
"audio-keyboard-response","27","158932","0.0-4.0-1.0-0.2","2","1","r0qhbsswej0k9xs","","null","","sounds/induction/right/ko_SWS.wav","","null","","","","","","","","","","","","","","","",""
"html-button-response","28","161011","0.0-4.0-1.0-1.2","2","1","r0qhbsswej0k9xs","","2077","","What sound did you hear?","1","","","0","INDUCTION-JUDGMENT","right","0","","","","","","","","","","",""
"html-keyboard-response","29","162013","0.0-4.0-1.0-2.2","2","1","r0qhbsswej0k9xs","","null","","<p style=""color:red;""><b>Incorrect!</b></p>","","null","","","","","","","","","","","","","","","",""
"audio-keyboard-response","30","162815","0.0-4.0-1.0-0.3","2","1","r0qhbsswej0k9xs","","null","","sounds/induction/right/ru_SWS.wav","","null","","","","","","","","","","","","","","","",""
"html-button-response","31","166480","0.0-4.0-1.0-1.3","2","1","r0qhbsswej0k9xs","","3664","","What sound did you hear?","0","","","0","INDUCTION-JUDGMENT","right","1","","","","","","","","","","",""
"html-keyboard-response","32","167482","0.0-4.0-1.0-2.3","2","1","r0qhbsswej0k9xs","","null","","<p style=""color:red;""><b>Incorrect!</b></p>","","null","","","","","","","","","","","","","","","",""
"audio-keyboard-response","33","168284","0.0-4.0-1.0-0.4","2","1","r0qhbsswej0k9xs","","null","","sounds/induction/right/me_SWS.wav","","null","","","","","","","","","","","","","","","",""
"html-button-response","34","170788","0.0-4.0-1.0-1.4","2","1","r0qhbsswej0k9xs","","2503","","What sound did you hear?","0","","","1","INDUCTION-JUDGMENT","right","0","","","","","","","","","","",""
"html-keyboard-response","35","171790","0.0-4.0-1.0-2.4","2","1","r0qhbsswej0k9xs","","null","","<p style=""color:green;""><b>Correct!</b></p>","","null","","","","","","","","","","","","","","","",""
"audio-keyboard-response","36","172593","0.0-4.0-1.0-0.5","2","1","r0qhbsswej0k9xs","","null","","sounds/induction/left/me_SWS.wav","","null","","","","","","","","","","","","","","","",""
"html-button-response","37","174507","0.0-4.0-1.0-1.5","2","1","r0qhbsswej0k9xs","","1913","","What sound did you hear?","0","","","0","INDUCTION-JUDGMENT","left","1","","","","","","","","","","",""
"html-keyboard-response","38","175509","0.0-4.0-1.0-2.5","2","1","r0qhbsswej0k9xs","","null","","<p style=""color:red;""><b>Incorrect!</b></p>","","null","","","","","","","","","","","","","","","",""
"audio-keyboard-response","39","176313","0.0-4.0-1.0-0.6","2","1","r0qhbsswej0k9xs","","null","","sounds/induction/right/ge_SWS.wav","","null","","","","","","","","","","","","","","","",""
"html-button-response","40","180843","0.0-4.0-1.0-1.6","2","1","r0qhbsswej0k9xs","","4529","","What sound did you hear?","0","","","1","INDUCTION-JUDGMENT","right","0","","","","","","","","","","",""
"html-keyboard-response","41","181846","0.0-4.0-1.0-2.6","2","1","r0qhbsswej0k9xs","","null","","<p style=""color:green;""><b>Correct!</b></p>","","null","","","","","","","","","","","","","","","",""
"audio-keyboard-response","42","182649","0.0-4.0-1.0-0.7","2","1","r0qhbsswej0k9xs","","null","","sounds/induction/left/ta_SWS.wav","","null","","","","","","","","","","","","","","","",""
"html-button-response","43","184317","0.0-4.0-1.0-1.7","2","1","r0qhbsswej0k9xs","","1666","","What sound did you hear?","0","","","1","INDUCTION-JUDGMENT","left","0","","","","","","","","","","",""
"html-keyboard-response","44","185319","0.0-4.0-1.0-2.7","2","1","r0qhbsswej0k9xs","","null","","<p style=""color:green;""><b>Correct!</b></p>","","null","","","","","","","","","","","","","","","",""
"audio-keyboard-response","45","186121","0.0-4.0-1.0-0.8","2","1","r0qhbsswej0k9xs","","null","","sounds/induction/left/fu_SWS.wav","","null","","","","","","","","","","","","","","","",""
"html-button-response","46","187856","0.0-4.0-1.0-1.8","2","1","r0qhbsswej0k9xs","","1734","","What sound did you hear?","0","","","0","INDUCTION-JUDGMENT","left","1","","","","","","","","","","",""
"html-keyboard-response","47","188858","0.0-4.0-1.0-2.8","2","1","r0qhbsswej0k9xs","","null","","<p style=""color:red;""><b>Incorrect!</b></p>","","null","","","","","","","","","","","","","","","",""
"audio-keyboard-response","48","189659","0.0-4.0-1.0-0.9","2","1","r0qhbsswej0k9xs","","null","","sounds/induction/right/fe_SWS.wav","","null","","","","","","","","","","","","","","","",""
"html-button-response","49","191160","0.0-4.0-1.0-1.9","2","1","r0qhbsswej0k9xs","","1500","","What sound did you hear?","0","","","1","INDUCTION-JUDGMENT","right","0","","","","","","","","","","",""
"html-keyboard-response","50","192161","0.0-4.0-1.0-2.9","2","1","r0qhbsswej0k9xs","","null","","<p style=""color:green;""><b>Correct!</b></p>","","null","","","","","","","","","","","","","","","",""
"audio-keyboard-response","51","192963","0.0-4.0-1.0-0.10","2","1","r0qhbsswej0k9xs","","null","","sounds/induction/left/ta_SWS.wav","","null","","","","","","","","","","","","","","","",""
"html-button-response","52","194494","0.0-4.0-1.0-1.10","2","1","r0qhbsswej0k9xs","","1530","","What sound did you hear?","0","","","1","INDUCTION-JUDGMENT","left","0","","","","","","","","","","",""
"html-keyboard-response","53","195497","0.0-4.0-1.0-2.10","2","1","r0qhbsswej0k9xs","","null","","<p style=""color:green;""><b>Correct!</b></p>","","null","","","","","","","","","","","","","","","",""
"audio-keyboard-response","54","196299","0.0-4.0-1.0-0.11","2","1","r0qhbsswej0k9xs","","null","","sounds/induction/left/fe_SWS.wav","","null","","","","","","","","","","","","","","","",""
"html-button-response","55","197698","0.0-4.0-1.0-1.11","2","1","r0qhbsswej0k9xs","","1398","","What sound did you hear?","1","","","1","INDUCTION-JUDGMENT","left","1","","","","","","","","","","",""
"html-keyboard-response","56","198701","0.0-4.0-1.0-2.11","2","1","r0qhbsswej0k9xs","","null","","<p style=""color:green;""><b>Correct!</b></p>","","null","","","","","","","","","","","","","","","",""
"audio-keyboard-response","57","199501","0.0-4.0-1.0-0.12","2","1","r0qhbsswej0k9xs","","null","","sounds/induction/left/re_SWS.wav","","null","","","","","","","","","","","","","","","",""
"html-button-response","58","201271","0.0-4.0-1.0-1.12","2","1","r0qhbsswej0k9xs","","1769","","What sound did you hear?","0","","","1","INDUCTION-JUDGMENT","left","0","","","","","","","","","","",""
"html-keyboard-response","59","202274","0.0-4.0-1.0-2.12","2","1","r0qhbsswej0k9xs","","null","","<p style=""color:green;""><b>Correct!</b></p>","","null","","","","","","","","","","","","","","","",""
"audio-keyboard-response","60","203075","0.0-4.0-1.0-0.13","2","1","r0qhbsswej0k9xs","","null","","sounds/induction/left/pu_SWS.wav","","null","","","","","","","","","","","","","","","",""
"html-button-response","61","204254","0.0-4.0-1.0-1.13","2","1","r0qhbsswej0k9xs","","1177.999999999971","","What sound did you hear?","1","","","0","INDUCTION-JUDGMENT","left","0","","","","","","","","","","",""
"html-keyboard-response","62","205257","0.0-4.0-1.0-2.13","2","1","r0qhbsswej0k9xs","","null","","<p style=""color:red;""><b>Incorrect!</b></p>","","null","","","","","","","","","","","","","","","",""
"audio-keyboard-response","63","206059","0.0-4.0-1.0-0.14","2","1","r0qhbsswej0k9xs","","null","","sounds/induction/left/ti_SWS.wav","","null","","","","","","","","","","","","","","","",""
"html-button-response","64","210124","0.0-4.0-1.0-1.14","2","1","r0qhbsswej0k9xs","","4063","","What sound did you hear?","1","","","0","INDUCTION-JUDGMENT","left","0","","","","","","","","","","",""
"html-keyboard-response","65","211126","0.0-4.0-1.0-2.14","2","1","r0qhbsswej0k9xs","","null","","<p style=""color:red;""><b>Incorrect!</b></p>","","null","","","","","","","","","","","","","","","",""
"audio-keyboard-response","66","211928","0.0-4.0-1.0-0.15","2","1","r0qhbsswej0k9xs","","null","","sounds/induction/right/fu_SWS.wav","","null","","","","","","","","","","","","","","","",""
"html-button-response","67","213393","0.0-4.0-1.0-1.15","2","1","r0qhbsswej0k9xs","","1464","","What sound did you hear?","0","","","1","INDUCTION-JUDGMENT","right","0","","","","","","","","","","",""
"html-keyboard-response","68","214395","0.0-4.0-1.0-2.15","2","1","r0qhbsswej0k9xs","","null","","<p style=""color:green;""><b>Correct!</b></p>","","null","","","","","","","","","","","","","","","",""
"audio-keyboard-response","69","215197","0.0-4.0-1.0-0.16","2","1","r0qhbsswej0k9xs","","null","","sounds/induction/right/fu_SWS.wav","","null","","","","","","","","","","","","","","","",""
"html-button-response","70","216124","0.0-4.0-1.0-1.16","2","1","r0qhbsswej0k9xs","","926.0000000000291","","What sound did you hear?","0","","","1","INDUCTION-JUDGMENT","right","0","","","","","","","","","","",""
"html-keyboard-response","71","217127","0.0-4.0-1.0-2.16","2","1","r0qhbsswej0k9xs","","null","","<p style=""color:green;""><b>Correct!</b></p>","","null","","","","","","","","","","","","","","","",""
"audio-keyboard-response","72","217930","0.0-4.0-1.0-0.17","2","1","r0qhbsswej0k9xs","","null","","sounds/induction/right/re_SWS.wav","","null","","","","","","","","","","","","","","","",""
"html-button-response","73","220137","0.0-4.0-1.0-1.17","2","1","r0qhbsswej0k9xs","","2206","","What sound did you hear?","1","","","1","INDUCTION-JUDGMENT","right","1","","","","","","","","","","",""
"html-keyboard-response","74","221140","0.0-4.0-1.0-2.17","2","1","r0qhbsswej0k9xs","","null","","<p style=""color:green;""><b>Correct!</b></p>","","null","","","","","","","","","","","","","","","",""
"audio-keyboard-response","75","221941","0.0-4.0-1.0-0.18","2","1","r0qhbsswej0k9xs","","null","","sounds/induction/right/fe_SWS.wav","","null","","","","","","","","","","","","","","","",""
"html-button-response","76","223113","0.0-4.0-1.0-1.18","2","1","r0qhbsswej0k9xs","","1171","","What sound did you hear?","1","","","0","INDUCTION-JUDGMENT","right","0","","","","","","","","","","",""
"html-keyboard-response","77","224114","0.0-4.0-1.0-2.18","2","1","r0qhbsswej0k9xs","","null","","<p style=""color:red;""><b>Incorrect!</b></p>","","null","","","","","","","","","","","","","","","",""
"audio-keyboard-response","78","224917","0.0-4.0-1.0-0.19","2","1","r0qhbsswej0k9xs","","null","","sounds/induction/left/pu_SWS.wav","","null","","","","","","","","","","","","","","","",""
"html-button-response","79","225893","0.0-4.0-1.0-1.19","2","1","r0qhbsswej0k9xs","","976","","What sound did you hear?","0","","","1","INDUCTION-JUDGMENT","left","0","","","","","","","","","","",""
"html-keyboard-response","80","226896","0.0-4.0-1.0-2.19","2","1","r0qhbsswej0k9xs","","null","","<p style=""color:green;""><b>Correct!</b></p>","","null","","","","","","","","","","","","","","","",""
"audio-keyboard-response","81","227698","0.0-4.0-1.0-0.20","2","1","r0qhbsswej0k9xs","","null","","sounds/induction/left/ko_SWS.wav","","null","","","","","","","","","","","","","","","",""
"html-button-response","82","232651","0.0-4.0-1.0-1.20","2","1","r0qhbsswej0k9xs","","4950.999999999971","","What sound did you hear?","1","","","1","INDUCTION-JUDGMENT","left","1","","","","","","","","","","",""
"html-keyboard-response","83","233654","0.0-4.0-1.0-2.20","2","1","r0qhbsswej0k9xs","","null","","<p style=""color:green;""><b>Correct!</b></p>","","null","","","","","","","","","","","","","","","",""
"audio-keyboard-response","84","234455","0.0-4.0-1.0-0.21","2","1","r0qhbsswej0k9xs","","null","","sounds/induction/left/ge_SWS.wav","","null","","","","","","","","","","","","","","","",""
"html-button-response","85","237017","0.0-4.0-1.0-1.21","2","1","r0qhbsswej0k9xs","","2560","","What sound did you hear?","1","","","1","INDUCTION-JUDGMENT","left","1","","","","","","","","","","",""
"html-keyboard-response","86","238019","0.0-4.0-1.0-2.21","2","1","r0qhbsswej0k9xs","","null","","<p style=""color:green;""><b>Correct!</b></p>","","null","","","","","","","","","","","","","","","",""
"audio-keyboard-response","87","238820","0.0-4.0-1.0-0.22","2","1","r0qhbsswej0k9xs","","null","","sounds/induction/right/pu_SWS.wav","","null","","","","","","","","","","","","","","","",""
"html-button-response","88","239892","0.0-4.0-1.0-1.22","2","1","r0qhbsswej0k9xs","","1070","","What sound did you hear?","1","","","1","INDUCTION-JUDGMENT","right","1","","","","","","","","","","",""
"html-keyboard-response","89","240895","0.0-4.0-1.0-2.22","2","1","r0qhbsswej0k9xs","","null","","<p style=""color:green;""><b>Correct!</b></p>","","null","","","","","","","","","","","","","","","",""
"audio-keyboard-response","90","241698","0.0-4.0-1.0-0.23","2","1","r0qhbsswej0k9xs","","null","","sounds/induction/left/ge_SWS.wav","","null","","","","","","","","","","","","","","","",""
"html-button-response","91","243645","0.0-4.0-1.0-1.23","2","1","r0qhbsswej0k9xs","","1946","","What sound did you hear?","1","","","1","INDUCTION-JUDGMENT","left","1","","","","","","","","","","",""
"html-keyboard-response","92","244647","0.0-4.0-1.0-2.23","2","1","r0qhbsswej0k9xs","","null","","<p style=""color:green;""><b>Correct!</b></p>","","null","","","","","","","","","","","","","","","",""
"audio-keyboard-response","93","245450","0.0-4.0-1.0-0.24","2","1","r0qhbsswej0k9xs","","null","","sounds/induction/left/ti_SWS.wav","","null","","","","","","","","","","","","","","","",""
"html-button-response","94","247250","0.0-4.0-1.0-1.24","2","1","r0qhbsswej0k9xs","","1800","","What sound did you hear?","0","","","1","INDUCTION-JUDGMENT","left","0","","","","","","","","","","",""
"html-keyboard-response","95","248252","0.0-4.0-1.0-2.24","2","1","r0qhbsswej0k9xs","","null","","<p style=""color:green;""><b>Correct!</b></p>","","null","","","","","","","","","","","","","","","",""
"audio-keyboard-response","96","249055","0.0-4.0-1.0-0.25","2","1","r0qhbsswej0k9xs","","null","","sounds/induction/right/re_SWS.wav","","null","","","","","","","","","","","","","","","",""
"html-button-response","97","250553","0.0-4.0-1.0-1.25","2","1","r0qhbsswej0k9xs","","1498.0000000000582","","What sound did you hear?","1","","","1","INDUCTION-JUDGMENT","right","1","","","","","","","","","","",""
"html-keyboard-response","98","251556","0.0-4.0-1.0-2.25","2","1","r0qhbsswej0k9xs","","null","","<p style=""color:green;""><b>Correct!</b></p>","","null","","","","","","","","","","","","","","","",""
"audio-keyboard-response","99","252359","0.0-4.0-1.0-0.26","2","1","r0qhbsswej0k9xs","","null","","sounds/induction/right/me_SWS.wav","","null","","","","","","","","","","","","","","","",""
"html-button-response","100","253955","0.0-4.0-1.0-1.26","2","1","r0qhbsswej0k9xs","","1594.999999999971","","What sound did you hear?","1","","","0","INDUCTION-JUDGMENT","right","0","","","","","","","","","","",""
"html-keyboard-response","101","254958","0.0-4.0-1.0-2.26","2","1","r0qhbsswej0k9xs","","null","","<p style=""color:red;""><b>Incorrect!</b></p>","","null","","","","","","","","","","","","","","","",""
"audio-keyboard-response","102","255759","0.0-4.0-1.0-0.27","2","1","r0qhbsswej0k9xs","","null","","sounds/induction/right/ge_SWS.wav","","null","","","","","","","","","","","","","","","",""
"html-button-response","103","258131","0.0-4.0-1.0-1.27","2","1","r0qhbsswej0k9xs","","2372","","What sound did you hear?","0","","","1","INDUCTION-JUDGMENT","right","0","","","","","","","","","","",""
"html-keyboard-response","104","259135","0.0-4.0-1.0-2.27","2","1","r0qhbsswej0k9xs","","null","","<p style=""color:green;""><b>Correct!</b></p>","","null","","","","","","","","","","","","","","","",""
"audio-keyboard-response","105","259937","0.0-4.0-1.0-0.28","2","1","r0qhbsswej0k9xs","","null","","sounds/induction/right/ti_SWS.wav","","null","","","","","","","","","","","","","","","",""
"html-button-response","106","262120","0.0-4.0-1.0-1.28","2","1","r0qhbsswej0k9xs","","2182","","What sound did you hear?","1","","","1","INDUCTION-JUDGMENT","right","1","","","","","","","","","","",""
"html-keyboard-response","107","263123","0.0-4.0-1.0-2.28","2","1","r0qhbsswej0k9xs","","null","","<p style=""color:green;""><b>Correct!</b></p>","","null","","","","","","","","","","","","","","","",""
"audio-keyboard-response","108","263926","0.0-4.0-1.0-0.29","2","1","r0qhbsswej0k9xs","","null","","sounds/induction/right/ru_SWS.wav","","null","","","","","","","","","","","","","","","",""
"html-button-response","109","267264","0.0-4.0-1.0-1.29","2","1","r0qhbsswej0k9xs","","3336","","What sound did you hear?","1","","","1","INDUCTION-JUDGMENT","right","1","","","","","","","","","","",""
"html-keyboard-response","110","268266","0.0-4.0-1.0-2.29","2","1","r0qhbsswej0k9xs","","null","","<p style=""color:green;""><b>Correct!</b></p>","","null","","","","","","","","","","","","","","","",""
"audio-keyboard-response","111","269068","0.0-4.0-1.0-0.30","2","1","r0qhbsswej0k9xs","","null","","sounds/induction/left/ru_SWS.wav","","null","","","","","","","","","","","","","","","",""
"html-button-response","112","270360","0.0-4.0-1.0-1.30","2","1","r0qhbsswej0k9xs","","1290","","What sound did you hear?","0","","","1","INDUCTION-JUDGMENT","left","0","","","","","","","","","","",""
"html-keyboard-response","113","271362","0.0-4.0-1.0-2.30","2","1","r0qhbsswej0k9xs","","null","","<p style=""color:green;""><b>Correct!</b></p>","","null","","","","","","","","","","","","","","","",""
"audio-keyboard-response","114","272164","0.0-4.0-1.0-0.31","2","1","r0qhbsswej0k9xs","","null","","sounds/induction/left/su_SWS.wav","","null","","","","","","","","","","","","","","","",""
"html-button-response","115","273988","0.0-4.0-1.0-1.31","2","1","r0qhbsswej0k9xs","","1824.0000000000582","","What sound did you hear?","0","","","1","INDUCTION-JUDGMENT","left","0","","","","","","","","","","",""
"html-keyboard-response","116","274990","0.0-4.0-1.0-2.31","2","1","r0qhbsswej0k9xs","","null","","<p style=""color:green;""><b>Correct!</b></p>","","null","","","","","","","","","","","","","","","",""
"audio-keyboard-response","117","275793","0.0-4.0-1.0-0.32","2","1","r0qhbsswej0k9xs","","null","","sounds/induction/left/ru_SWS.wav","","null","","","","","","","","","","","","","","","",""
"html-button-response","118","276817","0.0-4.0-1.0-1.32","2","1","r0qhbsswej0k9xs","","1022","","What sound did you hear?","0","","","1","INDUCTION-JUDGMENT","left","0","","","","","","","","","","",""
"html-keyboard-response","119","277819","0.0-4.0-1.0-2.32","2","1","r0qhbsswej0k9xs","","null","","<p style=""color:green;""><b>Correct!</b></p>","","null","","","","","","","","","","","","","","","",""
"audio-keyboard-response","120","278622","0.0-4.0-1.0-0.33","2","1","r0qhbsswej0k9xs","","null","","sounds/induction/right/su_SWS.wav","","null","","","","","","","","","","","","","","","",""
"html-button-response","121","280553","0.0-4.0-1.0-1.33","2","1","r0qhbsswej0k9xs","","1930","","What sound did you hear?","1","","","1","INDUCTION-JUDGMENT","right","1","","","","","","","","","","",""
"html-keyboard-response","122","281556","0.0-4.0-1.0-2.33","2","1","r0qhbsswej0k9xs","","null","","<p style=""color:green;""><b>Correct!</b></p>","","null","","","","","","","","","","","","","","","",""
"audio-keyboard-response","123","282358","0.0-4.0-1.0-0.34","2","1","r0qhbsswej0k9xs","","null","","sounds/induction/right/ni_SWS.wav","","null","","","","","","","","","","","","","","","",""
"html-button-response","124","284665","0.0-4.0-1.0-1.34","2","1","r0qhbsswej0k9xs","","2306","","What sound did you hear?","1","","","0","INDUCTION-JUDGMENT","right","0","","","","","","","","","","",""
"html-keyboard-response","125","285667","0.0-4.0-1.0-2.34","2","1","r0qhbsswej0k9xs","","null","","<p style=""color:red;""><b>Incorrect!</b></p>","","null","","","","","","","","","","","","","","","",""
"audio-keyboard-response","126","286470","0.0-4.0-1.0-0.35","2","1","r0qhbsswej0k9xs","","null","","sounds/induction/left/re_SWS.wav","","null","","","","","","","","","","","","","","","",""
"html-button-response","127","287354","0.0-4.0-1.0-1.35","2","1","r0qhbsswej0k9xs","","882","","What sound did you hear?","0","","","1","INDUCTION-JUDGMENT","left","0","","","","","","","","","","",""
"html-keyboard-response","128","288357","0.0-4.0-1.0-2.35","2","1","r0qhbsswej0k9xs","","null","","<p style=""color:green;""><b>Correct!</b></p>","","null","","","","","","","","","","","","","","","",""
"audio-keyboard-response","129","289158","0.0-4.0-1.0-0.36","2","1","r0qhbsswej0k9xs","","null","","sounds/induction/left/ni_SWS.wav","","null","","","","","","","","","","","","","","","",""
"html-button-response","130","291238","0.0-4.0-1.0-1.36","2","1","r0qhbsswej0k9xs","","2079.000000000058","","What sound did you hear?","0","","","0","INDUCTION-JUDGMENT","left","1","","","","","","","","","","",""
"html-keyboard-response","131","292240","0.0-4.0-1.0-2.36","2","1","r0qhbsswej0k9xs","","null","","<p style=""color:red;""><b>Incorrect!</b></p>","","null","","","","","","","","","","","","","","","",""
"audio-keyboard-response","132","293043","0.0-4.0-1.0-0.37","2","1","r0qhbsswej0k9xs","","null","","sounds/induction/right/ta_SWS.wav","","null","","","","","","","","","","","","","","","",""
"html-button-response","133","295497","0.0-4.0-1.0-1.37","2","1","r0qhbsswej0k9xs","","2453","","What sound did you hear?","1","","","1","INDUCTION-JUDGMENT","right","1","","","","","","","","","","",""
"html-keyboard-response","134","296500","0.0-4.0-1.0-2.37","2","1","r0qhbsswej0k9xs","","null","","<p style=""color:green;""><b>Correct!</b></p>","","null","","","","","","","","","","","","","","","",""
"audio-keyboard-response","135","297304","0.0-4.0-1.0-0.38","2","1","r0qhbsswej0k9xs","","null","","sounds/induction/right/ko_SWS.wav","","null","","","","","","","","","","","","","","","",""
"html-button-response","136","299756","0.0-4.0-1.0-1.38","2","1","r0qhbsswej0k9xs","","2450","","What sound did you hear?","0","","","1","INDUCTION-JUDGMENT","right","0","","","","","","","","","","",""
"html-keyboard-response","137","300759","0.0-4.0-1.0-2.38","2","1","r0qhbsswej0k9xs","","null","","<p style=""color:green;""><b>Correct!</b></p>","","null","","","","","","","","","","","","","","","",""
"audio-keyboard-response","138","301560","0.0-4.0-1.0-0.39","2","1","r0qhbsswej0k9xs","","null","","sounds/induction/left/ni_SWS.wav","","null","","","","","","","","","","","","","","","",""
"html-button-response","139","303714","0.0-4.0-1.0-1.39","2","1","r0qhbsswej0k9xs","","2152.000000000058","","What sound did you hear?","1","","","1","INDUCTION-JUDGMENT","left","1","","","","","","","","","","",""
"html-keyboard-response","140","304715","0.0-4.0-1.0-2.39","2","1","r0qhbsswej0k9xs","","null","","<p style=""color:green;""><b>Correct!</b></p>","","null","","","","","","","","","","","","","","","",""
"audio-keyboard-response","141","305517","0.0-4.0-1.0-0.40","2","1","r0qhbsswej0k9xs","","null","","sounds/induction/left/ko_SWS.wav","","null","","","","","","","","","","","","","","","",""
"html-button-response","142","307604","0.0-4.0-1.0-1.40","2","1","r0qhbsswej0k9xs","","2086","","What sound did you hear?","0","","","0","INDUCTION-JUDGMENT","left","1","","","","","","","","","","",""
"html-keyboard-response","143","308607","0.0-4.0-1.0-2.40","2","1","r0qhbsswej0k9xs","","null","","<p style=""color:red;""><b>Incorrect!</b></p>","","null","","","","","","","","","","","","","","","",""
"audio-keyboard-response","144","309410","0.0-4.0-1.0-0.41","2","1","r0qhbsswej0k9xs","","null","","sounds/induction/right/pu_SWS.wav","","null","","","","","","","","","","","","","","","",""
"html-button-response","145","311152","0.0-4.0-1.0-1.41","2","1","r0qhbsswej0k9xs","","1740","","What sound did you hear?","1","","","1","INDUCTION-JUDGMENT","right","1","","","","","","","","","","",""
"html-keyboard-response","146","312154","0.0-4.0-1.0-2.41","2","1","r0qhbsswej0k9xs","","null","","<p style=""color:green;""><b>Correct!</b></p>","","null","","","","","","","","","","","","","","","",""
"audio-keyboard-response","147","312957","0.0-4.0-1.0-0.42","2","1","r0qhbsswej0k9xs","","null","","sounds/induction/left/su_SWS.wav","","null","","","","","","","","","","","","","","","",""
"html-button-response","148","315803","0.0-4.0-1.0-1.42","2","1","r0qhbsswej0k9xs","","2844.999999999942","","What sound did you hear?","0","","","1","INDUCTION-JUDGMENT","left","0","","","","","","","","","","",""
"html-keyboard-response","149","316805","0.0-4.0-1.0-2.42","2","1","r0qhbsswej0k9xs","","null","","<p style=""color:green;""><b>Correct!</b></p>","","null","","","","","","","","","","","","","","","",""
"audio-keyboard-response","150","317608","0.0-4.0-1.0-0.43","2","1","r0qhbsswej0k9xs","","null","","sounds/induction/right/ni_SWS.wav","","null","","","","","","","","","","","","","","","",""
"html-button-response","151","319923","0.0-4.0-1.0-1.43","2","1","r0qhbsswej0k9xs","","2314","","What sound did you hear?","0","","","1","INDUCTION-JUDGMENT","right","0","","","","","","","","","","",""
"html-keyboard-response","152","320925","0.0-4.0-1.0-2.43","2","1","r0qhbsswej0k9xs","","null","","<p style=""color:green;""><b>Correct!</b></p>","","null","","","","","","","","","","","","","","","",""
"audio-keyboard-response","153","321727","0.0-4.0-1.0-0.44","2","1","r0qhbsswej0k9xs","","null","","sounds/induction/left/fu_SWS.wav","","null","","","","","","","","","","","","","","","",""
"html-button-response","154","322554","0.0-4.0-1.0-1.44","2","1","r0qhbsswej0k9xs","","825","","What sound did you hear?","0","","","0","INDUCTION-JUDGMENT","left","1","","","","","","","","","","",""
"html-keyboard-response","155","323556","0.0-4.0-1.0-2.44","2","1","r0qhbsswej0k9xs","","null","","<p style=""color:red;""><b>Incorrect!</b></p>","","null","","","","","","","","","","","","","","","",""
"audio-keyboard-response","156","324357","0.0-4.0-1.0-0.45","2","1","r0qhbsswej0k9xs","","null","","sounds/induction/left/fe_SWS.wav","","null","","","","","","","","","","","","","","","",""
"html-button-response","157","326233","0.0-4.0-1.0-1.45","2","1","r0qhbsswej0k9xs","","1875","","What sound did you hear?","0","","","0","INDUCTION-JUDGMENT","left","1","","","","","","","","","","",""
"html-keyboard-response","158","327235","0.0-4.0-1.0-2.45","2","1","r0qhbsswej0k9xs","","null","","<p style=""color:red;""><b>Incorrect!</b></p>","","null","","","","","","","","","","","","","","","",""
"audio-keyboard-response","159","328037","0.0-4.0-1.0-0.46","2","1","r0qhbsswej0k9xs","","null","","sounds/induction/right/ti_SWS.wav","","null","","","","","","","","","","","","","","","",""
"html-button-response","160","329118","0.0-4.0-1.0-1.46","2","1","r0qhbsswej0k9xs","","1080","","What sound did you hear?","1","","","1","INDUCTION-JUDGMENT","right","1","","","","","","","","","","",""
"html-keyboard-response","161","330120","0.0-4.0-1.0-2.46","2","1","r0qhbsswej0k9xs","","null","","<p style=""color:green;""><b>Correct!</b></p>","","null","","","","","","","","","","","","","","","",""
"audio-keyboard-response","162","330922","0.0-4.0-1.0-0.47","2","1","r0qhbsswej0k9xs","","null","","sounds/induction/left/me_SWS.wav","","null","","","","","","","","","","","","","","","",""
"html-button-response","163","332053","0.0-4.0-1.0-1.47","2","1","r0qhbsswej0k9xs","","1129","","What sound did you hear?","1","","","1","INDUCTION-JUDGMENT","left","1","","","","","","","","","","",""
"html-keyboard-response","164","333055","0.0-4.0-1.0-2.47","2","1","r0qhbsswej0k9xs","","null","","<p style=""color:green;""><b>Correct!</b></p>","","null","","","","","","","","","","","","","","","",""
"html-button-response","165","356474","0.0-5.0-0.0","2","1","r0qhbsswej0k9xs","","22917.00000000006","","<p>Thank you for your answers.</p><p>You will now listen to similar sounds. The main difference is that the sounds will be longer and will make up complete sentences.</p><p>Please listen carefully to each sentence. After each sentence, you will be asked to type back what you heard to the best of your ability. After you provide your response, you will be given feedback about the correct answer.</p><p>There are 10 sentences in total.","0","","","","","","","","","","","","","","","","",""
"audio-keyboard-response","166","359057","0.0-5.0-1.0-0.0","2","1","r0qhbsswej0k9xs","","null","","sounds/sentences/left/14_03_cfSWS.wav","","null","","","","","","","","","","","","","","","",""
"sentence-resp","167","376884","0.0-5.0-1.0-1.0","2","1","r0qhbsswej0k9xs","","17823","","","","","","","SWS-SENT-RESPONSE","","","{""Q0"":""reegureefufeepoo\n""}","Pluck the bright rose without leaves.","pluck,bright,rose,without,leaves","REEGUREEFUFEEPOO ","0","0","0","0","0","0","0"
"html-keyboard-response","168","378138","0.0-5.0-1.0-2.0","2","1","r0qhbsswej0k9xs","","null","","","","null","","","","","","","","","","","","","","","",""
"audio-keyboard-response","169","380222","0.0-5.0-1.0-3.0","2","1","r0qhbsswej0k9xs","","null","","sounds/sentences/left/14_03_cfSWS.wav","","null","","","","","","","","","","","","","","","",""
"html-keyboard-response","170","381224","0.0-5.0-1.0-4.0","2","1","r0qhbsswej0k9xs","","null","","","","null","","","","","","","","","","","","","","","",""
"html-button-response","171","388238","0.0-5.0-1.0-5.0","2","1","r0qhbsswej0k9xs","","6512","","<p>Press the button below when you are ready to continue.</p>","0","","","","","","","","","","","","","","","","",""
"audio-keyboard-response","172","391253","0.0-5.0-1.0-0.1","2","1","r0qhbsswej0k9xs","","null","","sounds/sentences/right/14_10_cfSWS.wav","","null","","","","","","","","","","","","","","","",""
"sentence-resp","173","429550","0.0-5.0-1.0-1.1","2","1","r0qhbsswej0k9xs","","38295","","","","","","","SWS-SENT-RESPONSE","","","{""Q0"":""fee poo ree pie res poo res los poo ess ouu""}","Port is a strong wine with a smoky taste.","port,strong,wine,smoky,taste","FEE POO REE PIE RES POO RES LOS POO ESS OUU","0","0","0","0","0","0","0"
"html-keyboard-response","174","430804","0.0-5.0-1.0-2.1","2","1","r0qhbsswej0k9xs","","null","","","","null","","","","","","","","","","","","","","","",""
"audio-keyboard-response","175","433319","0.0-5.0-1.0-3.1","2","1","r0qhbsswej0k9xs","","null","","sounds/sentences/right/14_10_cfSWS.wav","","null","","","","","","","","","","","","","","","",""
"html-keyboard-response","176","434321","0.0-5.0-1.0-4.1","2","1","r0qhbsswej0k9xs","","null","","","","null","","","","","","","","","","","","","","","",""
"html-button-response","177","436689","0.0-5.0-1.0-5.1","2","1","r0qhbsswej0k9xs","","1865","","<p>Press the button below when you are ready to continue.</p>","0","","","","","","","","","","","","","","","","",""
"audio-keyboard-response","178","439447","0.0-5.0-1.0-0.2","2","1","r0qhbsswej0k9xs","","null","","sounds/sentences/right/14_08_cfSWS.wav","","null","","","","","","","","","","","","","","","",""
"sentence-resp","179","470159","0.0-5.0-1.0-1.2","2","1","r0qhbsswej0k9xs","","30710","","","","","","","SWS-SENT-RESPONSE","","","{""Q0"":""gee poo rue vue me main loot \n""}","Clothes and lodging are free to new men.","clothes,lodging,free,new,men","GEE POO RUE VUE ME MAIN LOOT  ","0","0","0","0","0","0","0"
"html-keyboard-response","180","471412","0.0-5.0-1.0-2.2","2","1","r0qhbsswej0k9xs","","null","","","","null","","","","","","","","","","","","","","","",""
"audio-keyboard-response","181","473667","0.0-5.0-1.0-3.2","2","1","r0qhbsswej0k9xs","","null","","sounds/sentences/right/14_08_cfSWS.wav","","null","","","","","","","","","","","","","","","",""
"html-keyboard-response","182","474670","0.0-5.0-1.0-4.2","2","1","r0qhbsswej0k9xs","","null","","","","null","","","","","","","","","","","","","","","",""
"html-button-response","183","476980","0.0-5.0-1.0-5.2","2","1","r0qhbsswej0k9xs","","1809","","<p>Press the button below when you are ready to continue.</p>","0","","","","","","","","","","","","","","","","",""
"audio-keyboard-response","184","479798","0.0-5.0-1.0-0.3","2","1","r0qhbsswej0k9xs","","null","","sounds/sentences/left/14_02_cfSWS.wav","","null","","","","","","","","","","","","","","","",""
"sentence-resp","185","502023","0.0-5.0-1.0-1.3","2","1","r0qhbsswej0k9xs","","22224","","","","","","","SWS-SENT-RESPONSE","","","{""Q0"":""go on to the park on your own ""}","He said the same phrase thirty times.","said,same,phrase,thirty,times","GO ON TO THE PARK ON YOUR OWN ","0","0","0","0","0","0","0"
"html-keyboard-response","186","503276","0.0-5.0-1.0-2.3","2","1","r0qhbsswej0k9xs","","null","","","","null","","","","","","","","","","","","","","","",""
"audio-keyboard-response","187","505594","0.0-5.0-1.0-3.3","2","1","r0qhbsswej0k9xs","","null","","sounds/sentences/left/14_02_cfSWS.wav","","null","","","","","","","","","","","","","","","",""
"html-keyboard-response","188","506597","0.0-5.0-1.0-4.3","2","1","r0qhbsswej0k9xs","","null","","","","null","","","","","","","","","","","","","","","",""
"html-button-response","189","508015","0.0-5.0-1.0-5.3","2","1","r0qhbsswej0k9xs","","915","","<p>Press the button below when you are ready to continue.</p>","0","","","","","","","","","","","","","","","","",""
"audio-keyboard-response","190","510570","0.0-5.0-1.0-0.4","2","1","r0qhbsswej0k9xs","","null","","sounds/sentences/left/14_04_cfSWS.wav","","null","","","","","","","","","","","","","","","",""
"sentence-resp","191","519877","0.0-5.0-1.0-1.4","2","1","r0qhbsswej0k9xs","","9306","","","","","","","SWS-SENT-RESPONSE","","","{""Q0"":""got to go home alone this week \n""}","Two plus seven is less than ten.","two,plus,seven,less,ten","GOT TO GO HOME ALONE THIS WEEK  ","0","0","0","0","0","0","0"
"html-keyboard-response","192","521131","0.0-5.0-1.0-2.4","2","1","r0qhbsswej0k9xs","","null","","","","null","","","","","","","","","","","","","","","",""
"audio-keyboard-response","193","523183","0.0-5.0-1.0-3.4","2","1","r0qhbsswej0k9xs","","null","","sounds/sentences/left/14_04_cfSWS.wav","","null","","","","","","","","","","","","","","","",""
"html-keyboard-response","194","524185","0.0-5.0-1.0-4.4","2","1","r0qhbsswej0k9xs","","null","","","","null","","","","","","","","","","","","","","","",""
"html-button-response","195","527827","0.0-5.0-1.0-5.4","2","1","r0qhbsswej0k9xs","","3139","","<p>Press the button below when you are ready to continue.</p>","0","","","","","","","","","","","","","","","","",""
"audio-keyboard-response","196","530945","0.0-5.0-1.0-0.5","2","1","r0qhbsswej0k9xs","","null","","sounds/sentences/left/14_01_cfSWS.wav","","null","","","","","","","","","","","","","","","",""
"sentence-resp","197","549263","0.0-5.0-1.0-1.5","2","1","r0qhbsswej0k9xs","","18317","","","","","","","SWS-SENT-RESPONSE","","","{""Q0"":""thirteen is less then eighteen so I am right ""}","A cramp is no small danger on a swim.","cramp,no,small,danger,swim","THIRTEEN IS LESS THEN EIGHTEEN SO I AM RIGHT ","0","0","0","0","0","0","0"
"html-keyboard-response","198","550516","0.0-5.0-1.0-2.5","2","1","r0qhbsswej0k9xs","","null","","","","null","","","","","","","","","","","","","","","",""
"audio-keyboard-response","199","553132","0.0-5.0-1.0-3.5","2","1","r0qhbsswej0k9xs","","null","","sounds/sentences/left/14_01_cfSWS.wav","","null","","","","","","","","","","","","","","","",""
"html-keyboard-response","200","554135","0.0-5.0-1.0-4.5","2","1","r0qhbsswej0k9xs","","null","","","","null","","","","","","","","","","","","","","","",""
"html-button-response","201","555410","0.0-5.0-1.0-5.5","2","1","r0qhbsswej0k9xs","","772.0000000001164","","<p>Press the button below when you are ready to continue.</p>","0","","","","","","","","","","","","","","","","",""
"audio-keyboard-response","202","558137","0.0-5.0-1.0-0.6","2","1","r0qhbsswej0k9xs","","null","","sounds/sentences/right/14_09_cfSWS.wav","","null","","","","","","","","","","","","","","","",""
"sentence-resp","203","574243","0.0-5.0-1.0-1.6","2","1","r0qhbsswej0k9xs","","16104","","","","","","","SWS-SENT-RESPONSE","","","{""Q0"":""we will stop going out if you let me go today ""}","We frown when events take a bad turn.","frown,events,take,bad,turn","WE WILL STOP GOING OUT IF YOU LET ME GO TODAY ","0","0","0","0","0","0","0"
"html-keyboard-response","204","575496","0.0-5.0-1.0-2.6","2","1","r0qhbsswej0k9xs","","null","","","","null","","","","","","","","","","","","","","","",""
"audio-keyboard-response","205","577723","0.0-5.0-1.0-3.6","2","1","r0qhbsswej0k9xs","","null","","sounds/sentences/right/14_09_cfSWS.wav","","null","","","","","","","","","","","","","","","",""
"html-keyboard-response","206","578725","0.0-5.0-1.0-4.6","2","1","r0qhbsswej0k9xs","","null","","","","null","","","","","","","","","","","","","","","",""
"html-button-response","207","584449","0.0-5.0-1.0-5.6","2","1","r0qhbsswej0k9xs","","5222","","<p>Press the button below when you are ready to continue.</p>","0","","","","","","","","","","","","","","","","",""
"audio-keyboard-response","208","587339","0.0-5.0-1.0-0.7","2","1","r0qhbsswej0k9xs","","null","","sounds/sentences/right/14_07_cfSWS.wav","","null","","","","","","","","","","","","","","","",""
"sentence-resp","209","611956","0.0-5.0-1.0-1.7","2","1","r0qhbsswej0k9xs","","24615","","","","","","","SWS-SENT-RESPONSE","","","{""Q0"":""you need to stop being so annoying please ""}","Write a fond note to the friend you cherish.","write,fond,note,friend,cherish","YOU NEED TO STOP BEING SO ANNOYING PLEASE ","0","0","0","0","0","0","0"
"html-keyboard-response","210","613209","0.0-5.0-1.0-2.7","2","1","r0qhbsswej0k9xs","","null","","","","null","","","","","","","","","","","","","","","",""
"audio-keyboard-response","211","615599","0.0-5.0-1.0-3.7","2","1","r0qhbsswej0k9xs","","null","","sounds/sentences/right/14_07_cfSWS.wav","","null","","","","","","","","","","","","","","","",""
"html-keyboard-response","212","616601","0.0-5.0-1.0-4.7","2","1","r0qhbsswej0k9xs","","null","","","","null","","","","","","","","","","","","","","","",""
"html-button-response","213","618660","0.0-5.0-1.0-5.7","2","1","r0qhbsswej0k9xs","","1557","","<p>Press the button below when you are ready to continue.</p>","0","","","","","","","","","","","","","","","","",""
"audio-keyboard-response","214","621650","0.0-5.0-1.0-0.8","2","1","r0qhbsswej0k9xs","","null","","sounds/sentences/left/14_05_cfSWS.wav","","null","","","","","","","","","","","","","","","",""
"sentence-resp","215","639979","0.0-5.0-1.0-1.8","2","1","r0qhbsswej0k9xs","","18327","","","","","","","SWS-SENT-RESPONSE","","","{""Q0"":""leave us alone for a while ""}","The glow deepened in the eyes of the sweet girl.","glow,deepened,eyes,sweet,girl","LEAVE US ALONE FOR A WHILE ","0","0","0","0","0","0","0"
"html-keyboard-response","216","641233","0.0-5.0-1.0-2.8","2","1","r0qhbsswej0k9xs","","null","","","","null","","","","","","","","","","","","","","","",""
"audio-keyboard-response","217","643721","0.0-5.0-1.0-3.8","2","1","r0qhbsswej0k9xs","","null","","sounds/sentences/left/14_05_cfSWS.wav","","null","","","","","","","","","","","","","","","",""
"html-keyboard-response","218","644723","0.0-5.0-1.0-4.8","2","1","r0qhbsswej0k9xs","","null","","","","null","","","","","","","","","","","","","","","",""
"html-button-response","219","647957","0.0-5.0-1.0-5.8","2","1","r0qhbsswej0k9xs","","2733","","<p>Press the button below when you are ready to continue.</p>","0","","","","","","","","","","","","","","","","",""
"audio-keyboard-response","220","650699","0.0-5.0-1.0-0.9","2","1","r0qhbsswej0k9xs","","null","","sounds/sentences/right/14_06_cfSWS.wav","","null","","","","","","","","","","","","","","","",""
"sentence-resp","221","668597","0.0-5.0-1.0-1.9","2","1","r0qhbsswej0k9xs","","17896","","","","","","","SWS-SENT-RESPONSE","","","{""Q0"":""I don't understand whats wrong with this""}","Bring your problems to the wise chief.","bring,your,problems,wise,chief","I DON'T UNDERSTAND WHATS WRONG WITH THIS","0","0","0","0","0","0","0"
"html-keyboard-response","222","669850","0.0-5.0-1.0-2.9","2","1","r0qhbsswej0k9xs","","null","","","","null","","","","","","","","","","","","","","","",""
"audio-keyboard-response","223","672094","0.0-5.0-1.0-3.9","2","1","r0qhbsswej0k9xs","","null","","sounds/sentences/right/14_06_cfSWS.wav","","null","","","","","","","","","","","","","","","",""
"html-keyboard-response","224","673096","0.0-5.0-1.0-4.9","2","1","r0qhbsswej0k9xs","","null","","","","null","","","","","","","","","","","","","","","",""
"html-button-response","225","676005","0.0-5.0-1.0-5.9","2","1","r0qhbsswej0k9xs","","2406.9999999998836","","<p>Press the button below when you are ready to continue.</p>","0","","","","","","","","","","","","","","","","",""
"html-keyboard-response","226","704897","0.0-6.0-0.0","2","1","r0qhbsswej0k9xs","","28389","","<p>In this part of the study, you will hear sounds similar to those you just heard.</p><p>Please focus on these sounds, as you may be asked questions about them later.</p><p>Occasionally, the sounds will pause for up to two seconds. When this happens, please press SPACEBAR as quickly as you can.</br>This helps ensure that you are paying attention to the sounds.</p><p>This part of the study will take about 12 minutes to complete, and you will be given the opportunity to take a couple of short breaks every few minutes.</p><p><strong>Press SPACEBAR to begin</strong></p>","","32","","","","","","","","","","","","","","","",""
"html-keyboard-response","227","705899","0.0-6.0-1.0-0.0","2","1","r0qhbsswej0k9xs","","null","","<p style=""font-size: 40px;"">+</p>","","null","","","","","","","","","","","","","","","",""
