"trial_type","trial_index","time_elapsed","internal_node_id","counterbalance","lang_instruct","ParticipantID","view_history","rt","url","stimulus","button_pressed","key_press","correctRESP","correct","designation","location","correctanswer","responses","sentence","keywords","typed_resp","keyword1_acc","keyword2_acc","keyword3_acc","keyword4_acc","keyword5_acc","total_acc","prop_acc","timeouts","pause_rt01","pause_rt02","train_file","numKeyPress","sound","fam_type","SYLLABLE","EXEMPLAR","TD_LOCS","TD_TYPE","TDLOC_01","TDLOC_02","TDLOC_03","TDLOC_04","TD_RT_01","TD_RT_02","TD_RT_03","TD_RT_04","TD_SUBJ_RTs","number_of_plays","slider_start","response","question_order","syllable","syllable_type"
"pavlovia","0","6","0.0-0.0","1","1","xcw4qfx48wfp52k","","","","","","","","","","","","","","","","","","","","","","","","","","","","","","","","","","","","","","","","","","","","","","","",""
"instructions","1","93927","0.0-1.0","1","1","xcw4qfx48wfp52k","[{""page_index"":0,""viewing_time"":14792},{""page_index"":1,""viewing_time"":79129}]","93923","","","","","","","","","","","","","","","","","","","","","","","","","","","","","","","","","","","","","","","","","","","","","",""
"external-html","2","102332","0.0-2.0","1","1","xcw4qfx48wfp52k","","8275","consent/consent.html","","","","","","","","","","","","","","","","","","","","","","","","","","","","","","","","","","","","","","","","","","","","",""
"html-button-response","3","107145","0.0-3.0-0.0-0.0","1","1","xcw4qfx48wfp52k","","4811","","<p>Welcome to the study. You will first complete a short volume calibration and headphone check.</p><p>Please make sure you are in a quiet listening environment, that you are wearing headphones, and that your computer's volume is turned on.<p></p>","0","","","","","","","","","","","","","","","","","","","","","","","","","","","","","","","","","","","","","","","","","","",""
"html-button-response","4","109951","0.0-3.0-0.0-1.0","1","1","xcw4qfx48wfp52k","","2554.0000000000146","","<p>The volume calibration will be first.</p><p>You will hear a thirty-second noise. Please adjust your computer's volume so that this noise is being presented at a comfortable level.<p></p>","0","","","","","","","","","","","","","","","","","","","","","","","","","","","","","","","","","","","","","","","","","","",""
"audio-button-response","5","115170","0.0-3.0-0.0-2.0","1","1","xcw4qfx48wfp52k","","4933","","audCalib/volumetest.mp3","0","","","","","","","","","","","","","","","","","","","","","","","","","","","","","","","","","","","","","","","","","","",""
"html-button-response","6","143475","0.0-3.0-1.0-0.0","1","1","xcw4qfx48wfp52k","","28305","","<p>You will now complete a short headphone check.</p><p>On each trial, you will hear three tones. One of these tones will be quieter than the others. Your task is to identify whether the quiet tone occured first, second, or third.</p><p>There are six trials in total.<p></p>","0","","","","","","","","","","","","","","","","","","","","","","","","","","","","","","","","","","","","","","","","","","",""
"html-keyboard-response","7","144228","0.0-3.0-1.0-1.0-0.0","1","1","xcw4qfx48wfp52k","","null","","<div style=""font-size:60px;"">+</div>","","null","","","","","","","","","","","","","","","","","","","","","","","","","","","","","","","","","","","","","","","","","",""
"audio-button-response","8","149060","0.0-3.0-1.0-1.0-1.0","1","1","xcw4qfx48wfp52k","","4832","","audCalib/t2_2.mp3","1","","1","1","headphone-test","","","","","","","","","","","","","","","","","","","","","","","","","","","","","","","","","","","","","","",""
"html-keyboard-response","9","149814","0.0-3.0-1.0-1.0-0.1","1","1","xcw4qfx48wfp52k","","null","","<div style=""font-size:60px;"">+</div>","","null","","","","","","","","","","","","","","","","","","","","","","","","","","","","","","","","","","","","","","","","","",""
"audio-button-response","10","154716","0.0-3.0-1.0-1.0-1.1","1","1","xcw4qfx48wfp52k","","4896","","audCalib/t3_1.mp3","2","","2","1","headphone-test","","","","","","","","","","","","","","","","","","","","","","","","","","","","","","","","","","","","","","",""
"html-keyboard-response","11","155469","0.0-3.0-1.0-1.0-0.2","1","1","xcw4qfx48wfp52k","","null","","<div style=""font-size:60px;"">+</div>","","null","","","","","","","","","","","","","","","","","","","","","","","","","","","","","","","","","","","","","","","","","",""
"audio-button-response","12","160270","0.0-3.0-1.0-1.0-1.2","1","1","xcw4qfx48wfp52k","","4800","","audCalib/t2_1.mp3","1","","1","1","headphone-test","","","","","","","","","","","","","","","","","","","","","","","","","","","","","","","","","","","","","","",""
"html-keyboard-response","13","161023","0.0-3.0-1.0-1.0-0.3","1","1","xcw4qfx48wfp52k","","null","","<div style=""font-size:60px;"">+</div>","","null","","","","","","","","","","","","","","","","","","","","","","","","","","","","","","","","","","","","","","","","","",""
"audio-button-response","14","165672","0.0-3.0-1.0-1.0-1.3","1","1","xcw4qfx48wfp52k","","4651","","audCalib/t1_1.mp3","0","","0","1","headphone-test","","","","","","","","","","","","","","","","","","","","","","","","","","","","","","","","","","","","","","",""
"html-keyboard-response","15","166425","0.0-3.0-1.0-1.0-0.4","1","1","xcw4qfx48wfp52k","","null","","<div style=""font-size:60px;"">+</div>","","null","","","","","","","","","","","","","","","","","","","","","","","","","","","","","","","","","","","","","","","","","",""
"audio-button-response","16","170849","0.0-3.0-1.0-1.0-1.4","1","1","xcw4qfx48wfp52k","","4427","","audCalib/t1_2.mp3","0","","0","1","headphone-test","","","","","","","","","","","","","","","","","","","","","","","","","","","","","","","","","","","","","","",""
"html-keyboard-response","17","171602","0.0-3.0-1.0-1.0-0.5","1","1","xcw4qfx48wfp52k","","null","","<div style=""font-size:60px;"">+</div>","","null","","","","","","","","","","","","","","","","","","","","","","","","","","","","","","","","","","","","","","","","","",""
"audio-button-response","18","176277","0.0-3.0-1.0-1.0-1.5","1","1","xcw4qfx48wfp52k","","4672","","audCalib/t3_2.mp3","2","","2","1","headphone-test","","","","","","","","","","","","","","","","","","","","","","","","","","","","","","","","","","","","","","",""
"html-button-response","19","179010","0.0-3.0-2.0","1","1","xcw4qfx48wfp52k","","2480.000000000029","","<p>The volume calibration and headphone check are now complete.</p>","0","","","","","","","","","","","","","","","","","","","","","","","","","","","","","","","","","","","","","","","","","","",""
"instructions","20","199919","0.0-4.0-0.0","1","1","xcw4qfx48wfp52k","[{""page_index"":0,""viewing_time"":1780},{""page_index"":1,""viewing_time"":15312},{""page_index"":2,""viewing_time"":3817}]","20909","","","","","","","","","","","","","","","","","","","","","","","","","","","","","","","","","","","","","","","","","","","","","",""
"audio-keyboard-response","21","200231","0.0-4.0-1.0-0.0","1","1","xcw4qfx48wfp52k","","null","","sounds/induction/right/fu_SWS.wav","","null","","","","","","","","","","","","","","","","","","","","","","","","","","","","","","","","","","","","","","","","","",""
"html-button-response","22","208085","0.0-4.0-1.0-1.0","1","1","xcw4qfx48wfp52k","","7853","","What sound did you hear?","1","","","0","INDUCTION-JUDGMENT","right","0","","","","","","","","","","","","","","","","","","","","","","","","","","","","","","","","","","","","",""
"html-keyboard-response","23","209087","0.0-4.0-1.0-2.0","1","1","xcw4qfx48wfp52k","","null","","<p style=""color:red;""><b>Incorrect!</b></p>","","null","","","","","","","","","","","","","","","","","","","","","","","","","","","","","","","","","","","","","","","","","",""
"audio-keyboard-response","24","209894","0.0-4.0-1.0-0.1","1","1","xcw4qfx48wfp52k","","null","","sounds/induction/right/re_SWS.wav","","null","","","","","","","","","","","","","","","","","","","","","","","","","","","","","","","","","","","","","","","","","",""
"html-button-response","25","211379","0.0-4.0-1.0-1.1","1","1","xcw4qfx48wfp52k","","1484","","What sound did you hear?","1","","","1","INDUCTION-JUDGMENT","right","1","","","","","","","","","","","","","","","","","","","","","","","","","","","","","","","","","","","","",""
"html-keyboard-response","26","212382","0.0-4.0-1.0-2.1","1","1","xcw4qfx48wfp52k","","null","","<p style=""color:green;""><b>Correct!</b></p>","","null","","","","","","","","","","","","","","","","","","","","","","","","","","","","","","","","","","","","","","","","","",""
"audio-keyboard-response","27","213190","0.0-4.0-1.0-0.2","1","1","xcw4qfx48wfp52k","","null","","sounds/induction/left/ni_SWS.wav","","null","","","","","","","","","","","","","","","","","","","","","","","","","","","","","","","","","","","","","","","","","",""
"html-button-response","28","215436","0.0-4.0-1.0-1.2","1","1","xcw4qfx48wfp52k","","2244","","What sound did you hear?","0","","","0","INDUCTION-JUDGMENT","left","1","","","","","","","","","","","","","","","","","","","","","","","","","","","","","","","","","","","","",""
"html-keyboard-response","29","216438","0.0-4.0-1.0-2.2","1","1","xcw4qfx48wfp52k","","null","","<p style=""color:red;""><b>Incorrect!</b></p>","","null","","","","","","","","","","","","","","","","","","","","","","","","","","","","","","","","","","","","","","","","","",""
"audio-keyboard-response","30","217243","0.0-4.0-1.0-0.3","1","1","xcw4qfx48wfp52k","","null","","sounds/induction/left/me_SWS.wav","","null","","","","","","","","","","","","","","","","","","","","","","","","","","","","","","","","","","","","","","","","","",""
"html-button-response","31","218656","0.0-4.0-1.0-1.3","1","1","xcw4qfx48wfp52k","","1411","","What sound did you hear?","1","","","1","INDUCTION-JUDGMENT","left","1","","","","","","","","","","","","","","","","","","","","","","","","","","","","","","","","","","","","",""
"html-keyboard-response","32","219659","0.0-4.0-1.0-2.3","1","1","xcw4qfx48wfp52k","","null","","<p style=""color:green;""><b>Correct!</b></p>","","null","","","","","","","","","","","","","","","","","","","","","","","","","","","","","","","","","","","","","","","","","",""
"audio-keyboard-response","33","220464","0.0-4.0-1.0-0.4","1","1","xcw4qfx48wfp52k","","null","","sounds/induction/left/me_SWS.wav","","null","","","","","","","","","","","","","","","","","","","","","","","","","","","","","","","","","","","","","","","","","",""
"html-button-response","34","221835","0.0-4.0-1.0-1.4","1","1","xcw4qfx48wfp52k","","1369","","What sound did you hear?","1","","","1","INDUCTION-JUDGMENT","left","1","","","","","","","","","","","","","","","","","","","","","","","","","","","","","","","","","","","","",""
"html-keyboard-response","35","222837","0.0-4.0-1.0-2.4","1","1","xcw4qfx48wfp52k","","null","","<p style=""color:green;""><b>Correct!</b></p>","","null","","","","","","","","","","","","","","","","","","","","","","","","","","","","","","","","","","","","","","","","","",""
"audio-keyboard-response","36","223643","0.0-4.0-1.0-0.5","1","1","xcw4qfx48wfp52k","","null","","sounds/induction/left/ni_SWS.wav","","null","","","","","","","","","","","","","","","","","","","","","","","","","","","","","","","","","","","","","","","","","",""
"html-button-response","37","225623","0.0-4.0-1.0-1.5","1","1","xcw4qfx48wfp52k","","1978","","What sound did you hear?","1","","","1","INDUCTION-JUDGMENT","left","1","","","","","","","","","","","","","","","","","","","","","","","","","","","","","","","","","","","","",""
"html-keyboard-response","38","226625","0.0-4.0-1.0-2.5","1","1","xcw4qfx48wfp52k","","null","","<p style=""color:green;""><b>Correct!</b></p>","","null","","","","","","","","","","","","","","","","","","","","","","","","","","","","","","","","","","","","","","","","","",""
"audio-keyboard-response","39","227429","0.0-4.0-1.0-0.6","1","1","xcw4qfx48wfp52k","","null","","sounds/induction/left/ru_SWS.wav","","null","","","","","","","","","","","","","","","","","","","","","","","","","","","","","","","","","","","","","","","","","",""
"html-button-response","40","228952","0.0-4.0-1.0-1.6","1","1","xcw4qfx48wfp52k","","1521","","What sound did you hear?","0","","","1","INDUCTION-JUDGMENT","left","0","","","","","","","","","","","","","","","","","","","","","","","","","","","","","","","","","","","","",""
"html-keyboard-response","41","229954","0.0-4.0-1.0-2.6","1","1","xcw4qfx48wfp52k","","null","","<p style=""color:green;""><b>Correct!</b></p>","","null","","","","","","","","","","","","","","","","","","","","","","","","","","","","","","","","","","","","","","","","","",""
"audio-keyboard-response","42","230757","0.0-4.0-1.0-0.7","1","1","xcw4qfx48wfp52k","","null","","sounds/induction/right/ti_SWS.wav","","null","","","","","","","","","","","","","","","","","","","","","","","","","","","","","","","","","","","","","","","","","",""
"html-button-response","43","234389","0.0-4.0-1.0-1.7","1","1","xcw4qfx48wfp52k","","3630.999999999971","","What sound did you hear?","1","","","1","INDUCTION-JUDGMENT","right","1","","","","","","","","","","","","","","","","","","","","","","","","","","","","","","","","","","","","",""
"html-keyboard-response","44","235392","0.0-4.0-1.0-2.7","1","1","xcw4qfx48wfp52k","","null","","<p style=""color:green;""><b>Correct!</b></p>","","null","","","","","","","","","","","","","","","","","","","","","","","","","","","","","","","","","","","","","","","","","",""
"audio-keyboard-response","45","236197","0.0-4.0-1.0-0.8","1","1","xcw4qfx48wfp52k","","null","","sounds/induction/left/pu_SWS.wav","","null","","","","","","","","","","","","","","","","","","","","","","","","","","","","","","","","","","","","","","","","","",""
"html-button-response","46","237424","0.0-4.0-1.0-1.8","1","1","xcw4qfx48wfp52k","","1224.9999999999418","","What sound did you hear?","0","","","1","INDUCTION-JUDGMENT","left","0","","","","","","","","","","","","","","","","","","","","","","","","","","","","","","","","","","","","",""
"html-keyboard-response","47","238426","0.0-4.0-1.0-2.8","1","1","xcw4qfx48wfp52k","","null","","<p style=""color:green;""><b>Correct!</b></p>","","null","","","","","","","","","","","","","","","","","","","","","","","","","","","","","","","","","","","","","","","","","",""
"audio-keyboard-response","48","239237","0.0-4.0-1.0-0.9","1","1","xcw4qfx48wfp52k","","null","","sounds/induction/right/pu_SWS.wav","","null","","","","","","","","","","","","","","","","","","","","","","","","","","","","","","","","","","","","","","","","","",""
"html-button-response","49","240450","0.0-4.0-1.0-1.9","1","1","xcw4qfx48wfp52k","","1211.000000000029","","What sound did you hear?","1","","","1","INDUCTION-JUDGMENT","right","1","","","","","","","","","","","","","","","","","","","","","","","","","","","","","","","","","","","","",""
"html-keyboard-response","50","241452","0.0-4.0-1.0-2.9","1","1","xcw4qfx48wfp52k","","null","","<p style=""color:green;""><b>Correct!</b></p>","","null","","","","","","","","","","","","","","","","","","","","","","","","","","","","","","","","","","","","","","","","","",""
"audio-keyboard-response","51","242256","0.0-4.0-1.0-0.10","1","1","xcw4qfx48wfp52k","","null","","sounds/induction/right/me_SWS.wav","","null","","","","","","","","","","","","","","","","","","","","","","","","","","","","","","","","","","","","","","","","","",""
"html-button-response","52","243729","0.0-4.0-1.0-1.10","1","1","xcw4qfx48wfp52k","","1472","","What sound did you hear?","0","","","1","INDUCTION-JUDGMENT","right","0","","","","","","","","","","","","","","","","","","","","","","","","","","","","","","","","","","","","",""
"html-keyboard-response","53","244732","0.0-4.0-1.0-2.10","1","1","xcw4qfx48wfp52k","","null","","<p style=""color:green;""><b>Correct!</b></p>","","null","","","","","","","","","","","","","","","","","","","","","","","","","","","","","","","","","","","","","","","","","",""
"audio-keyboard-response","54","245541","0.0-4.0-1.0-0.11","1","1","xcw4qfx48wfp52k","","null","","sounds/induction/right/pu_SWS.wav","","null","","","","","","","","","","","","","","","","","","","","","","","","","","","","","","","","","","","","","","","","","",""
"html-button-response","55","246877","0.0-4.0-1.0-1.11","1","1","xcw4qfx48wfp52k","","1334","","What sound did you hear?","1","","","1","INDUCTION-JUDGMENT","right","1","","","","","","","","","","","","","","","","","","","","","","","","","","","","","","","","","","","","",""
"html-keyboard-response","56","247879","0.0-4.0-1.0-2.11","1","1","xcw4qfx48wfp52k","","null","","<p style=""color:green;""><b>Correct!</b></p>","","null","","","","","","","","","","","","","","","","","","","","","","","","","","","","","","","","","","","","","","","","","",""
"audio-keyboard-response","57","248687","0.0-4.0-1.0-0.12","1","1","xcw4qfx48wfp52k","","null","","sounds/induction/right/ni_SWS.wav","","null","","","","","","","","","","","","","","","","","","","","","","","","","","","","","","","","","","","","","","","","","",""
"html-button-response","58","250097","0.0-4.0-1.0-1.12","1","1","xcw4qfx48wfp52k","","1408","","What sound did you hear?","0","","","1","INDUCTION-JUDGMENT","right","0","","","","","","","","","","","","","","","","","","","","","","","","","","","","","","","","","","","","",""
"html-keyboard-response","59","251099","0.0-4.0-1.0-2.12","1","1","xcw4qfx48wfp52k","","null","","<p style=""color:green;""><b>Correct!</b></p>","","null","","","","","","","","","","","","","","","","","","","","","","","","","","","","","","","","","","","","","","","","","",""
"audio-keyboard-response","60","251909","0.0-4.0-1.0-0.13","1","1","xcw4qfx48wfp52k","","null","","sounds/induction/left/ti_SWS.wav","","null","","","","","","","","","","","","","","","","","","","","","","","","","","","","","","","","","","","","","","","","","",""
"html-button-response","61","253092","0.0-4.0-1.0-1.13","1","1","xcw4qfx48wfp52k","","1181","","What sound did you hear?","1","","","0","INDUCTION-JUDGMENT","left","0","","","","","","","","","","","","","","","","","","","","","","","","","","","","","","","","","","","","",""
"html-keyboard-response","62","254094","0.0-4.0-1.0-2.13","1","1","xcw4qfx48wfp52k","","null","","<p style=""color:red;""><b>Incorrect!</b></p>","","null","","","","","","","","","","","","","","","","","","","","","","","","","","","","","","","","","","","","","","","","","",""
"audio-keyboard-response","63","254906","0.0-4.0-1.0-0.14","1","1","xcw4qfx48wfp52k","","null","","sounds/induction/left/re_SWS.wav","","null","","","","","","","","","","","","","","","","","","","","","","","","","","","","","","","","","","","","","","","","","",""
"html-button-response","64","256598","0.0-4.0-1.0-1.14","1","1","xcw4qfx48wfp52k","","1691","","What sound did you hear?","0","","","1","INDUCTION-JUDGMENT","left","0","","","","","","","","","","","","","","","","","","","","","","","","","","","","","","","","","","","","",""
"html-keyboard-response","65","257601","0.0-4.0-1.0-2.14","1","1","xcw4qfx48wfp52k","","null","","<p style=""color:green;""><b>Correct!</b></p>","","null","","","","","","","","","","","","","","","","","","","","","","","","","","","","","","","","","","","","","","","","","",""
"audio-keyboard-response","66","258405","0.0-4.0-1.0-0.15","1","1","xcw4qfx48wfp52k","","null","","sounds/induction/left/re_SWS.wav","","null","","","","","","","","","","","","","","","","","","","","","","","","","","","","","","","","","","","","","","","","","",""
"html-button-response","67","260055","0.0-4.0-1.0-1.15","1","1","xcw4qfx48wfp52k","","1648","","What sound did you hear?","0","","","1","INDUCTION-JUDGMENT","left","0","","","","","","","","","","","","","","","","","","","","","","","","","","","","","","","","","","","","",""
"html-keyboard-response","68","261057","0.0-4.0-1.0-2.15","1","1","xcw4qfx48wfp52k","","null","","<p style=""color:green;""><b>Correct!</b></p>","","null","","","","","","","","","","","","","","","","","","","","","","","","","","","","","","","","","","","","","","","","","",""
"audio-keyboard-response","69","261861","0.0-4.0-1.0-0.16","1","1","xcw4qfx48wfp52k","","null","","sounds/induction/right/me_SWS.wav","","null","","","","","","","","","","","","","","","","","","","","","","","","","","","","","","","","","","","","","","","","","",""
"html-button-response","70","263227","0.0-4.0-1.0-1.16","1","1","xcw4qfx48wfp52k","","1365","","What sound did you hear?","0","","","1","INDUCTION-JUDGMENT","right","0","","","","","","","","","","","","","","","","","","","","","","","","","","","","","","","","","","","","",""
"html-keyboard-response","71","264230","0.0-4.0-1.0-2.16","1","1","xcw4qfx48wfp52k","","null","","<p style=""color:green;""><b>Correct!</b></p>","","null","","","","","","","","","","","","","","","","","","","","","","","","","","","","","","","","","","","","","","","","","",""
"audio-keyboard-response","72","265039","0.0-4.0-1.0-0.17","1","1","xcw4qfx48wfp52k","","null","","sounds/induction/left/pu_SWS.wav","","null","","","","","","","","","","","","","","","","","","","","","","","","","","","","","","","","","","","","","","","","","",""
"html-button-response","73","265806","0.0-4.0-1.0-1.17","1","1","xcw4qfx48wfp52k","","764.9999999999418","","What sound did you hear?","0","","","1","INDUCTION-JUDGMENT","left","0","","","","","","","","","","","","","","","","","","","","","","","","","","","","","","","","","","","","",""
"html-keyboard-response","74","266808","0.0-4.0-1.0-2.17","1","1","xcw4qfx48wfp52k","","null","","<p style=""color:green;""><b>Correct!</b></p>","","null","","","","","","","","","","","","","","","","","","","","","","","","","","","","","","","","","","","","","","","","","",""
"audio-keyboard-response","75","267610","0.0-4.0-1.0-0.18","1","1","xcw4qfx48wfp52k","","null","","sounds/induction/left/fe_SWS.wav","","null","","","","","","","","","","","","","","","","","","","","","","","","","","","","","","","","","","","","","","","","","",""
"html-button-response","76","268424","0.0-4.0-1.0-1.18","1","1","xcw4qfx48wfp52k","","814","","What sound did you hear?","0","","","0","INDUCTION-JUDGMENT","left","1","","","","","","","","","","","","","","","","","","","","","","","","","","","","","","","","","","","","",""
"html-keyboard-response","77","269427","0.0-4.0-1.0-2.18","1","1","xcw4qfx48wfp52k","","null","","<p style=""color:red;""><b>Incorrect!</b></p>","","null","","","","","","","","","","","","","","","","","","","","","","","","","","","","","","","","","","","","","","","","","",""
"audio-keyboard-response","78","270234","0.0-4.0-1.0-0.19","1","1","xcw4qfx48wfp52k","","null","","sounds/induction/left/su_SWS.wav","","null","","","","","","","","","","","","","","","","","","","","","","","","","","","","","","","","","","","","","","","","","",""
"html-button-response","79","272532","0.0-4.0-1.0-1.19","1","1","xcw4qfx48wfp52k","","2297","","What sound did you hear?","0","","","1","INDUCTION-JUDGMENT","left","0","","","","","","","","","","","","","","","","","","","","","","","","","","","","","","","","","","","","",""
"html-keyboard-response","80","273535","0.0-4.0-1.0-2.19","1","1","xcw4qfx48wfp52k","","null","","<p style=""color:green;""><b>Correct!</b></p>","","null","","","","","","","","","","","","","","","","","","","","","","","","","","","","","","","","","","","","","","","","","",""
"audio-keyboard-response","81","274340","0.0-4.0-1.0-0.20","1","1","xcw4qfx48wfp52k","","null","","sounds/induction/right/ti_SWS.wav","","null","","","","","","","","","","","","","","","","","","","","","","","","","","","","","","","","","","","","","","","","","",""
"html-button-response","82","276111","0.0-4.0-1.0-1.20","1","1","xcw4qfx48wfp52k","","1769","","What sound did you hear?","1","","","1","INDUCTION-JUDGMENT","right","1","","","","","","","","","","","","","","","","","","","","","","","","","","","","","","","","","","","","",""
"html-keyboard-response","83","277114","0.0-4.0-1.0-2.20","1","1","xcw4qfx48wfp52k","","null","","<p style=""color:green;""><b>Correct!</b></p>","","null","","","","","","","","","","","","","","","","","","","","","","","","","","","","","","","","","","","","","","","","","",""
"audio-keyboard-response","84","277924","0.0-4.0-1.0-0.21","1","1","xcw4qfx48wfp52k","","null","","sounds/induction/right/fe_SWS.wav","","null","","","","","","","","","","","","","","","","","","","","","","","","","","","","","","","","","","","","","","","","","",""
"html-button-response","85","280178","0.0-4.0-1.0-1.21","1","1","xcw4qfx48wfp52k","","2252.000000000058","","What sound did you hear?","0","","","1","INDUCTION-JUDGMENT","right","0","","","","","","","","","","","","","","","","","","","","","","","","","","","","","","","","","","","","",""
"html-keyboard-response","86","281181","0.0-4.0-1.0-2.21","1","1","xcw4qfx48wfp52k","","null","","<p style=""color:green;""><b>Correct!</b></p>","","null","","","","","","","","","","","","","","","","","","","","","","","","","","","","","","","","","","","","","","","","","",""
"audio-keyboard-response","87","281988","0.0-4.0-1.0-0.22","1","1","xcw4qfx48wfp52k","","null","","sounds/induction/right/ge_SWS.wav","","null","","","","","","","","","","","","","","","","","","","","","","","","","","","","","","","","","","","","","","","","","",""
"html-button-response","88","284480","0.0-4.0-1.0-1.22","1","1","xcw4qfx48wfp52k","","2491.000000000058","","What sound did you hear?","0","","","1","INDUCTION-JUDGMENT","right","0","","","","","","","","","","","","","","","","","","","","","","","","","","","","","","","","","","","","",""
"html-keyboard-response","89","285483","0.0-4.0-1.0-2.22","1","1","xcw4qfx48wfp52k","","null","","<p style=""color:green;""><b>Correct!</b></p>","","null","","","","","","","","","","","","","","","","","","","","","","","","","","","","","","","","","","","","","","","","","",""
"audio-keyboard-response","90","286287","0.0-4.0-1.0-0.23","1","1","xcw4qfx48wfp52k","","null","","sounds/induction/left/fu_SWS.wav","","null","","","","","","","","","","","","","","","","","","","","","","","","","","","","","","","","","","","","","","","","","",""
"html-button-response","91","287458","0.0-4.0-1.0-1.23","1","1","xcw4qfx48wfp52k","","1170","","What sound did you hear?","1","","","1","INDUCTION-JUDGMENT","left","1","","","","","","","","","","","","","","","","","","","","","","","","","","","","","","","","","","","","",""
"html-keyboard-response","92","288461","0.0-4.0-1.0-2.23","1","1","xcw4qfx48wfp52k","","null","","<p style=""color:green;""><b>Correct!</b></p>","","null","","","","","","","","","","","","","","","","","","","","","","","","","","","","","","","","","","","","","","","","","",""
"audio-keyboard-response","93","289262","0.0-4.0-1.0-0.24","1","1","xcw4qfx48wfp52k","","null","","sounds/induction/left/ta_SWS.wav","","null","","","","","","","","","","","","","","","","","","","","","","","","","","","","","","","","","","","","","","","","","",""
"html-button-response","94","291498","0.0-4.0-1.0-1.24","1","1","xcw4qfx48wfp52k","","2233","","What sound did you hear?","0","","","1","INDUCTION-JUDGMENT","left","0","","","","","","","","","","","","","","","","","","","","","","","","","","","","","","","","","","","","",""
"html-keyboard-response","95","292501","0.0-4.0-1.0-2.24","1","1","xcw4qfx48wfp52k","","null","","<p style=""color:green;""><b>Correct!</b></p>","","null","","","","","","","","","","","","","","","","","","","","","","","","","","","","","","","","","","","","","","","","","",""
"audio-keyboard-response","96","293305","0.0-4.0-1.0-0.25","1","1","xcw4qfx48wfp52k","","null","","sounds/induction/right/fu_SWS.wav","","null","","","","","","","","","","","","","","","","","","","","","","","","","","","","","","","","","","","","","","","","","",""
"html-button-response","97","294735","0.0-4.0-1.0-1.25","1","1","xcw4qfx48wfp52k","","1429","","What sound did you hear?","0","","","1","INDUCTION-JUDGMENT","right","0","","","","","","","","","","","","","","","","","","","","","","","","","","","","","","","","","","","","",""
"html-keyboard-response","98","295737","0.0-4.0-1.0-2.25","1","1","xcw4qfx48wfp52k","","null","","<p style=""color:green;""><b>Correct!</b></p>","","null","","","","","","","","","","","","","","","","","","","","","","","","","","","","","","","","","","","","","","","","","",""
"audio-keyboard-response","99","296548","0.0-4.0-1.0-0.26","1","1","xcw4qfx48wfp52k","","null","","sounds/induction/left/ta_SWS.wav","","null","","","","","","","","","","","","","","","","","","","","","","","","","","","","","","","","","","","","","","","","","",""
"html-button-response","100","297564","0.0-4.0-1.0-1.26","1","1","xcw4qfx48wfp52k","","1015.0000000000582","","What sound did you hear?","0","","","1","INDUCTION-JUDGMENT","left","0","","","","","","","","","","","","","","","","","","","","","","","","","","","","","","","","","","","","",""
"html-keyboard-response","101","298567","0.0-4.0-1.0-2.26","1","1","xcw4qfx48wfp52k","","null","","<p style=""color:green;""><b>Correct!</b></p>","","null","","","","","","","","","","","","","","","","","","","","","","","","","","","","","","","","","","","","","","","","","",""
"audio-keyboard-response","102","299374","0.0-4.0-1.0-0.27","1","1","xcw4qfx48wfp52k","","null","","sounds/induction/right/ge_SWS.wav","","null","","","","","","","","","","","","","","","","","","","","","","","","","","","","","","","","","","","","","","","","","",""
"html-button-response","103","301608","0.0-4.0-1.0-1.27","1","1","xcw4qfx48wfp52k","","2231","","What sound did you hear?","1","","","0","INDUCTION-JUDGMENT","right","0","","","","","","","","","","","","","","","","","","","","","","","","","","","","","","","","","","","","",""
"html-keyboard-response","104","302610","0.0-4.0-1.0-2.27","1","1","xcw4qfx48wfp52k","","null","","<p style=""color:red;""><b>Incorrect!</b></p>","","null","","","","","","","","","","","","","","","","","","","","","","","","","","","","","","","","","","","","","","","","","",""
"audio-keyboard-response","105","303417","0.0-4.0-1.0-0.28","1","1","xcw4qfx48wfp52k","","null","","sounds/induction/left/su_SWS.wav","","null","","","","","","","","","","","","","","","","","","","","","","","","","","","","","","","","","","","","","","","","","",""
"html-button-response","106","305982","0.0-4.0-1.0-1.28","1","1","xcw4qfx48wfp52k","","2564","","What sound did you hear?","1","","","0","INDUCTION-JUDGMENT","left","0","","","","","","","","","","","","","","","","","","","","","","","","","","","","","","","","","","","","",""
"html-keyboard-response","107","306985","0.0-4.0-1.0-2.28","1","1","xcw4qfx48wfp52k","","null","","<p style=""color:red;""><b>Incorrect!</b></p>","","null","","","","","","","","","","","","","","","","","","","","","","","","","","","","","","","","","","","","","","","","","",""
"audio-keyboard-response","108","307790","0.0-4.0-1.0-0.29","1","1","xcw4qfx48wfp52k","","null","","sounds/induction/right/ta_SWS.wav","","null","","","","","","","","","","","","","","","","","","","","","","","","","","","","","","","","","","","","","","","","","",""
"html-button-response","109","309138","0.0-4.0-1.0-1.29","1","1","xcw4qfx48wfp52k","","1346","","What sound did you hear?","0","","","0","INDUCTION-JUDGMENT","right","1","","","","","","","","","","","","","","","","","","","","","","","","","","","","","","","","","","","","",""
"html-keyboard-response","110","310140","0.0-4.0-1.0-2.29","1","1","xcw4qfx48wfp52k","","null","","<p style=""color:red;""><b>Incorrect!</b></p>","","null","","","","","","","","","","","","","","","","","","","","","","","","","","","","","","","","","","","","","","","","","",""
"audio-keyboard-response","111","310947","0.0-4.0-1.0-0.30","1","1","xcw4qfx48wfp52k","","null","","sounds/induction/right/re_SWS.wav","","null","","","","","","","","","","","","","","","","","","","","","","","","","","","","","","","","","","","","","","","","","",""
"html-button-response","112","312596","0.0-4.0-1.0-1.30","1","1","xcw4qfx48wfp52k","","1647","","What sound did you hear?","1","","","1","INDUCTION-JUDGMENT","right","1","","","","","","","","","","","","","","","","","","","","","","","","","","","","","","","","","","","","",""
"html-keyboard-response","113","313598","0.0-4.0-1.0-2.30","1","1","xcw4qfx48wfp52k","","null","","<p style=""color:green;""><b>Correct!</b></p>","","null","","","","","","","","","","","","","","","","","","","","","","","","","","","","","","","","","","","","","","","","","",""
"audio-keyboard-response","114","314403","0.0-4.0-1.0-0.31","1","1","xcw4qfx48wfp52k","","null","","sounds/induction/right/ko_SWS.wav","","null","","","","","","","","","","","","","","","","","","","","","","","","","","","","","","","","","","","","","","","","","",""
"html-button-response","115","315856","0.0-4.0-1.0-1.31","1","1","xcw4qfx48wfp52k","","1452","","What sound did you hear?","0","","","1","INDUCTION-JUDGMENT","right","0","","","","","","","","","","","","","","","","","","","","","","","","","","","","","","","","","","","","",""
"html-keyboard-response","116","316858","0.0-4.0-1.0-2.31","1","1","xcw4qfx48wfp52k","","null","","<p style=""color:green;""><b>Correct!</b></p>","","null","","","","","","","","","","","","","","","","","","","","","","","","","","","","","","","","","","","","","","","","","",""
"audio-keyboard-response","117","317667","0.0-4.0-1.0-0.32","1","1","xcw4qfx48wfp52k","","null","","sounds/induction/left/ge_SWS.wav","","null","","","","","","","","","","","","","","","","","","","","","","","","","","","","","","","","","","","","","","","","","",""
"html-button-response","118","319143","0.0-4.0-1.0-1.32","1","1","xcw4qfx48wfp52k","","1475","","What sound did you hear?","1","","","1","INDUCTION-JUDGMENT","left","1","","","","","","","","","","","","","","","","","","","","","","","","","","","","","","","","","","","","",""
"html-keyboard-response","119","320146","0.0-4.0-1.0-2.32","1","1","xcw4qfx48wfp52k","","null","","<p style=""color:green;""><b>Correct!</b></p>","","null","","","","","","","","","","","","","","","","","","","","","","","","","","","","","","","","","","","","","","","","","",""
"audio-keyboard-response","120","320953","0.0-4.0-1.0-0.33","1","1","xcw4qfx48wfp52k","","null","","sounds/induction/left/fu_SWS.wav","","null","","","","","","","","","","","","","","","","","","","","","","","","","","","","","","","","","","","","","","","","","",""
"html-button-response","121","321991","0.0-4.0-1.0-1.33","1","1","xcw4qfx48wfp52k","","1036","","What sound did you hear?","1","","","1","INDUCTION-JUDGMENT","left","1","","","","","","","","","","","","","","","","","","","","","","","","","","","","","","","","","","","","",""
"html-keyboard-response","122","322994","0.0-4.0-1.0-2.33","1","1","xcw4qfx48wfp52k","","null","","<p style=""color:green;""><b>Correct!</b></p>","","null","","","","","","","","","","","","","","","","","","","","","","","","","","","","","","","","","","","","","","","","","",""
"audio-keyboard-response","123","323800","0.0-4.0-1.0-0.34","1","1","xcw4qfx48wfp52k","","null","","sounds/induction/right/fe_SWS.wav","","null","","","","","","","","","","","","","","","","","","","","","","","","","","","","","","","","","","","","","","","","","",""
"html-button-response","124","325146","0.0-4.0-1.0-1.34","1","1","xcw4qfx48wfp52k","","1343.9999999999418","","What sound did you hear?","0","","","1","INDUCTION-JUDGMENT","right","0","","","","","","","","","","","","","","","","","","","","","","","","","","","","","","","","","","","","",""
"html-keyboard-response","125","326149","0.0-4.0-1.0-2.34","1","1","xcw4qfx48wfp52k","","null","","<p style=""color:green;""><b>Correct!</b></p>","","null","","","","","","","","","","","","","","","","","","","","","","","","","","","","","","","","","","","","","","","","","",""
"audio-keyboard-response","126","326958","0.0-4.0-1.0-0.35","1","1","xcw4qfx48wfp52k","","null","","sounds/induction/left/ru_SWS.wav","","null","","","","","","","","","","","","","","","","","","","","","","","","","","","","","","","","","","","","","","","","","",""
"html-button-response","127","328278","0.0-4.0-1.0-1.35","1","1","xcw4qfx48wfp52k","","1318.0000000000582","","What sound did you hear?","0","","","1","INDUCTION-JUDGMENT","left","0","","","","","","","","","","","","","","","","","","","","","","","","","","","","","","","","","","","","",""
"html-keyboard-response","128","329280","0.0-4.0-1.0-2.35","1","1","xcw4qfx48wfp52k","","null","","<p style=""color:green;""><b>Correct!</b></p>","","null","","","","","","","","","","","","","","","","","","","","","","","","","","","","","","","","","","","","","","","","","",""
"audio-keyboard-response","129","330083","0.0-4.0-1.0-0.36","1","1","xcw4qfx48wfp52k","","null","","sounds/induction/left/fe_SWS.wav","","null","","","","","","","","","","","","","","","","","","","","","","","","","","","","","","","","","","","","","","","","","",""
"html-button-response","130","332692","0.0-4.0-1.0-1.36","1","1","xcw4qfx48wfp52k","","2608","","What sound did you hear?","1","","","1","INDUCTION-JUDGMENT","left","1","","","","","","","","","","","","","","","","","","","","","","","","","","","","","","","","","","","","",""
"html-keyboard-response","131","333695","0.0-4.0-1.0-2.36","1","1","xcw4qfx48wfp52k","","null","","<p style=""color:green;""><b>Correct!</b></p>","","null","","","","","","","","","","","","","","","","","","","","","","","","","","","","","","","","","","","","","","","","","",""
"audio-keyboard-response","132","334499","0.0-4.0-1.0-0.37","1","1","xcw4qfx48wfp52k","","null","","sounds/induction/left/ko_SWS.wav","","null","","","","","","","","","","","","","","","","","","","","","","","","","","","","","","","","","","","","","","","","","",""
"html-button-response","133","335922","0.0-4.0-1.0-1.37","1","1","xcw4qfx48wfp52k","","1422","","What sound did you hear?","1","","","1","INDUCTION-JUDGMENT","left","1","","","","","","","","","","","","","","","","","","","","","","","","","","","","","","","","","","","","",""
"html-keyboard-response","134","336925","0.0-4.0-1.0-2.37","1","1","xcw4qfx48wfp52k","","null","","<p style=""color:green;""><b>Correct!</b></p>","","null","","","","","","","","","","","","","","","","","","","","","","","","","","","","","","","","","","","","","","","","","",""
"audio-keyboard-response","135","337731","0.0-4.0-1.0-0.38","1","1","xcw4qfx48wfp52k","","null","","sounds/induction/left/ko_SWS.wav","","null","","","","","","","","","","","","","","","","","","","","","","","","","","","","","","","","","","","","","","","","","",""
"html-button-response","136","339088","0.0-4.0-1.0-1.38","1","1","xcw4qfx48wfp52k","","1355.0000000000582","","What sound did you hear?","1","","","1","INDUCTION-JUDGMENT","left","1","","","","","","","","","","","","","","","","","","","","","","","","","","","","","","","","","","","","",""
"html-keyboard-response","137","340090","0.0-4.0-1.0-2.38","1","1","xcw4qfx48wfp52k","","null","","<p style=""color:green;""><b>Correct!</b></p>","","null","","","","","","","","","","","","","","","","","","","","","","","","","","","","","","","","","","","","","","","","","",""
"audio-keyboard-response","138","340899","0.0-4.0-1.0-0.39","1","1","xcw4qfx48wfp52k","","null","","sounds/induction/right/su_SWS.wav","","null","","","","","","","","","","","","","","","","","","","","","","","","","","","","","","","","","","","","","","","","","",""
"html-button-response","139","343024","0.0-4.0-1.0-1.39","1","1","xcw4qfx48wfp52k","","2124","","What sound did you hear?","0","","","0","INDUCTION-JUDGMENT","right","1","","","","","","","","","","","","","","","","","","","","","","","","","","","","","","","","","","","","",""
"html-keyboard-response","140","344026","0.0-4.0-1.0-2.39","1","1","xcw4qfx48wfp52k","","null","","<p style=""color:red;""><b>Incorrect!</b></p>","","null","","","","","","","","","","","","","","","","","","","","","","","","","","","","","","","","","","","","","","","","","",""
"audio-keyboard-response","141","344834","0.0-4.0-1.0-0.40","1","1","xcw4qfx48wfp52k","","null","","sounds/induction/right/ru_SWS.wav","","null","","","","","","","","","","","","","","","","","","","","","","","","","","","","","","","","","","","","","","","","","",""
"html-button-response","142","346181","0.0-4.0-1.0-1.40","1","1","xcw4qfx48wfp52k","","1345","","What sound did you hear?","1","","","1","INDUCTION-JUDGMENT","right","1","","","","","","","","","","","","","","","","","","","","","","","","","","","","","","","","","","","","",""
"html-keyboard-response","143","347183","0.0-4.0-1.0-2.40","1","1","xcw4qfx48wfp52k","","null","","<p style=""color:green;""><b>Correct!</b></p>","","null","","","","","","","","","","","","","","","","","","","","","","","","","","","","","","","","","","","","","","","","","",""
"audio-keyboard-response","144","347992","0.0-4.0-1.0-0.41","1","1","xcw4qfx48wfp52k","","null","","sounds/induction/right/ru_SWS.wav","","null","","","","","","","","","","","","","","","","","","","","","","","","","","","","","","","","","","","","","","","","","",""
"html-button-response","145","348825","0.0-4.0-1.0-1.41","1","1","xcw4qfx48wfp52k","","832.0000000000582","","What sound did you hear?","1","","","1","INDUCTION-JUDGMENT","right","1","","","","","","","","","","","","","","","","","","","","","","","","","","","","","","","","","","","","",""
"html-keyboard-response","146","349826","0.0-4.0-1.0-2.41","1","1","xcw4qfx48wfp52k","","null","","<p style=""color:green;""><b>Correct!</b></p>","","null","","","","","","","","","","","","","","","","","","","","","","","","","","","","","","","","","","","","","","","","","",""
"audio-keyboard-response","147","350637","0.0-4.0-1.0-0.42","1","1","xcw4qfx48wfp52k","","null","","sounds/induction/right/ko_SWS.wav","","null","","","","","","","","","","","","","","","","","","","","","","","","","","","","","","","","","","","","","","","","","",""
"html-button-response","148","351810","0.0-4.0-1.0-1.42","1","1","xcw4qfx48wfp52k","","1171","","What sound did you hear?","0","","","1","INDUCTION-JUDGMENT","right","0","","","","","","","","","","","","","","","","","","","","","","","","","","","","","","","","","","","","",""
"html-keyboard-response","149","352812","0.0-4.0-1.0-2.42","1","1","xcw4qfx48wfp52k","","null","","<p style=""color:green;""><b>Correct!</b></p>","","null","","","","","","","","","","","","","","","","","","","","","","","","","","","","","","","","","","","","","","","","","",""
"audio-keyboard-response","150","353624","0.0-4.0-1.0-0.43","1","1","xcw4qfx48wfp52k","","null","","sounds/induction/right/su_SWS.wav","","null","","","","","","","","","","","","","","","","","","","","","","","","","","","","","","","","","","","","","","","","","",""
"html-button-response","151","354838","0.0-4.0-1.0-1.43","1","1","xcw4qfx48wfp52k","","1213","","What sound did you hear?","1","","","1","INDUCTION-JUDGMENT","right","1","","","","","","","","","","","","","","","","","","","","","","","","","","","","","","","","","","","","",""
"html-keyboard-response","152","355840","0.0-4.0-1.0-2.43","1","1","xcw4qfx48wfp52k","","null","","<p style=""color:green;""><b>Correct!</b></p>","","null","","","","","","","","","","","","","","","","","","","","","","","","","","","","","","","","","","","","","","","","","",""
"audio-keyboard-response","153","356642","0.0-4.0-1.0-0.44","1","1","xcw4qfx48wfp52k","","null","","sounds/induction/left/ti_SWS.wav","","null","","","","","","","","","","","","","","","","","","","","","","","","","","","","","","","","","","","","","","","","","",""
"html-button-response","154","357935","0.0-4.0-1.0-1.44","1","1","xcw4qfx48wfp52k","","1291","","What sound did you hear?","1","","","0","INDUCTION-JUDGMENT","left","0","","","","","","","","","","","","","","","","","","","","","","","","","","","","","","","","","","","","",""
"html-keyboard-response","155","358938","0.0-4.0-1.0-2.44","1","1","xcw4qfx48wfp52k","","null","","<p style=""color:red;""><b>Incorrect!</b></p>","","null","","","","","","","","","","","","","","","","","","","","","","","","","","","","","","","","","","","","","","","","","",""
"audio-keyboard-response","156","359746","0.0-4.0-1.0-0.45","1","1","xcw4qfx48wfp52k","","null","","sounds/induction/left/ge_SWS.wav","","null","","","","","","","","","","","","","","","","","","","","","","","","","","","","","","","","","","","","","","","","","",""
"html-button-response","157","360961","0.0-4.0-1.0-1.45","1","1","xcw4qfx48wfp52k","","1212.9999999999418","","What sound did you hear?","1","","","1","INDUCTION-JUDGMENT","left","1","","","","","","","","","","","","","","","","","","","","","","","","","","","","","","","","","","","","",""
"html-keyboard-response","158","361963","0.0-4.0-1.0-2.45","1","1","xcw4qfx48wfp52k","","null","","<p style=""color:green;""><b>Correct!</b></p>","","null","","","","","","","","","","","","","","","","","","","","","","","","","","","","","","","","","","","","","","","","","",""
"audio-keyboard-response","159","362765","0.0-4.0-1.0-0.46","1","1","xcw4qfx48wfp52k","","null","","sounds/induction/right/ta_SWS.wav","","null","","","","","","","","","","","","","","","","","","","","","","","","","","","","","","","","","","","","","","","","","",""
"html-button-response","160","364540","0.0-4.0-1.0-1.46","1","1","xcw4qfx48wfp52k","","1773","","What sound did you hear?","1","","","1","INDUCTION-JUDGMENT","right","1","","","","","","","","","","","","","","","","","","","","","","","","","","","","","","","","","","","","",""
"html-keyboard-response","161","365542","0.0-4.0-1.0-2.46","1","1","xcw4qfx48wfp52k","","null","","<p style=""color:green;""><b>Correct!</b></p>","","null","","","","","","","","","","","","","","","","","","","","","","","","","","","","","","","","","","","","","","","","","",""
"audio-keyboard-response","162","366349","0.0-4.0-1.0-0.47","1","1","xcw4qfx48wfp52k","","null","","sounds/induction/right/ni_SWS.wav","","null","","","","","","","","","","","","","","","","","","","","","","","","","","","","","","","","","","","","","","","","","",""
"html-button-response","163","367743","0.0-4.0-1.0-1.47","1","1","xcw4qfx48wfp52k","","1393","","What sound did you hear?","0","","","1","INDUCTION-JUDGMENT","right","0","","","","","","","","","","","","","","","","","","","","","","","","","","","","","","","","","","","","",""
"html-keyboard-response","164","368746","0.0-4.0-1.0-2.47","1","1","xcw4qfx48wfp52k","","null","","<p style=""color:green;""><b>Correct!</b></p>","","null","","","","","","","","","","","","","","","","","","","","","","","","","","","","","","","","","","","","","","","","","",""
"html-button-response","165","382627","0.0-5.0-0.0","1","1","xcw4qfx48wfp52k","","13379.000000000058","","<p>Thank you for your answers.</p><p>You will now listen to similar sounds. The main difference is that the sounds will be longer and will make up complete sentences.</p><p>Please listen carefully to each sentence. After each sentence, you will be asked to type back what you heard to the best of your ability. After you provide your response, you will be given feedback about the correct answer.</p><p>There are 10 sentences in total.","0","","","","","","","","","","","","","","","","","","","","","","","","","","","","","","","","","","","","","","","","","","",""
"audio-keyboard-response","166","385377","0.0-5.0-1.0-0.0","1","1","xcw4qfx48wfp52k","","null","","sounds/sentences/right/14_06_cfSWS.wav","","null","","","","","","","","","","","","","","","","","","","","","","","","","","","","","","","","","","","","","","","","","",""
"sentence-resp","167","409207","0.0-5.0-1.0-1.0","1","1","xcw4qfx48wfp52k","","23826","","","","","","","SWS-SENT-RESPONSE","","","{""Q0"":""I went to the store""}","Bring your problems to the wise chief.","bring,your,problems,wise,chief","I WENT TO THE STORE","0","0","0","0","0","0","0","","","","","","","","","","","","","","","","","","","","","","","","","",""
"html-keyboard-response","168","410461","0.0-5.0-1.0-2.0","1","1","xcw4qfx48wfp52k","","null","","","","null","","","","","","","","","","","","","","","","","","","","","","","","","","","","","","","","","","","","","","","","","",""
"audio-keyboard-response","169","412705","0.0-5.0-1.0-3.0","1","1","xcw4qfx48wfp52k","","null","","sounds/sentences/right/14_06_cfSWS.wav","","null","","","","","","","","","","","","","","","","","","","","","","","","","","","","","","","","","","","","","","","","","",""
"html-keyboard-response","170","413707","0.0-5.0-1.0-4.0","1","1","xcw4qfx48wfp52k","","null","","","","null","","","","","","","","","","","","","","","","","","","","","","","","","","","","","","","","","","","","","","","","","",""
"html-button-response","171","419329","0.0-5.0-1.0-5.0","1","1","xcw4qfx48wfp52k","","5118.999999999942","","<p>Press the button below when you are ready to continue.</p>","0","","","","","","","","","","","","","","","","","","","","","","","","","","","","","","","","","","","","","","","","","","",""
"audio-keyboard-response","172","422091","0.0-5.0-1.0-0.1","1","1","xcw4qfx48wfp52k","","null","","sounds/sentences/right/14_08_cfSWS.wav","","null","","","","","","","","","","","","","","","","","","","","","","","","","","","","","","","","","","","","","","","","","",""
"sentence-resp","173","433071","0.0-5.0-1.0-1.1","1","1","xcw4qfx48wfp52k","","10977","","","","","","","SWS-SENT-RESPONSE","","","{""Q0"":""Complete all your work""}","Clothes and lodging are free to new men.","clothes,lodging,free,new,men","COMPLETE ALL YOUR WORK","0","0","0","0","0","0","0","","","","","","","","","","","","","","","","","","","","","","","","","",""
"html-keyboard-response","174","434324","0.0-5.0-1.0-2.1","1","1","xcw4qfx48wfp52k","","null","","","","null","","","","","","","","","","","","","","","","","","","","","","","","","","","","","","","","","","","","","","","","","",""
"audio-keyboard-response","175","436587","0.0-5.0-1.0-3.1","1","1","xcw4qfx48wfp52k","","null","","sounds/sentences/right/14_08_cfSWS.wav","","null","","","","","","","","","","","","","","","","","","","","","","","","","","","","","","","","","","","","","","","","","",""
"html-keyboard-response","176","437590","0.0-5.0-1.0-4.1","1","1","xcw4qfx48wfp52k","","null","","","","null","","","","","","","","","","","","","","","","","","","","","","","","","","","","","","","","","","","","","","","","","",""
"html-button-response","177","440856","0.0-5.0-1.0-5.1","1","1","xcw4qfx48wfp52k","","2765","","<p>Press the button below when you are ready to continue.</p>","0","","","","","","","","","","","","","","","","","","","","","","","","","","","","","","","","","","","","","","","","","","",""
"audio-keyboard-response","178","443851","0.0-5.0-1.0-0.2","1","1","xcw4qfx48wfp52k","","null","","sounds/sentences/left/14_05_cfSWS.wav","","null","","","","","","","","","","","","","","","","","","","","","","","","","","","","","","","","","","","","","","","","","",""
"sentence-resp","179","460667","0.0-5.0-1.0-1.2","1","1","xcw4qfx48wfp52k","","16814","","","","","","","SWS-SENT-RESPONSE","","","{""Q0"":""Bring me back something""}","The glow deepened in the eyes of the sweet girl.","glow,deepened,eyes,sweet,girl","BRING ME BACK SOMETHING","0","0","0","0","0","0","0","","","","","","","","","","","","","","","","","","","","","","","","","",""
"html-keyboard-response","180","461920","0.0-5.0-1.0-2.2","1","1","xcw4qfx48wfp52k","","null","","","","null","","","","","","","","","","","","","","","","","","","","","","","","","","","","","","","","","","","","","","","","","",""
"audio-keyboard-response","181","464416","0.0-5.0-1.0-3.2","1","1","xcw4qfx48wfp52k","","null","","sounds/sentences/left/14_05_cfSWS.wav","","null","","","","","","","","","","","","","","","","","","","","","","","","","","","","","","","","","","","","","","","","","",""
"html-keyboard-response","182","465418","0.0-5.0-1.0-4.2","1","1","xcw4qfx48wfp52k","","null","","","","null","","","","","","","","","","","","","","","","","","","","","","","","","","","","","","","","","","","","","","","","","",""
"html-button-response","183","467538","0.0-5.0-1.0-5.2","1","1","xcw4qfx48wfp52k","","1619","","<p>Press the button below when you are ready to continue.</p>","0","","","","","","","","","","","","","","","","","","","","","","","","","","","","","","","","","","","","","","","","","","",""
"audio-keyboard-response","184","470261","0.0-5.0-1.0-0.3","1","1","xcw4qfx48wfp52k","","null","","sounds/sentences/right/14_09_cfSWS.wav","","null","","","","","","","","","","","","","","","","","","","","","","","","","","","","","","","","","","","","","","","","","",""
"sentence-resp","185","486491","0.0-5.0-1.0-1.3","1","1","xcw4qfx48wfp52k","","16229","","","","","","","SWS-SENT-RESPONSE","","","{""Q0"":""There was a twinkle in his eye""}","We frown when events take a bad turn.","frown,events,take,bad,turn","THERE WAS A TWINKLE IN HIS EYE","0","0","0","0","0","0","0","","","","","","","","","","","","","","","","","","","","","","","","","",""
"html-keyboard-response","186","487744","0.0-5.0-1.0-2.3","1","1","xcw4qfx48wfp52k","","null","","","","null","","","","","","","","","","","","","","","","","","","","","","","","","","","","","","","","","","","","","","","","","",""
"audio-keyboard-response","187","489972","0.0-5.0-1.0-3.3","1","1","xcw4qfx48wfp52k","","null","","sounds/sentences/right/14_09_cfSWS.wav","","null","","","","","","","","","","","","","","","","","","","","","","","","","","","","","","","","","","","","","","","","","",""
"html-keyboard-response","188","490975","0.0-5.0-1.0-4.3","1","1","xcw4qfx48wfp52k","","null","","","","null","","","","","","","","","","","","","","","","","","","","","","","","","","","","","","","","","","","","","","","","","",""
"html-button-response","189","493740","0.0-5.0-1.0-5.3","1","1","xcw4qfx48wfp52k","","2262.9999999998836","","<p>Press the button below when you are ready to continue.</p>","0","","","","","","","","","","","","","","","","","","","","","","","","","","","","","","","","","","","","","","","","","","",""
"audio-keyboard-response","190","496863","0.0-5.0-1.0-0.4","1","1","xcw4qfx48wfp52k","","null","","sounds/sentences/left/14_01_cfSWS.wav","","null","","","","","","","","","","","","","","","","","","","","","","","","","","","","","","","","","","","","","","","","","",""
"sentence-resp","191","513513","0.0-5.0-1.0-1.4","1","1","xcw4qfx48wfp52k","","16649","","","","","","","SWS-SENT-RESPONSE","","","{""Q0"":""We do not like that song""}","A cramp is no small danger on a swim.","cramp,no,small,danger,swim","WE DO NOT LIKE THAT SONG","0","0","0","0","0","0","0","","","","","","","","","","","","","","","","","","","","","","","","","",""
"html-keyboard-response","192","514766","0.0-5.0-1.0-2.4","1","1","xcw4qfx48wfp52k","","null","","","","null","","","","","","","","","","","","","","","","","","","","","","","","","","","","","","","","","","","","","","","","","",""
"audio-keyboard-response","193","517385","0.0-5.0-1.0-3.4","1","1","xcw4qfx48wfp52k","","null","","sounds/sentences/left/14_01_cfSWS.wav","","null","","","","","","","","","","","","","","","","","","","","","","","","","","","","","","","","","","","","","","","","","",""
"html-keyboard-response","194","518387","0.0-5.0-1.0-4.4","1","1","xcw4qfx48wfp52k","","null","","","","null","","","","","","","","","","","","","","","","","","","","","","","","","","","","","","","","","","","","","","","","","",""
"html-button-response","195","520361","0.0-5.0-1.0-5.4","1","1","xcw4qfx48wfp52k","","1471","","<p>Press the button below when you are ready to continue.</p>","0","","","","","","","","","","","","","","","","","","","","","","","","","","","","","","","","","","","","","","","","","","",""
"audio-keyboard-response","196","523379","0.0-5.0-1.0-0.5","1","1","xcw4qfx48wfp52k","","null","","sounds/sentences/right/14_10_cfSWS.wav","","null","","","","","","","","","","","","","","","","","","","","","","","","","","","","","","","","","","","","","","","","","",""
"sentence-resp","197","533731","0.0-5.0-1.0-1.5","1","1","xcw4qfx48wfp52k","","10349","","","","","","","SWS-SENT-RESPONSE","","","{""Q0"":""That was a very loud noice""}","Port is a strong wine with a smoky taste.","port,strong,wine,smoky,taste","THAT WAS A VERY LOUD NOICE","0","0","0","0","0","0","0","","","","","","","","","","","","","","","","","","","","","","","","","",""
"html-keyboard-response","198","534984","0.0-5.0-1.0-2.5","1","1","xcw4qfx48wfp52k","","null","","","","null","","","","","","","","","","","","","","","","","","","","","","","","","","","","","","","","","","","","","","","","","",""
"audio-keyboard-response","199","537502","0.0-5.0-1.0-3.5","1","1","xcw4qfx48wfp52k","","null","","sounds/sentences/right/14_10_cfSWS.wav","","null","","","","","","","","","","","","","","","","","","","","","","","","","","","","","","","","","","","","","","","","","",""
"html-keyboard-response","200","538505","0.0-5.0-1.0-4.5","1","1","xcw4qfx48wfp52k","","null","","","","null","","","","","","","","","","","","","","","","","","","","","","","","","","","","","","","","","","","","","","","","","",""
"html-button-response","201","542166","0.0-5.0-1.0-5.5","1","1","xcw4qfx48wfp52k","","3158","","<p>Press the button below when you are ready to continue.</p>","0","","","","","","","","","","","","","","","","","","","","","","","","","","","","","","","","","","","","","","","","","","",""
"audio-keyboard-response","202","544990","0.0-5.0-1.0-0.6","1","1","xcw4qfx48wfp52k","","null","","sounds/sentences/left/14_02_cfSWS.wav","","null","","","","","","","","","","","","","","","","","","","","","","","","","","","","","","","","","","","","","","","","","",""
"sentence-resp","203","556827","0.0-5.0-1.0-1.6","1","1","xcw4qfx48wfp52k","","11835","","","","","","","SWS-SENT-RESPONSE","","","{""Q0"":""We swam thirty times a day""}","He said the same phrase thirty times.","said,same,phrase,thirty,times","WE SWAM THIRTY TIMES A DAY","0","0","0","1","1","2","0.4","","","","","","","","","","","","","","","","","","","","","","","","","",""
"html-keyboard-response","204","558079","0.0-5.0-1.0-2.6","1","1","xcw4qfx48wfp52k","","null","","","","null","","","","","","","","","","","","","","","","","","","","","","","","","","","","","","","","","","","","","","","","","",""
"audio-keyboard-response","205","560403","0.0-5.0-1.0-3.6","1","1","xcw4qfx48wfp52k","","null","","sounds/sentences/left/14_02_cfSWS.wav","","null","","","","","","","","","","","","","","","","","","","","","","","","","","","","","","","","","","","","","","","","","",""
"html-keyboard-response","206","561405","0.0-5.0-1.0-4.6","1","1","xcw4qfx48wfp52k","","null","","","","null","","","","","","","","","","","","","","","","","","","","","","","","","","","","","","","","","","","","","","","","","",""
"html-button-response","207","564027","0.0-5.0-1.0-5.6","1","1","xcw4qfx48wfp52k","","2119","","<p>Press the button below when you are ready to continue.</p>","0","","","","","","","","","","","","","","","","","","","","","","","","","","","","","","","","","","","","","","","","","","",""
"audio-keyboard-response","208","566610","0.0-5.0-1.0-0.7","1","1","xcw4qfx48wfp52k","","null","","sounds/sentences/left/14_03_cfSWS.wav","","null","","","","","","","","","","","","","","","","","","","","","","","","","","","","","","","","","","","","","","","","","",""
"sentence-resp","209","578749","0.0-5.0-1.0-1.7","1","1","xcw4qfx48wfp52k","","12137","","","","","","","SWS-SENT-RESPONSE","","","{""Q0"":""We had to clean up the leaves""}","Pluck the bright rose without leaves.","pluck,bright,rose,without,leaves","WE HAD TO CLEAN UP THE LEAVES","0","0","0","0","1","1","0.2","","","","","","","","","","","","","","","","","","","","","","","","","",""
"html-keyboard-response","210","580003","0.0-5.0-1.0-2.7","1","1","xcw4qfx48wfp52k","","null","","","","null","","","","","","","","","","","","","","","","","","","","","","","","","","","","","","","","","","","","","","","","","",""
"audio-keyboard-response","211","582088","0.0-5.0-1.0-3.7","1","1","xcw4qfx48wfp52k","","null","","sounds/sentences/left/14_03_cfSWS.wav","","null","","","","","","","","","","","","","","","","","","","","","","","","","","","","","","","","","","","","","","","","","",""
"html-keyboard-response","212","583090","0.0-5.0-1.0-4.7","1","1","xcw4qfx48wfp52k","","null","","","","null","","","","","","","","","","","","","","","","","","","","","","","","","","","","","","","","","","","","","","","","","",""
"html-button-response","213","584550","0.0-5.0-1.0-5.7","1","1","xcw4qfx48wfp52k","","959.0000000001164","","<p>Press the button below when you are ready to continue.</p>","0","","","","","","","","","","","","","","","","","","","","","","","","","","","","","","","","","","","","","","","","","","",""
"audio-keyboard-response","214","587442","0.0-5.0-1.0-0.8","1","1","xcw4qfx48wfp52k","","null","","sounds/sentences/right/14_07_cfSWS.wav","","null","","","","","","","","","","","","","","","","","","","","","","","","","","","","","","","","","","","","","","","","","",""
"sentence-resp","215","600617","0.0-5.0-1.0-1.8","1","1","xcw4qfx48wfp52k","","13174","","","","","","","SWS-SENT-RESPONSE","","","{""Q0"":""There was a lot of fog in the distance""}","Write a fond note to the friend you cherish.","write,fond,note,friend,cherish","THERE WAS A LOT OF FOG IN THE DISTANCE","0","0","0","0","0","0","0","","","","","","","","","","","","","","","","","","","","","","","","","",""
"html-keyboard-response","216","601871","0.0-5.0-1.0-2.8","1","1","xcw4qfx48wfp52k","","null","","","","null","","","","","","","","","","","","","","","","","","","","","","","","","","","","","","","","","","","","","","","","","",""
"audio-keyboard-response","217","604252","0.0-5.0-1.0-3.8","1","1","xcw4qfx48wfp52k","","null","","sounds/sentences/right/14_07_cfSWS.wav","","null","","","","","","","","","","","","","","","","","","","","","","","","","","","","","","","","","","","","","","","","","",""
"html-keyboard-response","218","605255","0.0-5.0-1.0-4.8","1","1","xcw4qfx48wfp52k","","null","","","","null","","","","","","","","","","","","","","","","","","","","","","","","","","","","","","","","","","","","","","","","","",""
"html-button-response","219","606710","0.0-5.0-1.0-5.8","1","1","xcw4qfx48wfp52k","","954","","<p>Press the button below when you are ready to continue.</p>","0","","","","","","","","","","","","","","","","","","","","","","","","","","","","","","","","","","","","","","","","","","",""
"audio-keyboard-response","220","609265","0.0-5.0-1.0-0.9","1","1","xcw4qfx48wfp52k","","null","","sounds/sentences/left/14_04_cfSWS.wav","","null","","","","","","","","","","","","","","","","","","","","","","","","","","","","","","","","","","","","","","","","","",""
"sentence-resp","221","621391","0.0-5.0-1.0-1.9","1","1","xcw4qfx48wfp52k","","12124","","","","","","","SWS-SENT-RESPONSE","","","{""Q0"":""I told the kids to brush their teeth.""}","Two plus seven is less than ten.","two,plus,seven,less,ten","I TOLD THE KIDS TO BRUSH THEIR TEETH","0","0","0","0","0","0","0","","","","","","","","","","","","","","","","","","","","","","","","","",""
"html-keyboard-response","222","622644","0.0-5.0-1.0-2.9","1","1","xcw4qfx48wfp52k","","null","","","","null","","","","","","","","","","","","","","","","","","","","","","","","","","","","","","","","","","","","","","","","","",""
"audio-keyboard-response","223","624700","0.0-5.0-1.0-3.9","1","1","xcw4qfx48wfp52k","","null","","sounds/sentences/left/14_04_cfSWS.wav","","null","","","","","","","","","","","","","","","","","","","","","","","","","","","","","","","","","","","","","","","","","",""
"html-keyboard-response","224","625702","0.0-5.0-1.0-4.9","1","1","xcw4qfx48wfp52k","","null","","","","null","","","","","","","","","","","","","","","","","","","","","","","","","","","","","","","","","","","","","","","","","",""
"html-button-response","225","628153","0.0-5.0-1.0-5.9","1","1","xcw4qfx48wfp52k","","1949","","<p>Press the button below when you are ready to continue.</p>","0","","","","","","","","","","","","","","","","","","","","","","","","","","","","","","","","","","","","","","","","","","",""
"html-keyboard-response","226","647783","0.0-6.0-0.0","1","1","xcw4qfx48wfp52k","","19129","","<p>In this part of the study, you will hear sounds similar to those you just heard.</p><p>Please focus on these sounds, as you may be asked questions about them later.</p><p>Occasionally, the sounds will pause for up to two seconds. When this happens, please press SPACEBAR as quickly as you can.</br>This helps ensure that you are paying attention to the sounds.</p><p>This part of the study will take about 12 minutes to complete, and you will be given the opportunity to take a couple of short breaks every few minutes.</p><p><strong>Press SPACEBAR to begin</strong></p>","","32","","","","","","","","","","","","","","","","","","","","","","","","","","","","","","","","","","","","","","","","","",""
"html-keyboard-response","227","648785","0.0-6.0-1.0-0.0","1","1","xcw4qfx48wfp52k","","null","","<p style=""font-size: 40px;"">+</p>","","null","","","","","","","","","","","","","","","","","","","","","","","","","","","","","","","","","","","","","","","","","",""
"html-keyboard-response","228","833785","0.0-6.0-1.0-1.0","1","1","xcw4qfx48wfp52k","","null","","","","null","","","SL-TRAIN","","","","","","","","","","","","","","1","null","1450","sounds/A/TRAIN/SEQ__04.mp3","19","","","","","","","","","","","","","","","","","","","","",""
"html-button-response","229","846061","0.0-6.0-1.0-2.0","1","1","xcw4qfx48wfp52k","","12274","","<p>You may take a short break if you wish.</p>","0","","","","","","","","","","","","","","","","","","","","","","","","","","","","","","","","","","","","","","","","","","",""
"html-keyboard-response","230","847064","0.0-6.0-1.0-3.0","1","1","xcw4qfx48wfp52k","","null","","<p style=""font-size: 40px;"">+</p>","","null","","","","","","","","","","","","","","","","","","","","","","","","","","","","","","","","","","","","","","","","","",""
"html-keyboard-response","231","1032061","0.0-6.0-1.0-4.0","1","1","xcw4qfx48wfp52k","","null","","","","null","","","SL-TRAIN","","","","","","","","","","","","","","2","null","null","sounds/A/TRAIN/SEQ__07.mp3","60","","","","","","","","","","","","","","","","","","","","",""
"html-button-response","232","1039005","0.0-6.0-1.0-5.0","1","1","xcw4qfx48wfp52k","","6943","","<p>You may take a short break if you wish.</p>","0","","","","","","","","","","","","","","","","","","","","","","","","","","","","","","","","","","","","","","","","","","",""
"html-keyboard-response","233","1040007","0.0-6.0-1.0-6.0","1","1","xcw4qfx48wfp52k","","null","","<p style=""font-size: 40px;"">+</p>","","null","","","","","","","","","","","","","","","","","","","","","","","","","","","","","","","","","","","","","","","","","",""
"html-keyboard-response","234","1225006","0.0-6.0-1.0-7.0","1","1","xcw4qfx48wfp52k","","null","","","","null","","","SL-TRAIN","","","","","","","","","","","","","","1","null","1173","sounds/A/TRAIN/SEQ__01.mp3","83","","","","","","","","","","","","","","","","","","","","",""
"html-button-response","235","1227927","0.0-6.0-1.0-8.0","1","1","xcw4qfx48wfp52k","","2920","","<p>You may take a short break if you wish.</p>","0","","","","","","","","","","","","","","","","","","","","","","","","","","","","","","","","","","","","","","","","","","",""
"html-keyboard-response","236","1228929","0.0-6.0-1.0-9.0","1","1","xcw4qfx48wfp52k","","null","","<p style=""font-size: 40px;"">+</p>","","null","","","","","","","","","","","","","","","","","","","","","","","","","","","","","","","","","","","","","","","","","",""
"html-keyboard-response","237","1413927","0.0-6.0-1.0-10.0","1","1","xcw4qfx48wfp52k","","null","","","","null","","","SL-TRAIN","","","","","","","","","","","","","","2","null","null","sounds/A/TRAIN/SEQ__03.mp3","88","","","","","","","","","","","","","","","","","","","","",""
"html-button-response","238","1417407","0.0-6.0-1.0-11.0","1","1","xcw4qfx48wfp52k","","3479","","<p>You may take a short break if you wish.</p>","0","","","","","","","","","","","","","","","","","","","","","","","","","","","","","","","","","","","","","","","","","","",""
"html-button-response","239","1427829","0.0-7.0-0.0","1","1","xcw4qfx48wfp52k","","10422","","<p>Welcome to the second part of the study. This is a <u>familiarity task</u>.</p><p>You will now hear short sounds and will be asked to rate how familiar they sound to you <b>based on what you heard in the previous part of the study</b>.</p><p>You will rate 12 sounds in total.</p>","0","","","","","","","","","","","","","","","","","","","","","","","","","","","","","","","","","","","","","","","","","","",""
"html-keyboard-response","240","1428832","0.0-7.0-1.0-0.0","1","1","xcw4qfx48wfp52k","","null","","","","null","","","","","","","","","","","","","","","","","","","","","","","","","","","","","","","","","","","","","","","","","",""
"audio-keyboard-response","241","1429776","0.0-7.0-1.0-1.0","1","1","xcw4qfx48wfp52k","","null","","sounds/A/FAM/N003.mp3","","null","","","","","","","","","","","","","","","","","","","","","","","","","","","","","","","","","","","","","","","","","",""
"html-keyboard-response","242","1434965","0.0-7.0-1.0-2.0","1","1","xcw4qfx48wfp52k","","4686","","<p>How familiar did this sound to you?</p><p>1&nbsp;&nbsp;&nbsp;&nbsp;&nbsp;&nbsp;&nbsp;&nbsp;&nbsp;&nbsp;&nbsp;&nbsp;&nbsp;&nbsp;&nbsp;&nbsp;&nbsp;&nbsp;&nbsp;2&nbsp;&nbsp;&nbsp;&nbsp;&nbsp;&nbsp;&nbsp;&nbsp;&nbsp;&nbsp;&nbsp;&nbsp;&nbsp;&nbsp;&nbsp;&nbsp;&nbsp;&nbsp;&nbsp;3&nbsp;&nbsp;&nbsp;&nbsp;&nbsp;&nbsp;&nbsp;&nbsp;&nbsp;&nbsp;&nbsp;&nbsp;&nbsp;&nbsp;&nbsp;&nbsp;&nbsp;&nbsp;&nbsp;4</p><p style=""font-size:14px"">Not at all familiar&nbsp;&nbsp;&nbsp;&nbsp;A little familiar&nbsp;&nbsp;&nbsp;Moderately familiar&nbsp;&nbsp;&nbsp;Extremely familiar</p><p>(press the corresponding number on your keyboard)</p>","","51","","","FAM-RESPONSE","","","","","","","","","","","","","","","","","","","sounds/A/FAM/N003.mp3","nonword","","","","","","","","","","","","","","","","","","",""
"html-keyboard-response","243","1436969","0.0-7.0-1.0-0.1","1","1","xcw4qfx48wfp52k","","null","","","","null","","","","","","","","","","","","","","","","","","","","","","","","","","","","","","","","","","","","","","","","","",""
"audio-keyboard-response","244","1437915","0.0-7.0-1.0-1.1","1","1","xcw4qfx48wfp52k","","null","","sounds/A/FAM/W002.mp3","","null","","","","","","","","","","","","","","","","","","","","","","","","","","","","","","","","","","","","","","","","","",""
"html-keyboard-response","245","1440516","0.0-7.0-1.0-2.1","1","1","xcw4qfx48wfp52k","","2099.000000000233","","<p>How familiar did this sound to you?</p><p>1&nbsp;&nbsp;&nbsp;&nbsp;&nbsp;&nbsp;&nbsp;&nbsp;&nbsp;&nbsp;&nbsp;&nbsp;&nbsp;&nbsp;&nbsp;&nbsp;&nbsp;&nbsp;&nbsp;2&nbsp;&nbsp;&nbsp;&nbsp;&nbsp;&nbsp;&nbsp;&nbsp;&nbsp;&nbsp;&nbsp;&nbsp;&nbsp;&nbsp;&nbsp;&nbsp;&nbsp;&nbsp;&nbsp;3&nbsp;&nbsp;&nbsp;&nbsp;&nbsp;&nbsp;&nbsp;&nbsp;&nbsp;&nbsp;&nbsp;&nbsp;&nbsp;&nbsp;&nbsp;&nbsp;&nbsp;&nbsp;&nbsp;4</p><p style=""font-size:14px"">Not at all familiar&nbsp;&nbsp;&nbsp;&nbsp;A little familiar&nbsp;&nbsp;&nbsp;Moderately familiar&nbsp;&nbsp;&nbsp;Extremely familiar</p><p>(press the corresponding number on your keyboard)</p>","","49","","","FAM-RESPONSE","","","","","","","","","","","","","","","","","","","sounds/A/FAM/W002.mp3","word","","","","","","","","","","","","","","","","","","",""
"html-keyboard-response","246","1442519","0.0-7.0-1.0-0.2","1","1","xcw4qfx48wfp52k","","null","","","","null","","","","","","","","","","","","","","","","","","","","","","","","","","","","","","","","","","","","","","","","","",""
"audio-keyboard-response","247","1443461","0.0-7.0-1.0-1.2","1","1","xcw4qfx48wfp52k","","null","","sounds/A/FAM/P004.mp3","","null","","","","","","","","","","","","","","","","","","","","","","","","","","","","","","","","","","","","","","","","","",""
"html-keyboard-response","248","1445426","0.0-7.0-1.0-2.2","1","1","xcw4qfx48wfp52k","","1463","","<p>How familiar did this sound to you?</p><p>1&nbsp;&nbsp;&nbsp;&nbsp;&nbsp;&nbsp;&nbsp;&nbsp;&nbsp;&nbsp;&nbsp;&nbsp;&nbsp;&nbsp;&nbsp;&nbsp;&nbsp;&nbsp;&nbsp;2&nbsp;&nbsp;&nbsp;&nbsp;&nbsp;&nbsp;&nbsp;&nbsp;&nbsp;&nbsp;&nbsp;&nbsp;&nbsp;&nbsp;&nbsp;&nbsp;&nbsp;&nbsp;&nbsp;3&nbsp;&nbsp;&nbsp;&nbsp;&nbsp;&nbsp;&nbsp;&nbsp;&nbsp;&nbsp;&nbsp;&nbsp;&nbsp;&nbsp;&nbsp;&nbsp;&nbsp;&nbsp;&nbsp;4</p><p style=""font-size:14px"">Not at all familiar&nbsp;&nbsp;&nbsp;&nbsp;A little familiar&nbsp;&nbsp;&nbsp;Moderately familiar&nbsp;&nbsp;&nbsp;Extremely familiar</p><p>(press the corresponding number on your keyboard)</p>","","52","","","FAM-RESPONSE","","","","","","","","","","","","","","","","","","","sounds/A/FAM/P004.mp3","partword","","","","","","","","","","","","","","","","","","",""
"html-keyboard-response","249","1447430","0.0-7.0-1.0-0.3","1","1","xcw4qfx48wfp52k","","null","","","","null","","","","","","","","","","","","","","","","","","","","","","","","","","","","","","","","","","","","","","","","","",""
"audio-keyboard-response","250","1448379","0.0-7.0-1.0-1.3","1","1","xcw4qfx48wfp52k","","null","","sounds/A/FAM/W001.mp3","","null","","","","","","","","","","","","","","","","","","","","","","","","","","","","","","","","","","","","","","","","","",""
"html-keyboard-response","251","1450130","0.0-7.0-1.0-2.3","1","1","xcw4qfx48wfp52k","","1248.9999999997672","","<p>How familiar did this sound to you?</p><p>1&nbsp;&nbsp;&nbsp;&nbsp;&nbsp;&nbsp;&nbsp;&nbsp;&nbsp;&nbsp;&nbsp;&nbsp;&nbsp;&nbsp;&nbsp;&nbsp;&nbsp;&nbsp;&nbsp;2&nbsp;&nbsp;&nbsp;&nbsp;&nbsp;&nbsp;&nbsp;&nbsp;&nbsp;&nbsp;&nbsp;&nbsp;&nbsp;&nbsp;&nbsp;&nbsp;&nbsp;&nbsp;&nbsp;3&nbsp;&nbsp;&nbsp;&nbsp;&nbsp;&nbsp;&nbsp;&nbsp;&nbsp;&nbsp;&nbsp;&nbsp;&nbsp;&nbsp;&nbsp;&nbsp;&nbsp;&nbsp;&nbsp;4</p><p style=""font-size:14px"">Not at all familiar&nbsp;&nbsp;&nbsp;&nbsp;A little familiar&nbsp;&nbsp;&nbsp;Moderately familiar&nbsp;&nbsp;&nbsp;Extremely familiar</p><p>(press the corresponding number on your keyboard)</p>","","50","","","FAM-RESPONSE","","","","","","","","","","","","","","","","","","","sounds/A/FAM/W001.mp3","word","","","","","","","","","","","","","","","","","","",""
"html-keyboard-response","252","1452133","0.0-7.0-1.0-0.4","1","1","xcw4qfx48wfp52k","","null","","","","null","","","","","","","","","","","","","","","","","","","","","","","","","","","","","","","","","","","","","","","","","",""
"audio-keyboard-response","253","1453082","0.0-7.0-1.0-1.4","1","1","xcw4qfx48wfp52k","","null","","sounds/A/FAM/N001.mp3","","null","","","","","","","","","","","","","","","","","","","","","","","","","","","","","","","","","","","","","","","","","",""
"html-keyboard-response","254","1454750","0.0-7.0-1.0-2.4","1","1","xcw4qfx48wfp52k","","1165","","<p>How familiar did this sound to you?</p><p>1&nbsp;&nbsp;&nbsp;&nbsp;&nbsp;&nbsp;&nbsp;&nbsp;&nbsp;&nbsp;&nbsp;&nbsp;&nbsp;&nbsp;&nbsp;&nbsp;&nbsp;&nbsp;&nbsp;2&nbsp;&nbsp;&nbsp;&nbsp;&nbsp;&nbsp;&nbsp;&nbsp;&nbsp;&nbsp;&nbsp;&nbsp;&nbsp;&nbsp;&nbsp;&nbsp;&nbsp;&nbsp;&nbsp;3&nbsp;&nbsp;&nbsp;&nbsp;&nbsp;&nbsp;&nbsp;&nbsp;&nbsp;&nbsp;&nbsp;&nbsp;&nbsp;&nbsp;&nbsp;&nbsp;&nbsp;&nbsp;&nbsp;4</p><p style=""font-size:14px"">Not at all familiar&nbsp;&nbsp;&nbsp;&nbsp;A little familiar&nbsp;&nbsp;&nbsp;Moderately familiar&nbsp;&nbsp;&nbsp;Extremely familiar</p><p>(press the corresponding number on your keyboard)</p>","","51","","","FAM-RESPONSE","","","","","","","","","","","","","","","","","","","sounds/A/FAM/N001.mp3","nonword","","","","","","","","","","","","","","","","","","",""
"html-keyboard-response","255","1456753","0.0-7.0-1.0-0.5","1","1","xcw4qfx48wfp52k","","null","","","","null","","","","","","","","","","","","","","","","","","","","","","","","","","","","","","","","","","","","","","","","","",""
"audio-keyboard-response","256","1457701","0.0-7.0-1.0-1.5","1","1","xcw4qfx48wfp52k","","null","","sounds/A/FAM/P003.mp3","","null","","","","","","","","","","","","","","","","","","","","","","","","","","","","","","","","","","","","","","","","","",""
"html-keyboard-response","257","1459721","0.0-7.0-1.0-2.5","1","1","xcw4qfx48wfp52k","","1516","","<p>How familiar did this sound to you?</p><p>1&nbsp;&nbsp;&nbsp;&nbsp;&nbsp;&nbsp;&nbsp;&nbsp;&nbsp;&nbsp;&nbsp;&nbsp;&nbsp;&nbsp;&nbsp;&nbsp;&nbsp;&nbsp;&nbsp;2&nbsp;&nbsp;&nbsp;&nbsp;&nbsp;&nbsp;&nbsp;&nbsp;&nbsp;&nbsp;&nbsp;&nbsp;&nbsp;&nbsp;&nbsp;&nbsp;&nbsp;&nbsp;&nbsp;3&nbsp;&nbsp;&nbsp;&nbsp;&nbsp;&nbsp;&nbsp;&nbsp;&nbsp;&nbsp;&nbsp;&nbsp;&nbsp;&nbsp;&nbsp;&nbsp;&nbsp;&nbsp;&nbsp;4</p><p style=""font-size:14px"">Not at all familiar&nbsp;&nbsp;&nbsp;&nbsp;A little familiar&nbsp;&nbsp;&nbsp;Moderately familiar&nbsp;&nbsp;&nbsp;Extremely familiar</p><p>(press the corresponding number on your keyboard)</p>","","51","","","FAM-RESPONSE","","","","","","","","","","","","","","","","","","","sounds/A/FAM/P003.mp3","partword","","","","","","","","","","","","","","","","","","",""
"html-keyboard-response","258","1461725","0.0-7.0-1.0-0.6","1","1","xcw4qfx48wfp52k","","null","","","","null","","","","","","","","","","","","","","","","","","","","","","","","","","","","","","","","","","","","","","","","","",""
"audio-keyboard-response","259","1462672","0.0-7.0-1.0-1.6","1","1","xcw4qfx48wfp52k","","null","","sounds/A/FAM/P002.mp3","","null","","","","","","","","","","","","","","","","","","","","","","","","","","","","","","","","","","","","","","","","","",""
"html-keyboard-response","260","1464287","0.0-7.0-1.0-2.6","1","1","xcw4qfx48wfp52k","","1113","","<p>How familiar did this sound to you?</p><p>1&nbsp;&nbsp;&nbsp;&nbsp;&nbsp;&nbsp;&nbsp;&nbsp;&nbsp;&nbsp;&nbsp;&nbsp;&nbsp;&nbsp;&nbsp;&nbsp;&nbsp;&nbsp;&nbsp;2&nbsp;&nbsp;&nbsp;&nbsp;&nbsp;&nbsp;&nbsp;&nbsp;&nbsp;&nbsp;&nbsp;&nbsp;&nbsp;&nbsp;&nbsp;&nbsp;&nbsp;&nbsp;&nbsp;3&nbsp;&nbsp;&nbsp;&nbsp;&nbsp;&nbsp;&nbsp;&nbsp;&nbsp;&nbsp;&nbsp;&nbsp;&nbsp;&nbsp;&nbsp;&nbsp;&nbsp;&nbsp;&nbsp;4</p><p style=""font-size:14px"">Not at all familiar&nbsp;&nbsp;&nbsp;&nbsp;A little familiar&nbsp;&nbsp;&nbsp;Moderately familiar&nbsp;&nbsp;&nbsp;Extremely familiar</p><p>(press the corresponding number on your keyboard)</p>","","49","","","FAM-RESPONSE","","","","","","","","","","","","","","","","","","","sounds/A/FAM/P002.mp3","partword","","","","","","","","","","","","","","","","","","",""
"html-keyboard-response","261","1466290","0.0-7.0-1.0-0.7","1","1","xcw4qfx48wfp52k","","null","","","","null","","","","","","","","","","","","","","","","","","","","","","","","","","","","","","","","","","","","","","","","","",""
"audio-keyboard-response","262","1467237","0.0-7.0-1.0-1.7","1","1","xcw4qfx48wfp52k","","null","","sounds/A/FAM/N004.mp3","","null","","","","","","","","","","","","","","","","","","","","","","","","","","","","","","","","","","","","","","","","","",""
"html-keyboard-response","263","1469004","0.0-7.0-1.0-2.7","1","1","xcw4qfx48wfp52k","","1265","","<p>How familiar did this sound to you?</p><p>1&nbsp;&nbsp;&nbsp;&nbsp;&nbsp;&nbsp;&nbsp;&nbsp;&nbsp;&nbsp;&nbsp;&nbsp;&nbsp;&nbsp;&nbsp;&nbsp;&nbsp;&nbsp;&nbsp;2&nbsp;&nbsp;&nbsp;&nbsp;&nbsp;&nbsp;&nbsp;&nbsp;&nbsp;&nbsp;&nbsp;&nbsp;&nbsp;&nbsp;&nbsp;&nbsp;&nbsp;&nbsp;&nbsp;3&nbsp;&nbsp;&nbsp;&nbsp;&nbsp;&nbsp;&nbsp;&nbsp;&nbsp;&nbsp;&nbsp;&nbsp;&nbsp;&nbsp;&nbsp;&nbsp;&nbsp;&nbsp;&nbsp;4</p><p style=""font-size:14px"">Not at all familiar&nbsp;&nbsp;&nbsp;&nbsp;A little familiar&nbsp;&nbsp;&nbsp;Moderately familiar&nbsp;&nbsp;&nbsp;Extremely familiar</p><p>(press the corresponding number on your keyboard)</p>","","50","","","FAM-RESPONSE","","","","","","","","","","","","","","","","","","","sounds/A/FAM/N004.mp3","nonword","","","","","","","","","","","","","","","","","","",""
"html-keyboard-response","264","1471007","0.0-7.0-1.0-0.8","1","1","xcw4qfx48wfp52k","","null","","","","null","","","","","","","","","","","","","","","","","","","","","","","","","","","","","","","","","","","","","","","","","",""
"audio-keyboard-response","265","1471951","0.0-7.0-1.0-1.8","1","1","xcw4qfx48wfp52k","","null","","sounds/A/FAM/P001.mp3","","null","","","","","","","","","","","","","","","","","","","","","","","","","","","","","","","","","","","","","","","","","",""
"html-keyboard-response","266","1474659","0.0-7.0-1.0-2.8","1","1","xcw4qfx48wfp52k","","2205.000000000233","","<p>How familiar did this sound to you?</p><p>1&nbsp;&nbsp;&nbsp;&nbsp;&nbsp;&nbsp;&nbsp;&nbsp;&nbsp;&nbsp;&nbsp;&nbsp;&nbsp;&nbsp;&nbsp;&nbsp;&nbsp;&nbsp;&nbsp;2&nbsp;&nbsp;&nbsp;&nbsp;&nbsp;&nbsp;&nbsp;&nbsp;&nbsp;&nbsp;&nbsp;&nbsp;&nbsp;&nbsp;&nbsp;&nbsp;&nbsp;&nbsp;&nbsp;3&nbsp;&nbsp;&nbsp;&nbsp;&nbsp;&nbsp;&nbsp;&nbsp;&nbsp;&nbsp;&nbsp;&nbsp;&nbsp;&nbsp;&nbsp;&nbsp;&nbsp;&nbsp;&nbsp;4</p><p style=""font-size:14px"">Not at all familiar&nbsp;&nbsp;&nbsp;&nbsp;A little familiar&nbsp;&nbsp;&nbsp;Moderately familiar&nbsp;&nbsp;&nbsp;Extremely familiar</p><p>(press the corresponding number on your keyboard)</p>","","51","","","FAM-RESPONSE","","","","","","","","","","","","","","","","","","","sounds/A/FAM/P001.mp3","partword","","","","","","","","","","","","","","","","","","",""
"html-keyboard-response","267","1476663","0.0-7.0-1.0-0.9","1","1","xcw4qfx48wfp52k","","null","","","","null","","","","","","","","","","","","","","","","","","","","","","","","","","","","","","","","","","","","","","","","","",""
"audio-keyboard-response","268","1477605","0.0-7.0-1.0-1.9","1","1","xcw4qfx48wfp52k","","null","","sounds/A/FAM/N002.mp3","","null","","","","","","","","","","","","","","","","","","","","","","","","","","","","","","","","","","","","","","","","","",""
"html-keyboard-response","269","1480299","0.0-7.0-1.0-2.9","1","1","xcw4qfx48wfp52k","","2191","","<p>How familiar did this sound to you?</p><p>1&nbsp;&nbsp;&nbsp;&nbsp;&nbsp;&nbsp;&nbsp;&nbsp;&nbsp;&nbsp;&nbsp;&nbsp;&nbsp;&nbsp;&nbsp;&nbsp;&nbsp;&nbsp;&nbsp;2&nbsp;&nbsp;&nbsp;&nbsp;&nbsp;&nbsp;&nbsp;&nbsp;&nbsp;&nbsp;&nbsp;&nbsp;&nbsp;&nbsp;&nbsp;&nbsp;&nbsp;&nbsp;&nbsp;3&nbsp;&nbsp;&nbsp;&nbsp;&nbsp;&nbsp;&nbsp;&nbsp;&nbsp;&nbsp;&nbsp;&nbsp;&nbsp;&nbsp;&nbsp;&nbsp;&nbsp;&nbsp;&nbsp;4</p><p style=""font-size:14px"">Not at all familiar&nbsp;&nbsp;&nbsp;&nbsp;A little familiar&nbsp;&nbsp;&nbsp;Moderately familiar&nbsp;&nbsp;&nbsp;Extremely familiar</p><p>(press the corresponding number on your keyboard)</p>","","51","","","FAM-RESPONSE","","","","","","","","","","","","","","","","","","","sounds/A/FAM/N002.mp3","nonword","","","","","","","","","","","","","","","","","","",""
"html-keyboard-response","270","1482303","0.0-7.0-1.0-0.10","1","1","xcw4qfx48wfp52k","","null","","","","null","","","","","","","","","","","","","","","","","","","","","","","","","","","","","","","","","","","","","","","","","",""
"audio-keyboard-response","271","1483247","0.0-7.0-1.0-1.10","1","1","xcw4qfx48wfp52k","","null","","sounds/A/FAM/W003.mp3","","null","","","","","","","","","","","","","","","","","","","","","","","","","","","","","","","","","","","","","","","","","",""
"html-keyboard-response","272","1485513","0.0-7.0-1.0-2.10","1","1","xcw4qfx48wfp52k","","1764.0000000002328","","<p>How familiar did this sound to you?</p><p>1&nbsp;&nbsp;&nbsp;&nbsp;&nbsp;&nbsp;&nbsp;&nbsp;&nbsp;&nbsp;&nbsp;&nbsp;&nbsp;&nbsp;&nbsp;&nbsp;&nbsp;&nbsp;&nbsp;2&nbsp;&nbsp;&nbsp;&nbsp;&nbsp;&nbsp;&nbsp;&nbsp;&nbsp;&nbsp;&nbsp;&nbsp;&nbsp;&nbsp;&nbsp;&nbsp;&nbsp;&nbsp;&nbsp;3&nbsp;&nbsp;&nbsp;&nbsp;&nbsp;&nbsp;&nbsp;&nbsp;&nbsp;&nbsp;&nbsp;&nbsp;&nbsp;&nbsp;&nbsp;&nbsp;&nbsp;&nbsp;&nbsp;4</p><p style=""font-size:14px"">Not at all familiar&nbsp;&nbsp;&nbsp;&nbsp;A little familiar&nbsp;&nbsp;&nbsp;Moderately familiar&nbsp;&nbsp;&nbsp;Extremely familiar</p><p>(press the corresponding number on your keyboard)</p>","","50","","","FAM-RESPONSE","","","","","","","","","","","","","","","","","","","sounds/A/FAM/W003.mp3","word","","","","","","","","","","","","","","","","","","",""
"html-keyboard-response","273","1487516","0.0-7.0-1.0-0.11","1","1","xcw4qfx48wfp52k","","null","","","","null","","","","","","","","","","","","","","","","","","","","","","","","","","","","","","","","","","","","","","","","","",""
"audio-keyboard-response","274","1488463","0.0-7.0-1.0-1.11","1","1","xcw4qfx48wfp52k","","null","","sounds/A/FAM/W004.mp3","","null","","","","","","","","","","","","","","","","","","","","","","","","","","","","","","","","","","","","","","","","","",""
"html-keyboard-response","275","1491038","0.0-7.0-1.0-2.11","1","1","xcw4qfx48wfp52k","","2072.999999999767","","<p>How familiar did this sound to you?</p><p>1&nbsp;&nbsp;&nbsp;&nbsp;&nbsp;&nbsp;&nbsp;&nbsp;&nbsp;&nbsp;&nbsp;&nbsp;&nbsp;&nbsp;&nbsp;&nbsp;&nbsp;&nbsp;&nbsp;2&nbsp;&nbsp;&nbsp;&nbsp;&nbsp;&nbsp;&nbsp;&nbsp;&nbsp;&nbsp;&nbsp;&nbsp;&nbsp;&nbsp;&nbsp;&nbsp;&nbsp;&nbsp;&nbsp;3&nbsp;&nbsp;&nbsp;&nbsp;&nbsp;&nbsp;&nbsp;&nbsp;&nbsp;&nbsp;&nbsp;&nbsp;&nbsp;&nbsp;&nbsp;&nbsp;&nbsp;&nbsp;&nbsp;4</p><p style=""font-size:14px"">Not at all familiar&nbsp;&nbsp;&nbsp;&nbsp;A little familiar&nbsp;&nbsp;&nbsp;Moderately familiar&nbsp;&nbsp;&nbsp;Extremely familiar</p><p>(press the corresponding number on your keyboard)</p>","","50","","","FAM-RESPONSE","","","","","","","","","","","","","","","","","","","sounds/A/FAM/W004.mp3","word","","","","","","","","","","","","","","","","","","",""
"html-button-response","276","1501764","0.0-8.0-0.0","1","1","xcw4qfx48wfp52k","","9724.000000000233","","<p>You will now listen to longer sound sequences.</p><p>Each sound sequence will last about 16 seconds.</p><p>On each trial, you will be given a <u>TARGET SOUND</u>. Your task is to listen very carefully for this sound.</p><p>Every time you hear the <u>TARGET SOUND</u>, you will press the <b>SPACEBAR</b> as quickly and accurately as you can.</p>","0","","","","","","","","","","","","","","","","","","","","","","","","","","","","","","","","","","","","","","","","","","",""
"html-button-response","277","1509061","0.0-8.0-1.0","1","1","xcw4qfx48wfp52k","","7045.000000000233","","<p>It is very important that you make your responses as quickly and accurately as possible.</p><p>To help you make your responses, you will be able to listen to the <u>TARGET SOUND</u> at the beginning of each trial.</p><p>There will be 36 total trials.</p><p><b>Note: This is meant to be a difficult task. We simply want you to try your best.</p>","0","","","","","","","","","","","","","","","","","","","","","","","","","","","","","","","","","","","","","","","","","","",""
"html-button-response","278","1511282","0.0-8.0-2.0-0.0","1","1","xcw4qfx48wfp52k","","1968","","<p>Trial 1 of 36</p>","0","","","","","","","","","","","","","","","","","","","","","","","","","PU","sounds/syllables/pu_SWS.wav","4800,7500,9300,12900","2","","","","","","","","","","","","","","",""
"html-keyboard-response","279","1513973","0.0-8.0-2.0-1.0","1","1","xcw4qfx48wfp52k","","2689","","","","80","","","","","","","","","","","","","","","","","","","","","","","","PU","","4800,7500,9300,12900","2","","","","","","","","","","","","","","",""
"audio-keyboard-response","280","1514275","0.0-8.0-2.0-2.0-0.0","1","1","xcw4qfx48wfp52k","","null","","sounds/syllables/pu_SWS.wav","","null","","","","","","","","","","","","","","","","","","","","","","","","","","","","","","","","","","","","","","","","","",""
"html-keyboard-response","281","1518302","0.0-8.0-2.0-2.0-1.0","1","1","xcw4qfx48wfp52k","","4026","","<p>To replay the <u>TARGET SOUND</u>, press P.</p> When you are ready to begin, press SPACEBAR.","","32","","","","","","","","","","","","","","","","","","","","","","","","","","","","","","","","","","","","","","","","","",""
"audio-keyboard-response","282","1533251","0.0-8.0-2.0-3.0","1","1","xcw4qfx48wfp52k","","1344","","sounds/A/TD/PU_05_TD.mp3","","32","","","TD_SUMMARY","","","","","","","","","","","","","","","","","","","","","PU","","4800,7500,9300,12900","2","4800","7500","9300","12900","null","830","630","587","1339_2003_3681_4694_6035_6760_8330_9930_12167_13487","1","","","","",""
"html-button-response","283","1534846","0.0-8.0-2.0-0.1","1","1","xcw4qfx48wfp52k","","1592","","<p>Trial 2 of 36</p>","0","","","","","","","","","","","","","","","","","","","","","","","","","KO","sounds/syllables/ko_SWS.wav","3300,6900,8700,11400","3","","","","","","","","","","","","","","",""
"html-keyboard-response","284","1536622","0.0-8.0-2.0-1.1","1","1","xcw4qfx48wfp52k","","1774","","","","80","","","","","","","","","","","","","","","","","","","","","","","","KO","","3300,6900,8700,11400","3","","","","","","","","","","","","","","",""
"audio-keyboard-response","285","1536931","0.0-8.0-2.0-2.1-0.1","1","1","xcw4qfx48wfp52k","","null","","sounds/syllables/ko_SWS.wav","","null","","","","","","","","","","","","","","","","","","","","","","","","","","","","","","","","","","","","","","","","","",""
"html-keyboard-response","286","1538387","0.0-8.0-2.0-2.1-1.1","1","1","xcw4qfx48wfp52k","","1454","","<p>To replay the <u>TARGET SOUND</u>, press P.</p> When you are ready to begin, press SPACEBAR.","","80","","","","","","","","","","","","","","","","","","","","","","","","","","","","","","","","","","","","","","","","","",""
"audio-keyboard-response","287","1539192","0.0-8.0-2.0-2.2-0.2","1","1","xcw4qfx48wfp52k","","null","","sounds/syllables/ko_SWS.wav","","null","","","","","","","","","","","","","","","","","","","","","","","","","","","","","","","","","","","","","","","","","",""
"html-keyboard-response","288","1540537","0.0-8.0-2.0-2.2-1.2","1","1","xcw4qfx48wfp52k","","1343","","<p>To replay the <u>TARGET SOUND</u>, press P.</p> When you are ready to begin, press SPACEBAR.","","32","","","","","","","","","","","","","","","","","","","","","","","","","","","","","","","","","","","","","","","","","",""
"audio-keyboard-response","289","1555491","0.0-8.0-2.0-3.1","1","1","xcw4qfx48wfp52k","","683","","sounds/A/TD/KO_07_TD.mp3","","32","","","TD_SUMMARY","","","","","","","","","","","","","","","","","","","","","KO","","3300,6900,8700,11400","3","3300","6900","8700","11400","502","687","815","425","__________689_1444.0000000002328_2744_3802_5174.000000000233_5840_7587_9005_9515_10769_11825_13534","2","","","","",""
"html-button-response","290","1557089","0.0-8.0-2.0-0.2","1","1","xcw4qfx48wfp52k","","1596","","<p>Trial 3 of 36</p>","0","","","","","","","","","","","","","","","","","","","","","","","","","RU","sounds/syllables/ru_SWS.wav","3600,8100,9900,11700","1","","","","","","","","","","","","","","",""
"html-keyboard-response","291","1558463","0.0-8.0-2.0-1.2","1","1","xcw4qfx48wfp52k","","1372","","","","80","","","","","","","","","","","","","","","","","","","","","","","","RU","","3600,8100,9900,11700","1","","","","","","","","","","","","","","",""
"audio-keyboard-response","292","1558765","0.0-8.0-2.0-2.3-0.3","1","1","xcw4qfx48wfp52k","","null","","sounds/syllables/ru_SWS.wav","","null","","","","","","","","","","","","","","","","","","","","","","","","","","","","","","","","","","","","","","","","","",""
"html-keyboard-response","293","1560598","0.0-8.0-2.0-2.3-1.3","1","1","xcw4qfx48wfp52k","","1832","","<p>To replay the <u>TARGET SOUND</u>, press P.</p> When you are ready to begin, press SPACEBAR.","","32","","","","","","","","","","","","","","","","","","","","","","","","","","","","","","","","","","","","","","","","","",""
"audio-keyboard-response","294","1575554","0.0-8.0-2.0-3.2","1","1","xcw4qfx48wfp52k","","1973","","sounds/A/TD/RU_05_TD.mp3","","32","","","TD_SUMMARY","","","","","","","","","","","","","","","","","","","","","RU","","3600,8100,9900,11700","1","3600","8100","9900","11700","1136","1005","1023","1002","______________________1981_2818_4289_4736_5684_8461_9105_10643_10923_12452_12702","1","","","","",""
"html-button-response","295","1577815","0.0-8.0-2.0-0.3","1","1","xcw4qfx48wfp52k","","2259","","<p>Trial 4 of 36</p>","0","","","","","","","","","","","","","","","","","","","","","","","","","SU","sounds/syllables/su_SWS.wav","5100,6900,9600,13200","3","","","","","","","","","","","","","","",""
"html-keyboard-response","296","1578932","0.0-8.0-2.0-1.3","1","1","xcw4qfx48wfp52k","","1114","","","","80","","","","","","","","","","","","","","","","","","","","","","","","SU","","5100,6900,9600,13200","3","","","","","","","","","","","","","","",""
"audio-keyboard-response","297","1579234","0.0-8.0-2.0-2.4-0.4","1","1","xcw4qfx48wfp52k","","null","","sounds/syllables/su_SWS.wav","","null","","","","","","","","","","","","","","","","","","","","","","","","","","","","","","","","","","","","","","","","","",""
"html-keyboard-response","298","1580498","0.0-8.0-2.0-2.4-1.4","1","1","xcw4qfx48wfp52k","","1263","","<p>To replay the <u>TARGET SOUND</u>, press P.</p> When you are ready to begin, press SPACEBAR.","","80","","","","","","","","","","","","","","","","","","","","","","","","","","","","","","","","","","","","","","","","","",""
"audio-keyboard-response","299","1581303","0.0-8.0-2.0-2.5-0.5","1","1","xcw4qfx48wfp52k","","null","","sounds/syllables/su_SWS.wav","","null","","","","","","","","","","","","","","","","","","","","","","","","","","","","","","","","","","","","","","","","","",""
"html-keyboard-response","300","1581971","0.0-8.0-2.0-2.5-1.5","1","1","xcw4qfx48wfp52k","","667","","<p>To replay the <u>TARGET SOUND</u>, press P.</p> When you are ready to begin, press SPACEBAR.","","32","","","","","","","","","","","","","","","","","","","","","","","","","","","","","","","","","","","","","","","","","",""
"audio-keyboard-response","301","1596919","0.0-8.0-2.0-3.3","1","1","xcw4qfx48wfp52k","","2027","","sounds/A/TD/SU_04_TD.mp3","","32","","","TD_SUMMARY","","","","","","","","","","","","","","","","","","","","","SU","","5100,6900,9600,13200","3","5100","6900","9600","13200","500.99999999976717","896.9999999997672","null","757.9999999997672","_________________________________2023.9999999997672_3257.999999999767_5600.999999999767_6471_7796.999999999767_9500.999999999767_12815.999999999767_13957.999999999767","2","","","","",""
"html-button-response","302","1598672","0.0-8.0-2.0-0.4","1","1","xcw4qfx48wfp52k","","1750","","<p>Trial 5 of 36</p>","0","","","","","","","","","","","","","","","","","","","","","","","","","NI","sounds/syllables/ni_SWS.wav","4200,6900,9600,11400","3","","","","","","","","","","","","","","",""
"html-keyboard-response","303","1599634","0.0-8.0-2.0-1.4","1","1","xcw4qfx48wfp52k","","960","","","","80","","","","","","","","","","","","","","","","","","","","","","","","NI","","4200,6900,9600,11400","3","","","","","","","","","","","","","","",""
"audio-keyboard-response","304","1599937","0.0-8.0-2.0-2.6-0.6","1","1","xcw4qfx48wfp52k","","null","","sounds/syllables/ni_SWS.wav","","null","","","","","","","","","","","","","","","","","","","","","","","","","","","","","","","","","","","","","","","","","",""
"html-keyboard-response","305","1601426","0.0-8.0-2.0-2.6-1.6","1","1","xcw4qfx48wfp52k","","1487","","<p>To replay the <u>TARGET SOUND</u>, press P.</p> When you are ready to begin, press SPACEBAR.","","32","","","","","","","","","","","","","","","","","","","","","","","","","","","","","","","","","","","","","","","","","",""
"audio-keyboard-response","306","1616374","0.0-8.0-2.0-3.4","1","1","xcw4qfx48wfp52k","","2752","","sounds/A/TD/NI_02_TD.mp3","","32","","","TD_SUMMARY","","","","","","","","","","","","","","","","","","","","","NI","","4200,6900,9600,11400","3","4200","6900","9600","11400","null","null","699","null","_________________________________________2747_4028_5942_8332.000000000233_10299_12722","1","","","","",""
"html-button-response","307","1618739","0.0-8.0-2.0-0.5","1","1","xcw4qfx48wfp52k","","2362","","<p>Trial 6 of 36</p>","0","","","","","","","","","","","","","","","","","","","","","","","","","TA","sounds/syllables/ta_SWS.wav","900,5400,10800,12600","1","","","","","","","","","","","","","","",""
"html-keyboard-response","308","1619604","0.0-8.0-2.0-1.5","1","1","xcw4qfx48wfp52k","","863","","","","80","","","","","","","","","","","","","","","","","","","","","","","","TA","","900,5400,10800,12600","1","","","","","","","","","","","","","","",""
"audio-keyboard-response","309","1619905","0.0-8.0-2.0-2.7-0.7","1","1","xcw4qfx48wfp52k","","null","","sounds/syllables/ta_SWS.wav","","null","","","","","","","","","","","","","","","","","","","","","","","","","","","","","","","","","","","","","","","","","",""
"html-keyboard-response","310","1620882","0.0-8.0-2.0-2.7-1.7","1","1","xcw4qfx48wfp52k","","976","","<p>To replay the <u>TARGET SOUND</u>, press P.</p> When you are ready to begin, press SPACEBAR.","","32","","","","","","","","","","","","","","","","","","","","","","","","","","","","","","","","","","","","","","","","","",""
"audio-keyboard-response","311","1635830","0.0-8.0-2.0-3.5","1","1","xcw4qfx48wfp52k","","1131","","sounds/A/TD/TA_07_TD.mp3","","32","","","TD_SUMMARY","","","","","","","","","","","","","","","","","","","","","TA","","900,5400,10800,12600","1","900","5400","10800","12600","222.99999999976717","null","null","null","_______________________________________________1122.9999999997672_3003.999999999767_5037.999999999767_6752.999999999767_8667.999999999767_10792.999999999767_12234.999999999767_14223.999999999767","1","","","","",""
"html-button-response","312","1637815","0.0-8.0-2.0-0.6","1","1","xcw4qfx48wfp52k","","1983","","<p>Trial 7 of 36</p>","0","","","","","","","","","","","","","","","","","","","","","","","","","KO","sounds/syllables/ko_SWS.wav","4200,6900,10500,13200","3","","","","","","","","","","","","","","",""
"html-keyboard-response","313","1638827","0.0-8.0-2.0-1.6","1","1","xcw4qfx48wfp52k","","1010","","","","80","","","","","","","","","","","","","","","","","","","","","","","","KO","","4200,6900,10500,13200","3","","","","","","","","","","","","","","",""
"audio-keyboard-response","314","1639136","0.0-8.0-2.0-2.8-0.8","1","1","xcw4qfx48wfp52k","","null","","sounds/syllables/ko_SWS.wav","","null","","","","","","","","","","","","","","","","","","","","","","","","","","","","","","","","","","","","","","","","","",""
"html-keyboard-response","315","1639823","0.0-8.0-2.0-2.8-1.8","1","1","xcw4qfx48wfp52k","","685","","<p>To replay the <u>TARGET SOUND</u>, press P.</p> When you are ready to begin, press SPACEBAR.","","32","","","","","","","","","","","","","","","","","","","","","","","","","","","","","","","","","","","","","","","","","",""
"audio-keyboard-response","316","1654773","0.0-8.0-2.0-3.6","1","1","xcw4qfx48wfp52k","","4149","","sounds/A/TD/KO_03_TD.mp3","","32","","","TD_SUMMARY","","","","","","","","","","","","","","","","","","","","","KO","","4200,6900,10500,13200","3","4200","6900","10500","13200","null","333","null","705.0000000002328","_______________________________________________________4147_7233_10283_13905.000000000233","1","","","","",""
