"trial_type","trial_index","time_elapsed","internal_node_id","counterbalance","lang_instruct","ParticipantID","view_history","rt","url","stimulus","button_pressed","key_press","correctRESP","correct","designation","location","correctanswer","responses","sentence","keywords","typed_resp","keyword1_acc","keyword2_acc","keyword3_acc","keyword4_acc","keyword5_acc","total_acc","prop_acc","timeouts","pause_rt01","pause_rt02","train_file","numKeyPress","sound","fam_type","SYLLABLE","EXEMPLAR","TD_LOCS","TD_TYPE","TDLOC_01","TDLOC_02","TDLOC_03","TDLOC_04","TD_RT_01","TD_RT_02","TD_RT_03","TD_RT_04","TD_SUBJ_RTs","number_of_plays","slider_start","response","question_order","syllable","syllable_type"
"pavlovia","0","4","0.0-0.0","2","1","vja2xd4mqk5eesv","","","","","","","","","","","","","","","","","","","","","","","","","","","","","","","","","","","","","","","","","","","","","","","",""
"instructions","1","12447","0.0-1.0","2","1","vja2xd4mqk5eesv","[{""page_index"":0,""viewing_time"":2894.100000023842},{""page_index"":1,""viewing_time"":9545.5}]","12442.800000011921","","","","","","","","","","","","","","","","","","","","","","","","","","","","","","","","","","","","","","","","","","","","","",""
"external-html","2","16921","0.0-2.0","2","1","vja2xd4mqk5eesv","","4458.800000011921","consent/consent.html","","","","","","","","","","","","","","","","","","","","","","","","","","","","","","","","","","","","","","","","","","","","",""
"html-button-response","3","18314","0.0-3.0-0.0-0.0","2","1","vja2xd4mqk5eesv","","1391.9000000357628","","<p>Welcome to the study. You will first complete a short volume calibration and headphone check.</p><p>Please make sure you are in a quiet listening environment, that you are wearing headphones, and that your computer's volume is turned on.<p></p>","0","","","","","","","","","","","","","","","","","","","","","","","","","","","","","","","","","","","","","","","","","","",""
"html-button-response","4","19591","0.0-3.0-0.0-1.0","2","1","vja2xd4mqk5eesv","","1010","","<p>The volume calibration will be first.</p><p>You will hear a thirty-second noise. Please adjust your computer's volume so that this noise is being presented at a comfortable level.<p></p>","0","","","","","","","","","","","","","","","","","","","","","","","","","","","","","","","","","","","","","","","","","","",""
"audio-button-response","5","23804","0.0-3.0-0.0-2.0","2","1","vja2xd4mqk5eesv","","3851","","audCalib/volumetest.mp3","0","","","","","","","","","","","","","","","","","","","","","","","","","","","","","","","","","","","","","","","","","","",""
"html-button-response","6","25246","0.0-3.0-1.0-0.0","2","1","vja2xd4mqk5eesv","","1441.300000011921","","<p>You will now complete a short headphone check.</p><p>On each trial, you will hear three tones. One of these tones will be quieter than the others. Your task is to identify whether the quiet tone occured first, second, or third.</p><p>There are six trials in total.<p></p>","0","","","","","","","","","","","","","","","","","","","","","","","","","","","","","","","","","","","","","","","","","","",""
"html-keyboard-response","7","26021","0.0-3.0-1.0-1.0-0.0","2","1","vja2xd4mqk5eesv","","null","","<div style=""font-size:60px;"">+</div>","","null","","","","","","","","","","","","","","","","","","","","","","","","","","","","","","","","","","","","","","","","","",""
"audio-button-response","8","36228","0.0-3.0-1.0-1.0-1.0","2","1","vja2xd4mqk5eesv","","10211","","audCalib/t2_2.mp3","1","","1","1","headphone-test","","","","","","","","","","","","","","","","","","","","","","","","","","","","","","","","","","","","","","",""
"html-keyboard-response","9","37005","0.0-3.0-1.0-1.0-0.1","2","1","vja2xd4mqk5eesv","","null","","<div style=""font-size:60px;"">+</div>","","null","","","","","","","","","","","","","","","","","","","","","","","","","","","","","","","","","","","","","","","","","",""
"audio-button-response","10","44067","0.0-3.0-1.0-1.0-1.1","2","1","vja2xd4mqk5eesv","","7059","","audCalib/t1_1.mp3","0","","0","1","headphone-test","","","","","","","","","","","","","","","","","","","","","","","","","","","","","","","","","","","","","","",""
"html-keyboard-response","11","44842","0.0-3.0-1.0-1.0-0.2","2","1","vja2xd4mqk5eesv","","null","","<div style=""font-size:60px;"">+</div>","","null","","","","","","","","","","","","","","","","","","","","","","","","","","","","","","","","","","","","","","","","","",""
"audio-button-response","12","55209","0.0-3.0-1.0-1.0-1.2","2","1","vja2xd4mqk5eesv","","10371","","audCalib/t1_2.mp3","0","","0","1","headphone-test","","","","","","","","","","","","","","","","","","","","","","","","","","","","","","","","","","","","","","",""
"html-keyboard-response","13","55985","0.0-3.0-1.0-1.0-0.3","2","1","vja2xd4mqk5eesv","","null","","<div style=""font-size:60px;"">+</div>","","null","","","","","","","","","","","","","","","","","","","","","","","","","","","","","","","","","","","","","","","","","",""
"audio-button-response","14","60775","0.0-3.0-1.0-1.0-1.3","2","1","vja2xd4mqk5eesv","","4789","","audCalib/t3_2.mp3","2","","2","1","headphone-test","","","","","","","","","","","","","","","","","","","","","","","","","","","","","","","","","","","","","","",""
"html-keyboard-response","15","61543","0.0-3.0-1.0-1.0-0.4","2","1","vja2xd4mqk5eesv","","null","","<div style=""font-size:60px;"">+</div>","","null","","","","","","","","","","","","","","","","","","","","","","","","","","","","","","","","","","","","","","","","","",""
"audio-button-response","16","66468","0.0-3.0-1.0-1.0-1.4","2","1","vja2xd4mqk5eesv","","4920","","audCalib/t3_1.mp3","2","","2","1","headphone-test","","","","","","","","","","","","","","","","","","","","","","","","","","","","","","","","","","","","","","",""
"html-keyboard-response","17","67244","0.0-3.0-1.0-1.0-0.5","2","1","vja2xd4mqk5eesv","","null","","<div style=""font-size:60px;"">+</div>","","null","","","","","","","","","","","","","","","","","","","","","","","","","","","","","","","","","","","","","","","","","",""
"audio-button-response","18","71683","0.0-3.0-1.0-1.0-1.5","2","1","vja2xd4mqk5eesv","","4429","","audCalib/t2_1.mp3","1","","1","1","headphone-test","","","","","","","","","","","","","","","","","","","","","","","","","","","","","","","","","","","","","","",""
"html-button-response","19","73936","0.0-3.0-2.0","2","1","vja2xd4mqk5eesv","","1990","","<p>The volume calibration and headphone check are now complete.</p>","0","","","","","","","","","","","","","","","","","","","","","","","","","","","","","","","","","","","","","","","","","","",""
"instructions","20","91145","0.0-4.0-0.0","2","1","vja2xd4mqk5eesv","[{""page_index"":0,""viewing_time"":1265.199999988079},{""page_index"":1,""viewing_time"":13729.199999988079},{""page_index"":2,""viewing_time"":2213.199999988079}]","17207.899999976158","","","","","","","","","","","","","","","","","","","","","","","","","","","","","","","","","","","","","","","","","","","","","",""
"audio-keyboard-response","21","91445","0.0-4.0-1.0-0.0","2","1","vja2xd4mqk5eesv","","null","","sounds/induction/right/ko_SWS.wav","","null","","","","","","","","","","","","","","","","","","","","","","","","","","","","","","","","","","","","","","","","","",""
"html-button-response","22","95842","0.0-4.0-1.0-1.0","2","1","vja2xd4mqk5eesv","","4405.699999988079","","What sound did you hear?","0","","","1","INDUCTION-JUDGMENT","right","0","","","","","","","","","","","","","","","","","","","","","","","","","","","","","","","","","","","","",""
"html-keyboard-response","23","96852","0.0-4.0-1.0-2.0","2","1","vja2xd4mqk5eesv","","null","","<p style=""color:green;""><b>Correct!</b></p>","","null","","","","","","","","","","","","","","","","","","","","","","","","","","","","","","","","","","","","","","","","","",""
"audio-keyboard-response","24","97666","0.0-4.0-1.0-0.1","2","1","vja2xd4mqk5eesv","","null","","sounds/induction/left/ru_SWS.wav","","null","","","","","","","","","","","","","","","","","","","","","","","","","","","","","","","","","","","","","","","","","",""
"html-button-response","25","103691","0.0-4.0-1.0-1.1","2","1","vja2xd4mqk5eesv","","6021.399999976158","","What sound did you hear?","0","","","1","INDUCTION-JUDGMENT","left","0","","","","","","","","","","","","","","","","","","","","","","","","","","","","","","","","","","","","",""
"html-keyboard-response","26","104695","0.0-4.0-1.0-2.1","2","1","vja2xd4mqk5eesv","","null","","<p style=""color:green;""><b>Correct!</b></p>","","null","","","","","","","","","","","","","","","","","","","","","","","","","","","","","","","","","","","","","","","","","",""
"audio-keyboard-response","27","105515","0.0-4.0-1.0-0.2","2","1","vja2xd4mqk5eesv","","null","","sounds/induction/left/ge_SWS.wav","","null","","","","","","","","","","","","","","","","","","","","","","","","","","","","","","","","","","","","","","","","","",""
"html-button-response","28","108048","0.0-4.0-1.0-1.2","2","1","vja2xd4mqk5eesv","","2530.7999999523163","","What sound did you hear?","1","","","1","INDUCTION-JUDGMENT","left","1","","","","","","","","","","","","","","","","","","","","","","","","","","","","","","","","","","","","",""
"html-keyboard-response","29","109063","0.0-4.0-1.0-2.2","2","1","vja2xd4mqk5eesv","","null","","<p style=""color:green;""><b>Correct!</b></p>","","null","","","","","","","","","","","","","","","","","","","","","","","","","","","","","","","","","","","","","","","","","",""
"audio-keyboard-response","30","109876","0.0-4.0-1.0-0.3","2","1","vja2xd4mqk5eesv","","null","","sounds/induction/right/ge_SWS.wav","","null","","","","","","","","","","","","","","","","","","","","","","","","","","","","","","","","","","","","","","","","","",""
"html-button-response","31","113293","0.0-4.0-1.0-1.3","2","1","vja2xd4mqk5eesv","","3414.800000011921","","What sound did you hear?","1","","","0","INDUCTION-JUDGMENT","right","0","","","","","","","","","","","","","","","","","","","","","","","","","","","","","","","","","","","","",""
"html-keyboard-response","32","114313","0.0-4.0-1.0-2.3","2","1","vja2xd4mqk5eesv","","null","","<p style=""color:red;""><b>Incorrect!</b></p>","","null","","","","","","","","","","","","","","","","","","","","","","","","","","","","","","","","","","","","","","","","","",""
"audio-keyboard-response","33","115115","0.0-4.0-1.0-0.4","2","1","vja2xd4mqk5eesv","","null","","sounds/induction/right/ti_SWS.wav","","null","","","","","","","","","","","","","","","","","","","","","","","","","","","","","","","","","","","","","","","","","",""
"html-button-response","34","118752","0.0-4.0-1.0-1.4","2","1","vja2xd4mqk5eesv","","3633.900000035763","","What sound did you hear?","1","","","1","INDUCTION-JUDGMENT","right","1","","","","","","","","","","","","","","","","","","","","","","","","","","","","","","","","","","","","",""
"html-keyboard-response","35","119756","0.0-4.0-1.0-2.4","2","1","vja2xd4mqk5eesv","","null","","<p style=""color:green;""><b>Correct!</b></p>","","null","","","","","","","","","","","","","","","","","","","","","","","","","","","","","","","","","","","","","","","","","",""
"audio-keyboard-response","36","120584","0.0-4.0-1.0-0.5","2","1","vja2xd4mqk5eesv","","null","","sounds/induction/left/re_SWS.wav","","null","","","","","","","","","","","","","","","","","","","","","","","","","","","","","","","","","","","","","","","","","",""
"html-button-response","37","123265","0.0-4.0-1.0-1.5","2","1","vja2xd4mqk5eesv","","2679.899999976158","","What sound did you hear?","0","","","1","INDUCTION-JUDGMENT","left","0","","","","","","","","","","","","","","","","","","","","","","","","","","","","","","","","","","","","",""
"html-keyboard-response","38","124273","0.0-4.0-1.0-2.5","2","1","vja2xd4mqk5eesv","","null","","<p style=""color:green;""><b>Correct!</b></p>","","null","","","","","","","","","","","","","","","","","","","","","","","","","","","","","","","","","","","","","","","","","",""
"audio-keyboard-response","39","125094","0.0-4.0-1.0-0.6","2","1","vja2xd4mqk5eesv","","null","","sounds/induction/left/pu_SWS.wav","","null","","","","","","","","","","","","","","","","","","","","","","","","","","","","","","","","","","","","","","","","","",""
"html-button-response","40","127067","0.0-4.0-1.0-1.6","2","1","vja2xd4mqk5eesv","","1971.5999999642372","","What sound did you hear?","0","","","1","INDUCTION-JUDGMENT","left","0","","","","","","","","","","","","","","","","","","","","","","","","","","","","","","","","","","","","",""
"html-keyboard-response","41","128068","0.0-4.0-1.0-2.6","2","1","vja2xd4mqk5eesv","","null","","<p style=""color:green;""><b>Correct!</b></p>","","null","","","","","","","","","","","","","","","","","","","","","","","","","","","","","","","","","","","","","","","","","",""
"audio-keyboard-response","42","128895","0.0-4.0-1.0-0.7","2","1","vja2xd4mqk5eesv","","null","","sounds/induction/left/pu_SWS.wav","","null","","","","","","","","","","","","","","","","","","","","","","","","","","","","","","","","","","","","","","","","","",""
"html-button-response","43","130625","0.0-4.0-1.0-1.7","2","1","vja2xd4mqk5eesv","","1729.300000011921","","What sound did you hear?","0","","","1","INDUCTION-JUDGMENT","left","0","","","","","","","","","","","","","","","","","","","","","","","","","","","","","","","","","","","","",""
"html-keyboard-response","44","131634","0.0-4.0-1.0-2.7","2","1","vja2xd4mqk5eesv","","null","","<p style=""color:green;""><b>Correct!</b></p>","","null","","","","","","","","","","","","","","","","","","","","","","","","","","","","","","","","","","","","","","","","","",""
"audio-keyboard-response","45","132454","0.0-4.0-1.0-0.8","2","1","vja2xd4mqk5eesv","","null","","sounds/induction/left/ta_SWS.wav","","null","","","","","","","","","","","","","","","","","","","","","","","","","","","","","","","","","","","","","","","","","",""
"html-button-response","46","135198","0.0-4.0-1.0-1.8","2","1","vja2xd4mqk5eesv","","2742.300000011921","","What sound did you hear?","1","","","0","INDUCTION-JUDGMENT","left","0","","","","","","","","","","","","","","","","","","","","","","","","","","","","","","","","","","","","",""
"html-keyboard-response","47","136202","0.0-4.0-1.0-2.8","2","1","vja2xd4mqk5eesv","","null","","<p style=""color:red;""><b>Incorrect!</b></p>","","null","","","","","","","","","","","","","","","","","","","","","","","","","","","","","","","","","","","","","","","","","",""
"audio-keyboard-response","48","137024","0.0-4.0-1.0-0.9","2","1","vja2xd4mqk5eesv","","null","","sounds/induction/left/me_SWS.wav","","null","","","","","","","","","","","","","","","","","","","","","","","","","","","","","","","","","","","","","","","","","",""
"html-button-response","49","139662","0.0-4.0-1.0-1.9","2","1","vja2xd4mqk5eesv","","2636.699999988079","","What sound did you hear?","1","","","1","INDUCTION-JUDGMENT","left","1","","","","","","","","","","","","","","","","","","","","","","","","","","","","","","","","","","","","",""
"html-keyboard-response","50","140673","0.0-4.0-1.0-2.9","2","1","vja2xd4mqk5eesv","","null","","<p style=""color:green;""><b>Correct!</b></p>","","null","","","","","","","","","","","","","","","","","","","","","","","","","","","","","","","","","","","","","","","","","",""
"audio-keyboard-response","51","141494","0.0-4.0-1.0-0.10","2","1","vja2xd4mqk5eesv","","null","","sounds/induction/right/ru_SWS.wav","","null","","","","","","","","","","","","","","","","","","","","","","","","","","","","","","","","","","","","","","","","","",""
"html-button-response","52","145745","0.0-4.0-1.0-1.10","2","1","vja2xd4mqk5eesv","","4249.800000011921","","What sound did you hear?","1","","","1","INDUCTION-JUDGMENT","right","1","","","","","","","","","","","","","","","","","","","","","","","","","","","","","","","","","","","","",""
"html-keyboard-response","53","146752","0.0-4.0-1.0-2.10","2","1","vja2xd4mqk5eesv","","null","","<p style=""color:green;""><b>Correct!</b></p>","","null","","","","","","","","","","","","","","","","","","","","","","","","","","","","","","","","","","","","","","","","","",""
"audio-keyboard-response","54","147554","0.0-4.0-1.0-0.11","2","1","vja2xd4mqk5eesv","","null","","sounds/induction/right/pu_SWS.wav","","null","","","","","","","","","","","","","","","","","","","","","","","","","","","","","","","","","","","","","","","","","",""
"html-button-response","55","152053","0.0-4.0-1.0-1.11","2","1","vja2xd4mqk5eesv","","4496.599999964237","","What sound did you hear?","1","","","1","INDUCTION-JUDGMENT","right","1","","","","","","","","","","","","","","","","","","","","","","","","","","","","","","","","","","","","",""
"html-keyboard-response","56","153072","0.0-4.0-1.0-2.11","2","1","vja2xd4mqk5eesv","","null","","<p style=""color:green;""><b>Correct!</b></p>","","null","","","","","","","","","","","","","","","","","","","","","","","","","","","","","","","","","","","","","","","","","",""
"audio-keyboard-response","57","153893","0.0-4.0-1.0-0.12","2","1","vja2xd4mqk5eesv","","null","","sounds/induction/right/ge_SWS.wav","","null","","","","","","","","","","","","","","","","","","","","","","","","","","","","","","","","","","","","","","","","","",""
"html-button-response","58","156286","0.0-4.0-1.0-1.12","2","1","vja2xd4mqk5eesv","","2401.100000023842","","What sound did you hear?","0","","","1","INDUCTION-JUDGMENT","right","0","","","","","","","","","","","","","","","","","","","","","","","","","","","","","","","","","","","","",""
"html-keyboard-response","59","157293","0.0-4.0-1.0-2.12","2","1","vja2xd4mqk5eesv","","null","","<p style=""color:green;""><b>Correct!</b></p>","","null","","","","","","","","","","","","","","","","","","","","","","","","","","","","","","","","","","","","","","","","","",""
"audio-keyboard-response","60","158104","0.0-4.0-1.0-0.13","2","1","vja2xd4mqk5eesv","","null","","sounds/induction/left/ni_SWS.wav","","null","","","","","","","","","","","","","","","","","","","","","","","","","","","","","","","","","","","","","","","","","",""
"html-button-response","61","159803","0.0-4.0-1.0-1.13","2","1","vja2xd4mqk5eesv","","1697.300000011921","","What sound did you hear?","1","","","1","INDUCTION-JUDGMENT","left","1","","","","","","","","","","","","","","","","","","","","","","","","","","","","","","","","","","","","",""
"html-keyboard-response","62","160812","0.0-4.0-1.0-2.13","2","1","vja2xd4mqk5eesv","","null","","<p style=""color:green;""><b>Correct!</b></p>","","null","","","","","","","","","","","","","","","","","","","","","","","","","","","","","","","","","","","","","","","","","",""
"audio-keyboard-response","63","161613","0.0-4.0-1.0-0.14","2","1","vja2xd4mqk5eesv","","null","","sounds/induction/right/pu_SWS.wav","","null","","","","","","","","","","","","","","","","","","","","","","","","","","","","","","","","","","","","","","","","","",""
"html-button-response","64","163751","0.0-4.0-1.0-1.14","2","1","vja2xd4mqk5eesv","","2136.399999976158","","What sound did you hear?","1","","","1","INDUCTION-JUDGMENT","right","1","","","","","","","","","","","","","","","","","","","","","","","","","","","","","","","","","","","","",""
"html-keyboard-response","65","164772","0.0-4.0-1.0-2.14","2","1","vja2xd4mqk5eesv","","null","","<p style=""color:green;""><b>Correct!</b></p>","","null","","","","","","","","","","","","","","","","","","","","","","","","","","","","","","","","","","","","","","","","","",""
"audio-keyboard-response","66","165575","0.0-4.0-1.0-0.15","2","1","vja2xd4mqk5eesv","","null","","sounds/induction/left/ge_SWS.wav","","null","","","","","","","","","","","","","","","","","","","","","","","","","","","","","","","","","","","","","","","","","",""
"html-button-response","67","168147","0.0-4.0-1.0-1.15","2","1","vja2xd4mqk5eesv","","2570.600000023842","","What sound did you hear?","1","","","1","INDUCTION-JUDGMENT","left","1","","","","","","","","","","","","","","","","","","","","","","","","","","","","","","","","","","","","",""
"html-keyboard-response","68","169150","0.0-4.0-1.0-2.15","2","1","vja2xd4mqk5eesv","","null","","<p style=""color:green;""><b>Correct!</b></p>","","null","","","","","","","","","","","","","","","","","","","","","","","","","","","","","","","","","","","","","","","","","",""
"audio-keyboard-response","69","169974","0.0-4.0-1.0-0.16","2","1","vja2xd4mqk5eesv","","null","","sounds/induction/right/ko_SWS.wav","","null","","","","","","","","","","","","","","","","","","","","","","","","","","","","","","","","","","","","","","","","","",""
"html-button-response","70","172145","0.0-4.0-1.0-1.16","2","1","vja2xd4mqk5eesv","","2156.7000000476837","","What sound did you hear?","0","","","1","INDUCTION-JUDGMENT","right","0","","","","","","","","","","","","","","","","","","","","","","","","","","","","","","","","","","","","",""
"html-keyboard-response","71","173154","0.0-4.0-1.0-2.16","2","1","vja2xd4mqk5eesv","","null","","<p style=""color:green;""><b>Correct!</b></p>","","null","","","","","","","","","","","","","","","","","","","","","","","","","","","","","","","","","","","","","","","","","",""
"audio-keyboard-response","72","173964","0.0-4.0-1.0-0.17","2","1","vja2xd4mqk5eesv","","null","","sounds/induction/left/re_SWS.wav","","null","","","","","","","","","","","","","","","","","","","","","","","","","","","","","","","","","","","","","","","","","",""
"html-button-response","73","176658","0.0-4.0-1.0-1.17","2","1","vja2xd4mqk5eesv","","2692.800000011921","","What sound did you hear?","0","","","1","INDUCTION-JUDGMENT","left","0","","","","","","","","","","","","","","","","","","","","","","","","","","","","","","","","","","","","",""
"html-keyboard-response","74","177663","0.0-4.0-1.0-2.17","2","1","vja2xd4mqk5eesv","","null","","<p style=""color:green;""><b>Correct!</b></p>","","null","","","","","","","","","","","","","","","","","","","","","","","","","","","","","","","","","","","","","","","","","",""
"audio-keyboard-response","75","178464","0.0-4.0-1.0-0.18","2","1","vja2xd4mqk5eesv","","null","","sounds/induction/left/su_SWS.wav","","null","","","","","","","","","","","","","","","","","","","","","","","","","","","","","","","","","","","","","","","","","",""
"html-button-response","76","180109","0.0-4.0-1.0-1.18","2","1","vja2xd4mqk5eesv","","1643.7999999523163","","What sound did you hear?","0","","","1","INDUCTION-JUDGMENT","left","0","","","","","","","","","","","","","","","","","","","","","","","","","","","","","","","","","","","","",""
"html-keyboard-response","77","181123","0.0-4.0-1.0-2.18","2","1","vja2xd4mqk5eesv","","null","","<p style=""color:green;""><b>Correct!</b></p>","","null","","","","","","","","","","","","","","","","","","","","","","","","","","","","","","","","","","","","","","","","","",""
"audio-keyboard-response","78","181933","0.0-4.0-1.0-0.19","2","1","vja2xd4mqk5eesv","","null","","sounds/induction/left/su_SWS.wav","","null","","","","","","","","","","","","","","","","","","","","","","","","","","","","","","","","","","","","","","","","","",""
"html-button-response","79","183715","0.0-4.0-1.0-1.19","2","1","vja2xd4mqk5eesv","","1780.699999988079","","What sound did you hear?","0","","","1","INDUCTION-JUDGMENT","left","0","","","","","","","","","","","","","","","","","","","","","","","","","","","","","","","","","","","","",""
"html-keyboard-response","80","184721","0.0-4.0-1.0-2.19","2","1","vja2xd4mqk5eesv","","null","","<p style=""color:green;""><b>Correct!</b></p>","","null","","","","","","","","","","","","","","","","","","","","","","","","","","","","","","","","","","","","","","","","","",""
"audio-keyboard-response","81","185534","0.0-4.0-1.0-0.20","2","1","vja2xd4mqk5eesv","","null","","sounds/induction/left/fu_SWS.wav","","null","","","","","","","","","","","","","","","","","","","","","","","","","","","","","","","","","","","","","","","","","",""
"html-button-response","82","189175","0.0-4.0-1.0-1.20","2","1","vja2xd4mqk5eesv","","3639.7000000476837","","What sound did you hear?","0","","","0","INDUCTION-JUDGMENT","left","1","","","","","","","","","","","","","","","","","","","","","","","","","","","","","","","","","","","","",""
"html-keyboard-response","83","190180","0.0-4.0-1.0-2.20","2","1","vja2xd4mqk5eesv","","null","","<p style=""color:red;""><b>Incorrect!</b></p>","","null","","","","","","","","","","","","","","","","","","","","","","","","","","","","","","","","","","","","","","","","","",""
"audio-keyboard-response","84","190983","0.0-4.0-1.0-0.21","2","1","vja2xd4mqk5eesv","","null","","sounds/induction/right/fe_SWS.wav","","null","","","","","","","","","","","","","","","","","","","","","","","","","","","","","","","","","","","","","","","","","",""
"html-button-response","85","193055","0.0-4.0-1.0-1.21","2","1","vja2xd4mqk5eesv","","2069.900000035763","","What sound did you hear?","0","","","1","INDUCTION-JUDGMENT","right","0","","","","","","","","","","","","","","","","","","","","","","","","","","","","","","","","","","","","",""
"html-keyboard-response","86","194062","0.0-4.0-1.0-2.21","2","1","vja2xd4mqk5eesv","","null","","<p style=""color:green;""><b>Correct!</b></p>","","null","","","","","","","","","","","","","","","","","","","","","","","","","","","","","","","","","","","","","","","","","",""
"audio-keyboard-response","87","194883","0.0-4.0-1.0-0.22","2","1","vja2xd4mqk5eesv","","null","","sounds/induction/right/re_SWS.wav","","null","","","","","","","","","","","","","","","","","","","","","","","","","","","","","","","","","","","","","","","","","",""
"html-button-response","88","196886","0.0-4.0-1.0-1.22","2","1","vja2xd4mqk5eesv","","2000.6000000238419","","What sound did you hear?","1","","","1","INDUCTION-JUDGMENT","right","1","","","","","","","","","","","","","","","","","","","","","","","","","","","","","","","","","","","","",""
"html-keyboard-response","89","197892","0.0-4.0-1.0-2.22","2","1","vja2xd4mqk5eesv","","null","","<p style=""color:green;""><b>Correct!</b></p>","","null","","","","","","","","","","","","","","","","","","","","","","","","","","","","","","","","","","","","","","","","","",""
"audio-keyboard-response","90","198703","0.0-4.0-1.0-0.23","2","1","vja2xd4mqk5eesv","","null","","sounds/induction/right/me_SWS.wav","","null","","","","","","","","","","","","","","","","","","","","","","","","","","","","","","","","","","","","","","","","","",""
"html-button-response","91","200834","0.0-4.0-1.0-1.23","2","1","vja2xd4mqk5eesv","","2129","","What sound did you hear?","0","","","1","INDUCTION-JUDGMENT","right","0","","","","","","","","","","","","","","","","","","","","","","","","","","","","","","","","","","","","",""
"html-keyboard-response","92","201839","0.0-4.0-1.0-2.23","2","1","vja2xd4mqk5eesv","","null","","<p style=""color:green;""><b>Correct!</b></p>","","null","","","","","","","","","","","","","","","","","","","","","","","","","","","","","","","","","","","","","","","","","",""
"audio-keyboard-response","93","202643","0.0-4.0-1.0-0.24","2","1","vja2xd4mqk5eesv","","null","","sounds/induction/right/ta_SWS.wav","","null","","","","","","","","","","","","","","","","","","","","","","","","","","","","","","","","","","","","","","","","","",""
"html-button-response","94","205904","0.0-4.0-1.0-1.24","2","1","vja2xd4mqk5eesv","","3258.800000011921","","What sound did you hear?","1","","","1","INDUCTION-JUDGMENT","right","1","","","","","","","","","","","","","","","","","","","","","","","","","","","","","","","","","","","","",""
"html-keyboard-response","95","206922","0.0-4.0-1.0-2.24","2","1","vja2xd4mqk5eesv","","null","","<p style=""color:green;""><b>Correct!</b></p>","","null","","","","","","","","","","","","","","","","","","","","","","","","","","","","","","","","","","","","","","","","","",""
"audio-keyboard-response","96","207734","0.0-4.0-1.0-0.25","2","1","vja2xd4mqk5eesv","","null","","sounds/induction/right/fu_SWS.wav","","null","","","","","","","","","","","","","","","","","","","","","","","","","","","","","","","","","","","","","","","","","",""
"html-button-response","97","209578","0.0-4.0-1.0-1.25","2","1","vja2xd4mqk5eesv","","1842.199999988079","","What sound did you hear?","0","","","1","INDUCTION-JUDGMENT","right","0","","","","","","","","","","","","","","","","","","","","","","","","","","","","","","","","","","","","",""
"html-keyboard-response","98","210592","0.0-4.0-1.0-2.25","2","1","vja2xd4mqk5eesv","","null","","<p style=""color:green;""><b>Correct!</b></p>","","null","","","","","","","","","","","","","","","","","","","","","","","","","","","","","","","","","","","","","","","","","",""
"audio-keyboard-response","99","211413","0.0-4.0-1.0-0.26","2","1","vja2xd4mqk5eesv","","null","","sounds/induction/left/ko_SWS.wav","","null","","","","","","","","","","","","","","","","","","","","","","","","","","","","","","","","","","","","","","","","","",""
"html-button-response","100","215086","0.0-4.0-1.0-1.26","2","1","vja2xd4mqk5eesv","","3671","","What sound did you hear?","1","","","1","INDUCTION-JUDGMENT","left","1","","","","","","","","","","","","","","","","","","","","","","","","","","","","","","","","","","","","",""
"html-keyboard-response","101","216092","0.0-4.0-1.0-2.26","2","1","vja2xd4mqk5eesv","","null","","<p style=""color:green;""><b>Correct!</b></p>","","null","","","","","","","","","","","","","","","","","","","","","","","","","","","","","","","","","","","","","","","","","",""
"audio-keyboard-response","102","216884","0.0-4.0-1.0-0.27","2","1","vja2xd4mqk5eesv","","null","","sounds/induction/left/fe_SWS.wav","","null","","","","","","","","","","","","","","","","","","","","","","","","","","","","","","","","","","","","","","","","","",""
"html-button-response","103","218566","0.0-4.0-1.0-1.27","2","1","vja2xd4mqk5eesv","","1680.6000000238419","","What sound did you hear?","1","","","1","INDUCTION-JUDGMENT","left","1","","","","","","","","","","","","","","","","","","","","","","","","","","","","","","","","","","","","",""
"html-keyboard-response","104","219577","0.0-4.0-1.0-2.27","2","1","vja2xd4mqk5eesv","","null","","<p style=""color:green;""><b>Correct!</b></p>","","null","","","","","","","","","","","","","","","","","","","","","","","","","","","","","","","","","","","","","","","","","",""
"audio-keyboard-response","105","220403","0.0-4.0-1.0-0.28","2","1","vja2xd4mqk5eesv","","null","","sounds/induction/left/ni_SWS.wav","","null","","","","","","","","","","","","","","","","","","","","","","","","","","","","","","","","","","","","","","","","","",""
"html-button-response","106","222612","0.0-4.0-1.0-1.28","2","1","vja2xd4mqk5eesv","","2206.699999988079","","What sound did you hear?","1","","","1","INDUCTION-JUDGMENT","left","1","","","","","","","","","","","","","","","","","","","","","","","","","","","","","","","","","","","","",""
"html-keyboard-response","107","223624","0.0-4.0-1.0-2.28","2","1","vja2xd4mqk5eesv","","null","","<p style=""color:green;""><b>Correct!</b></p>","","null","","","","","","","","","","","","","","","","","","","","","","","","","","","","","","","","","","","","","","","","","",""
"audio-keyboard-response","108","224434","0.0-4.0-1.0-0.29","2","1","vja2xd4mqk5eesv","","null","","sounds/induction/right/ni_SWS.wav","","null","","","","","","","","","","","","","","","","","","","","","","","","","","","","","","","","","","","","","","","","","",""
"html-button-response","109","226424","0.0-4.0-1.0-1.29","2","1","vja2xd4mqk5eesv","","1988.699999988079","","What sound did you hear?","0","","","1","INDUCTION-JUDGMENT","right","0","","","","","","","","","","","","","","","","","","","","","","","","","","","","","","","","","","","","",""
"html-keyboard-response","110","227442","0.0-4.0-1.0-2.29","2","1","vja2xd4mqk5eesv","","null","","<p style=""color:green;""><b>Correct!</b></p>","","null","","","","","","","","","","","","","","","","","","","","","","","","","","","","","","","","","","","","","","","","","",""
"audio-keyboard-response","111","228257","0.0-4.0-1.0-0.30","2","1","vja2xd4mqk5eesv","","null","","sounds/induction/right/ni_SWS.wav","","null","","","","","","","","","","","","","","","","","","","","","","","","","","","","","","","","","","","","","","","","","",""
"html-button-response","112","229592","0.0-4.0-1.0-1.30","2","1","vja2xd4mqk5eesv","","1330.2999999523163","","What sound did you hear?","0","","","1","INDUCTION-JUDGMENT","right","0","","","","","","","","","","","","","","","","","","","","","","","","","","","","","","","","","","","","",""
"html-keyboard-response","113","230602","0.0-4.0-1.0-2.30","2","1","vja2xd4mqk5eesv","","null","","<p style=""color:green;""><b>Correct!</b></p>","","null","","","","","","","","","","","","","","","","","","","","","","","","","","","","","","","","","","","","","","","","","",""
"audio-keyboard-response","114","231403","0.0-4.0-1.0-0.31","2","1","vja2xd4mqk5eesv","","null","","sounds/induction/right/ti_SWS.wav","","null","","","","","","","","","","","","","","","","","","","","","","","","","","","","","","","","","","","","","","","","","",""
"html-button-response","115","243080","0.0-4.0-1.0-1.31","2","1","vja2xd4mqk5eesv","","11675.600000023842","","What sound did you hear?","0","","","0","INDUCTION-JUDGMENT","right","1","","","","","","","","","","","","","","","","","","","","","","","","","","","","","","","","","","","","",""
"html-keyboard-response","116","244103","0.0-4.0-1.0-2.31","2","1","vja2xd4mqk5eesv","","null","","<p style=""color:red;""><b>Incorrect!</b></p>","","null","","","","","","","","","","","","","","","","","","","","","","","","","","","","","","","","","","","","","","","","","",""
"audio-keyboard-response","117","244924","0.0-4.0-1.0-0.32","2","1","vja2xd4mqk5eesv","","null","","sounds/induction/left/ta_SWS.wav","","null","","","","","","","","","","","","","","","","","","","","","","","","","","","","","","","","","","","","","","","","","",""
"html-button-response","118","263665","0.0-4.0-1.0-1.32","2","1","vja2xd4mqk5eesv","","18739.5","","What sound did you hear?","0","","","1","INDUCTION-JUDGMENT","left","0","","","","","","","","","","","","","","","","","","","","","","","","","","","","","","","","","","","","",""
"html-keyboard-response","119","264672","0.0-4.0-1.0-2.32","2","1","vja2xd4mqk5eesv","","null","","<p style=""color:green;""><b>Correct!</b></p>","","null","","","","","","","","","","","","","","","","","","","","","","","","","","","","","","","","","","","","","","","","","",""
"audio-keyboard-response","120","265483","0.0-4.0-1.0-0.33","2","1","vja2xd4mqk5eesv","","null","","sounds/induction/left/fe_SWS.wav","","null","","","","","","","","","","","","","","","","","","","","","","","","","","","","","","","","","","","","","","","","","",""
"html-button-response","121","266824","0.0-4.0-1.0-1.33","2","1","vja2xd4mqk5eesv","","1339","","What sound did you hear?","1","","","1","INDUCTION-JUDGMENT","left","1","","","","","","","","","","","","","","","","","","","","","","","","","","","","","","","","","","","","",""
"html-keyboard-response","122","267829","0.0-4.0-1.0-2.33","2","1","vja2xd4mqk5eesv","","null","","<p style=""color:green;""><b>Correct!</b></p>","","null","","","","","","","","","","","","","","","","","","","","","","","","","","","","","","","","","","","","","","","","","",""
"audio-keyboard-response","123","268633","0.0-4.0-1.0-0.34","2","1","vja2xd4mqk5eesv","","null","","sounds/induction/right/fu_SWS.wav","","null","","","","","","","","","","","","","","","","","","","","","","","","","","","","","","","","","","","","","","","","","",""
"html-button-response","124","270910","0.0-4.0-1.0-1.34","2","1","vja2xd4mqk5eesv","","2275.300000011921","","What sound did you hear?","0","","","1","INDUCTION-JUDGMENT","right","0","","","","","","","","","","","","","","","","","","","","","","","","","","","","","","","","","","","","",""
"html-keyboard-response","125","271911","0.0-4.0-1.0-2.34","2","1","vja2xd4mqk5eesv","","null","","<p style=""color:green;""><b>Correct!</b></p>","","null","","","","","","","","","","","","","","","","","","","","","","","","","","","","","","","","","","","","","","","","","",""
"audio-keyboard-response","126","272723","0.0-4.0-1.0-0.35","2","1","vja2xd4mqk5eesv","","null","","sounds/induction/right/re_SWS.wav","","null","","","","","","","","","","","","","","","","","","","","","","","","","","","","","","","","","","","","","","","","","",""
"html-button-response","127","273884","0.0-4.0-1.0-1.35","2","1","vja2xd4mqk5eesv","","1159.8999999761581","","What sound did you hear?","1","","","1","INDUCTION-JUDGMENT","right","1","","","","","","","","","","","","","","","","","","","","","","","","","","","","","","","","","","","","",""
"html-keyboard-response","128","274891","0.0-4.0-1.0-2.35","2","1","vja2xd4mqk5eesv","","null","","<p style=""color:green;""><b>Correct!</b></p>","","null","","","","","","","","","","","","","","","","","","","","","","","","","","","","","","","","","","","","","","","","","",""
"audio-keyboard-response","129","275713","0.0-4.0-1.0-0.36","2","1","vja2xd4mqk5eesv","","null","","sounds/induction/left/me_SWS.wav","","null","","","","","","","","","","","","","","","","","","","","","","","","","","","","","","","","","","","","","","","","","",""
"html-button-response","130","277237","0.0-4.0-1.0-1.36","2","1","vja2xd4mqk5eesv","","1531.9000000357628","","What sound did you hear?","1","","","1","INDUCTION-JUDGMENT","left","1","","","","","","","","","","","","","","","","","","","","","","","","","","","","","","","","","","","","",""
"html-keyboard-response","131","278243","0.0-4.0-1.0-2.36","2","1","vja2xd4mqk5eesv","","null","","<p style=""color:green;""><b>Correct!</b></p>","","null","","","","","","","","","","","","","","","","","","","","","","","","","","","","","","","","","","","","","","","","","",""
"audio-keyboard-response","132","279044","0.0-4.0-1.0-0.37","2","1","vja2xd4mqk5eesv","","null","","sounds/induction/right/su_SWS.wav","","null","","","","","","","","","","","","","","","","","","","","","","","","","","","","","","","","","","","","","","","","","",""
"html-button-response","133","281235","0.0-4.0-1.0-1.37","2","1","vja2xd4mqk5eesv","","2189.2999999523163","","What sound did you hear?","1","","","1","INDUCTION-JUDGMENT","right","1","","","","","","","","","","","","","","","","","","","","","","","","","","","","","","","","","","","","",""
"html-keyboard-response","134","282241","0.0-4.0-1.0-2.37","2","1","vja2xd4mqk5eesv","","null","","<p style=""color:green;""><b>Correct!</b></p>","","null","","","","","","","","","","","","","","","","","","","","","","","","","","","","","","","","","","","","","","","","","",""
"audio-keyboard-response","135","283042","0.0-4.0-1.0-0.38","2","1","vja2xd4mqk5eesv","","null","","sounds/induction/right/fe_SWS.wav","","null","","","","","","","","","","","","","","","","","","","","","","","","","","","","","","","","","","","","","","","","","",""
"html-button-response","136","285125","0.0-4.0-1.0-1.38","2","1","vja2xd4mqk5eesv","","2082.399999976158","","What sound did you hear?","0","","","1","INDUCTION-JUDGMENT","right","0","","","","","","","","","","","","","","","","","","","","","","","","","","","","","","","","","","","","",""
"html-keyboard-response","137","286131","0.0-4.0-1.0-2.38","2","1","vja2xd4mqk5eesv","","null","","<p style=""color:green;""><b>Correct!</b></p>","","null","","","","","","","","","","","","","","","","","","","","","","","","","","","","","","","","","","","","","","","","","",""
"audio-keyboard-response","138","286953","0.0-4.0-1.0-0.39","2","1","vja2xd4mqk5eesv","","null","","sounds/induction/left/ru_SWS.wav","","null","","","","","","","","","","","","","","","","","","","","","","","","","","","","","","","","","","","","","","","","","",""
"html-button-response","139","288089","0.0-4.0-1.0-1.39","2","1","vja2xd4mqk5eesv","","1135","","What sound did you hear?","0","","","1","INDUCTION-JUDGMENT","left","0","","","","","","","","","","","","","","","","","","","","","","","","","","","","","","","","","","","","",""
"html-keyboard-response","140","289103","0.0-4.0-1.0-2.39","2","1","vja2xd4mqk5eesv","","null","","<p style=""color:green;""><b>Correct!</b></p>","","null","","","","","","","","","","","","","","","","","","","","","","","","","","","","","","","","","","","","","","","","","",""
"audio-keyboard-response","141","289913","0.0-4.0-1.0-0.40","2","1","vja2xd4mqk5eesv","","null","","sounds/induction/right/ru_SWS.wav","","null","","","","","","","","","","","","","","","","","","","","","","","","","","","","","","","","","","","","","","","","","",""
"html-button-response","142","291491","0.0-4.0-1.0-1.40","2","1","vja2xd4mqk5eesv","","1576.1000000238419","","What sound did you hear?","1","","","1","INDUCTION-JUDGMENT","right","1","","","","","","","","","","","","","","","","","","","","","","","","","","","","","","","","","","","","",""
"html-keyboard-response","143","292497","0.0-4.0-1.0-2.40","2","1","vja2xd4mqk5eesv","","null","","<p style=""color:green;""><b>Correct!</b></p>","","null","","","","","","","","","","","","","","","","","","","","","","","","","","","","","","","","","","","","","","","","","",""
"audio-keyboard-response","144","293304","0.0-4.0-1.0-0.41","2","1","vja2xd4mqk5eesv","","null","","sounds/induction/left/fu_SWS.wav","","null","","","","","","","","","","","","","","","","","","","","","","","","","","","","","","","","","","","","","","","","","",""
"html-button-response","145","295177","0.0-4.0-1.0-1.41","2","1","vja2xd4mqk5eesv","","1870.2999999523163","","What sound did you hear?","1","","","1","INDUCTION-JUDGMENT","left","1","","","","","","","","","","","","","","","","","","","","","","","","","","","","","","","","","","","","",""
"html-keyboard-response","146","296181","0.0-4.0-1.0-2.41","2","1","vja2xd4mqk5eesv","","null","","<p style=""color:green;""><b>Correct!</b></p>","","null","","","","","","","","","","","","","","","","","","","","","","","","","","","","","","","","","","","","","","","","","",""
"audio-keyboard-response","147","296994","0.0-4.0-1.0-0.42","2","1","vja2xd4mqk5eesv","","null","","sounds/induction/right/me_SWS.wav","","null","","","","","","","","","","","","","","","","","","","","","","","","","","","","","","","","","","","","","","","","","",""
"html-button-response","148","298150","0.0-4.0-1.0-1.42","2","1","vja2xd4mqk5eesv","","1153.300000011921","","What sound did you hear?","0","","","1","INDUCTION-JUDGMENT","right","0","","","","","","","","","","","","","","","","","","","","","","","","","","","","","","","","","","","","",""
"html-keyboard-response","149","299171","0.0-4.0-1.0-2.42","2","1","vja2xd4mqk5eesv","","null","","<p style=""color:green;""><b>Correct!</b></p>","","null","","","","","","","","","","","","","","","","","","","","","","","","","","","","","","","","","","","","","","","","","",""
"audio-keyboard-response","150","299983","0.0-4.0-1.0-0.43","2","1","vja2xd4mqk5eesv","","null","","sounds/induction/right/su_SWS.wav","","null","","","","","","","","","","","","","","","","","","","","","","","","","","","","","","","","","","","","","","","","","",""
"html-button-response","151","301416","0.0-4.0-1.0-1.43","2","1","vja2xd4mqk5eesv","","1432.2000000476837","","What sound did you hear?","1","","","1","INDUCTION-JUDGMENT","right","1","","","","","","","","","","","","","","","","","","","","","","","","","","","","","","","","","","","","",""
"html-keyboard-response","152","302420","0.0-4.0-1.0-2.43","2","1","vja2xd4mqk5eesv","","null","","<p style=""color:green;""><b>Correct!</b></p>","","null","","","","","","","","","","","","","","","","","","","","","","","","","","","","","","","","","","","","","","","","","",""
"audio-keyboard-response","153","303232","0.0-4.0-1.0-0.44","2","1","vja2xd4mqk5eesv","","null","","sounds/induction/left/ko_SWS.wav","","null","","","","","","","","","","","","","","","","","","","","","","","","","","","","","","","","","","","","","","","","","",""
"html-button-response","154","305716","0.0-4.0-1.0-1.44","2","1","vja2xd4mqk5eesv","","2481.900000035763","","What sound did you hear?","1","","","1","INDUCTION-JUDGMENT","left","1","","","","","","","","","","","","","","","","","","","","","","","","","","","","","","","","","","","","",""
"html-keyboard-response","155","306732","0.0-4.0-1.0-2.44","2","1","vja2xd4mqk5eesv","","null","","<p style=""color:green;""><b>Correct!</b></p>","","null","","","","","","","","","","","","","","","","","","","","","","","","","","","","","","","","","","","","","","","","","",""
"audio-keyboard-response","156","307543","0.0-4.0-1.0-0.45","2","1","vja2xd4mqk5eesv","","null","","sounds/induction/left/ti_SWS.wav","","null","","","","","","","","","","","","","","","","","","","","","","","","","","","","","","","","","","","","","","","","","",""
"html-button-response","157","309674","0.0-4.0-1.0-1.45","2","1","vja2xd4mqk5eesv","","2129.300000011921","","What sound did you hear?","0","","","1","INDUCTION-JUDGMENT","left","0","","","","","","","","","","","","","","","","","","","","","","","","","","","","","","","","","","","","",""
"html-keyboard-response","158","310679","0.0-4.0-1.0-2.45","2","1","vja2xd4mqk5eesv","","null","","<p style=""color:green;""><b>Correct!</b></p>","","null","","","","","","","","","","","","","","","","","","","","","","","","","","","","","","","","","","","","","","","","","",""
"audio-keyboard-response","159","311472","0.0-4.0-1.0-0.46","2","1","vja2xd4mqk5eesv","","null","","sounds/induction/left/ti_SWS.wav","","null","","","","","","","","","","","","","","","","","","","","","","","","","","","","","","","","","","","","","","","","","",""
"html-button-response","160","312647","0.0-4.0-1.0-1.46","2","1","vja2xd4mqk5eesv","","1173.5999999642372","","What sound did you hear?","0","","","1","INDUCTION-JUDGMENT","left","0","","","","","","","","","","","","","","","","","","","","","","","","","","","","","","","","","","","","",""
"html-keyboard-response","161","313651","0.0-4.0-1.0-2.46","2","1","vja2xd4mqk5eesv","","null","","<p style=""color:green;""><b>Correct!</b></p>","","null","","","","","","","","","","","","","","","","","","","","","","","","","","","","","","","","","","","","","","","","","",""
"audio-keyboard-response","162","314463","0.0-4.0-1.0-0.47","2","1","vja2xd4mqk5eesv","","null","","sounds/induction/right/ta_SWS.wav","","null","","","","","","","","","","","","","","","","","","","","","","","","","","","","","","","","","","","","","","","","","",""
"html-button-response","163","316489","0.0-4.0-1.0-1.47","2","1","vja2xd4mqk5eesv","","2023.8999999761581","","What sound did you hear?","1","","","1","INDUCTION-JUDGMENT","right","1","","","","","","","","","","","","","","","","","","","","","","","","","","","","","","","","","","","","",""
"html-keyboard-response","164","317491","0.0-4.0-1.0-2.47","2","1","vja2xd4mqk5eesv","","null","","<p style=""color:green;""><b>Correct!</b></p>","","null","","","","","","","","","","","","","","","","","","","","","","","","","","","","","","","","","","","","","","","","","",""
"html-button-response","165","331698","0.0-5.0-0.0","2","1","vja2xd4mqk5eesv","","13685.599999964237","","<p>Thank you for your answers.</p><p>You will now listen to similar sounds. The main difference is that the sounds will be longer and will make up complete sentences.</p><p>Please listen carefully to each sentence. After each sentence, you will be asked to type back what you heard to the best of your ability. After you provide your response, you will be given feedback about the correct answer.</p><p>There are 10 sentences in total.","0","","","","","","","","","","","","","","","","","","","","","","","","","","","","","","","","","","","","","","","","","","",""
"audio-keyboard-response","166","334823","0.0-5.0-1.0-0.0","2","1","vja2xd4mqk5eesv","","null","","sounds/sentences/left/14_01_cfSWS.wav","","null","","","","","","","","","","","","","","","","","","","","","","","","","","","","","","","","","","","","","","","","","",""
"sentence-resp","167","340625","0.0-5.0-1.0-1.0","2","1","vja2xd4mqk5eesv","","5800","","","","","","","SWS-SENT-RESPONSE","","","{""Q0"":""""}","A cramp is no small danger on a swim.","cramp,no,small,danger,swim","","0","0","0","0","0","0","0","","","","","","","","","","","","","","","","","","","","","","","","","",""
"html-keyboard-response","168","341909","0.0-5.0-1.0-2.0","2","1","vja2xd4mqk5eesv","","null","","","","null","","","","","","","","","","","","","","","","","","","","","","","","","","","","","","","","","","","","","","","","","",""
"audio-keyboard-response","169","344530","0.0-5.0-1.0-3.0","2","1","vja2xd4mqk5eesv","","null","","sounds/sentences/left/14_01_cfSWS.wav","","null","","","","","","","","","","","","","","","","","","","","","","","","","","","","","","","","","","","","","","","","","",""
"html-keyboard-response","170","345549","0.0-5.0-1.0-4.0","2","1","vja2xd4mqk5eesv","","null","","","","null","","","","","","","","","","","","","","","","","","","","","","","","","","","","","","","","","","","","","","","","","",""
"html-button-response","171","347732","0.0-5.0-1.0-5.0","2","1","vja2xd4mqk5eesv","","1663","","<p>Press the button below when you are ready to continue.</p>","0","","","","","","","","","","","","","","","","","","","","","","","","","","","","","","","","","","","","","","","","","","",""
"audio-keyboard-response","172","350490","0.0-5.0-1.0-0.1","2","1","vja2xd4mqk5eesv","","null","","sounds/sentences/right/14_06_cfSWS.wav","","null","","","","","","","","","","","","","","","","","","","","","","","","","","","","","","","","","","","","","","","","","",""
"sentence-resp","173","367649","0.0-5.0-1.0-1.1","2","1","vja2xd4mqk5eesv","","17156","","","","","","","SWS-SENT-RESPONSE","","","{""Q0"":""a cramp is much smaller in gym\n""}","Bring your problems to the wise chief.","bring,your,problems,wise,chief","A CRAMP IS MUCH SMALLER IN GYM ","0","0","0","0","0","0","0","","","","","","","","","","","","","","","","","","","","","","","","","",""
"html-keyboard-response","174","368924","0.0-5.0-1.0-2.1","2","1","vja2xd4mqk5eesv","","null","","","","null","","","","","","","","","","","","","","","","","","","","","","","","","","","","","","","","","","","","","","","","","",""
"audio-keyboard-response","175","371171","0.0-5.0-1.0-3.1","2","1","vja2xd4mqk5eesv","","null","","sounds/sentences/right/14_06_cfSWS.wav","","null","","","","","","","","","","","","","","","","","","","","","","","","","","","","","","","","","","","","","","","","","",""
"html-keyboard-response","176","372189","0.0-5.0-1.0-4.1","2","1","vja2xd4mqk5eesv","","null","","","","null","","","","","","","","","","","","","","","","","","","","","","","","","","","","","","","","","","","","","","","","","",""
"html-button-response","177","407494","0.0-5.0-1.0-5.1","2","1","vja2xd4mqk5eesv","","34803.10000002384","","<p>Press the button below when you are ready to continue.</p>","0","","","","","","","","","","","","","","","","","","","","","","","","","","","","","","","","","","","","","","","","","","",""
"audio-keyboard-response","178","410311","0.0-5.0-1.0-0.2","2","1","vja2xd4mqk5eesv","","null","","sounds/sentences/right/14_09_cfSWS.wav","","null","","","","","","","","","","","","","","","","","","","","","","","","","","","","","","","","","","","","","","","","","",""
"sentence-resp","179","419907","0.0-5.0-1.0-1.2","2","1","vja2xd4mqk5eesv","","9593","","","","","","","SWS-SENT-RESPONSE","","","{""Q0"":""""}","We frown when events take a bad turn.","frown,events,take,bad,turn","","0","0","0","0","0","0","0","","","","","","","","","","","","","","","","","","","","","","","","","",""
"html-keyboard-response","180","421180","0.0-5.0-1.0-2.2","2","1","vja2xd4mqk5eesv","","null","","","","null","","","","","","","","","","","","","","","","","","","","","","","","","","","","","","","","","","","","","","","","","",""
"audio-keyboard-response","181","423412","0.0-5.0-1.0-3.2","2","1","vja2xd4mqk5eesv","","null","","sounds/sentences/right/14_09_cfSWS.wav","","null","","","","","","","","","","","","","","","","","","","","","","","","","","","","","","","","","","","","","","","","","",""
"html-keyboard-response","182","424430","0.0-5.0-1.0-4.2","2","1","vja2xd4mqk5eesv","","null","","","","null","","","","","","","","","","","","","","","","","","","","","","","","","","","","","","","","","","","","","","","","","",""
"html-button-response","183","429635","0.0-5.0-1.0-5.2","2","1","vja2xd4mqk5eesv","","4694.600000023842","","<p>Press the button below when you are ready to continue.</p>","0","","","","","","","","","","","","","","","","","","","","","","","","","","","","","","","","","","","","","","","","","","",""
"audio-keyboard-response","184","432471","0.0-5.0-1.0-0.3","2","1","vja2xd4mqk5eesv","","null","","sounds/sentences/left/14_02_cfSWS.wav","","null","","","","","","","","","","","","","","","","","","","","","","","","","","","","","","","","","","","","","","","","","",""
"sentence-resp","185","444329","0.0-5.0-1.0-1.3","2","1","vja2xd4mqk5eesv","","11854","","","","","","","SWS-SENT-RESPONSE","","","{""Q0"":""we cannot make certain things\n""}","He said the same phrase thirty times.","said,same,phrase,thirty,times","WE CANNOT MAKE CERTAIN THINGS ","0","0","0","0","0","0","0","","","","","","","","","","","","","","","","","","","","","","","","","",""
"html-keyboard-response","186","445607","0.0-5.0-1.0-2.3","2","1","vja2xd4mqk5eesv","","null","","","","null","","","","","","","","","","","","","","","","","","","","","","","","","","","","","","","","","","","","","","","","","",""
"audio-keyboard-response","187","447921","0.0-5.0-1.0-3.3","2","1","vja2xd4mqk5eesv","","null","","sounds/sentences/left/14_02_cfSWS.wav","","null","","","","","","","","","","","","","","","","","","","","","","","","","","","","","","","","","","","","","","","","","",""
"html-keyboard-response","188","448930","0.0-5.0-1.0-4.3","2","1","vja2xd4mqk5eesv","","null","","","","null","","","","","","","","","","","","","","","","","","","","","","","","","","","","","","","","","","","","","","","","","",""
"html-button-response","189","450947","0.0-5.0-1.0-5.3","2","1","vja2xd4mqk5eesv","","1506.699999988079","","<p>Press the button below when you are ready to continue.</p>","0","","","","","","","","","","","","","","","","","","","","","","","","","","","","","","","","","","","","","","","","","","",""
"audio-keyboard-response","190","453721","0.0-5.0-1.0-0.4","2","1","vja2xd4mqk5eesv","","null","","sounds/sentences/right/14_08_cfSWS.wav","","null","","","","","","","","","","","","","","","","","","","","","","","","","","","","","","","","","","","","","","","","","",""
"sentence-resp","191","466176","0.0-5.0-1.0-1.4","2","1","vja2xd4mqk5eesv","","12453","","","","","","","SWS-SENT-RESPONSE","","","{""Q0"":""i dont know what you heard\n""}","Clothes and lodging are free to new men.","clothes,lodging,free,new,men","I DONT KNOW WHAT YOU HEARD ","0","0","0","0","0","0","0","","","","","","","","","","","","","","","","","","","","","","","","","",""
"html-keyboard-response","192","467434","0.0-5.0-1.0-2.4","2","1","vja2xd4mqk5eesv","","null","","","","null","","","","","","","","","","","","","","","","","","","","","","","","","","","","","","","","","","","","","","","","","",""
"audio-keyboard-response","193","469690","0.0-5.0-1.0-3.4","2","1","vja2xd4mqk5eesv","","null","","sounds/sentences/right/14_08_cfSWS.wav","","null","","","","","","","","","","","","","","","","","","","","","","","","","","","","","","","","","","","","","","","","","",""
"html-keyboard-response","194","470709","0.0-5.0-1.0-4.4","2","1","vja2xd4mqk5eesv","","null","","","","null","","","","","","","","","","","","","","","","","","","","","","","","","","","","","","","","","","","","","","","","","",""
"html-button-response","195","473320","0.0-5.0-1.0-5.4","2","1","vja2xd4mqk5eesv","","2101.300000011921","","<p>Press the button below when you are ready to continue.</p>","0","","","","","","","","","","","","","","","","","","","","","","","","","","","","","","","","","","","","","","","","","","",""
"audio-keyboard-response","196","475909","0.0-5.0-1.0-0.5","2","1","vja2xd4mqk5eesv","","null","","sounds/sentences/left/14_03_cfSWS.wav","","null","","","","","","","","","","","","","","","","","","","","","","","","","","","","","","","","","","","","","","","","","",""
"sentence-resp","197","483516","0.0-5.0-1.0-1.5","2","1","vja2xd4mqk5eesv","","7604","","","","","","","SWS-SENT-RESPONSE","","","{""Q0"":""im sorry please\n""}","Pluck the bright rose without leaves.","pluck,bright,rose,without,leaves","IM SORRY PLEASE ","0","0","0","0","0","0","0","","","","","","","","","","","","","","","","","","","","","","","","","",""
"html-keyboard-response","198","484788","0.0-5.0-1.0-2.5","2","1","vja2xd4mqk5eesv","","null","","","","null","","","","","","","","","","","","","","","","","","","","","","","","","","","","","","","","","","","","","","","","","",""
"audio-keyboard-response","199","486870","0.0-5.0-1.0-3.5","2","1","vja2xd4mqk5eesv","","null","","sounds/sentences/left/14_03_cfSWS.wav","","null","","","","","","","","","","","","","","","","","","","","","","","","","","","","","","","","","","","","","","","","","",""
"html-keyboard-response","200","487878","0.0-5.0-1.0-4.5","2","1","vja2xd4mqk5eesv","","null","","","","null","","","","","","","","","","","","","","","","","","","","","","","","","","","","","","","","","","","","","","","","","",""
"html-button-response","201","489783","0.0-5.0-1.0-5.5","2","1","vja2xd4mqk5eesv","","1394.5","","<p>Press the button below when you are ready to continue.</p>","0","","","","","","","","","","","","","","","","","","","","","","","","","","","","","","","","","","","","","","","","","","",""
"audio-keyboard-response","202","492779","0.0-5.0-1.0-0.6","2","1","vja2xd4mqk5eesv","","null","","sounds/sentences/left/14_05_cfSWS.wav","","null","","","","","","","","","","","","","","","","","","","","","","","","","","","","","","","","","","","","","","","","","",""
"sentence-resp","203","502633","0.0-5.0-1.0-1.6","2","1","vja2xd4mqk5eesv","","9852","","","","","","","SWS-SENT-RESPONSE","","","{""Q0"":""do you see the arrows\n""}","The glow deepened in the eyes of the sweet girl.","glow,deepened,eyes,sweet,girl","DO YOU SEE THE ARROWS ","0","0","0","0","0","0","0","","","","","","","","","","","","","","","","","","","","","","","","","",""
"html-keyboard-response","204","503919","0.0-5.0-1.0-2.6","2","1","vja2xd4mqk5eesv","","null","","","","null","","","","","","","","","","","","","","","","","","","","","","","","","","","","","","","","","","","","","","","","","",""
"audio-keyboard-response","205","506400","0.0-5.0-1.0-3.6","2","1","vja2xd4mqk5eesv","","null","","sounds/sentences/left/14_05_cfSWS.wav","","null","","","","","","","","","","","","","","","","","","","","","","","","","","","","","","","","","","","","","","","","","",""
"html-keyboard-response","206","507409","0.0-5.0-1.0-4.6","2","1","vja2xd4mqk5eesv","","null","","","","null","","","","","","","","","","","","","","","","","","","","","","","","","","","","","","","","","","","","","","","","","",""
"html-button-response","207","509645","0.0-5.0-1.0-5.6","2","1","vja2xd4mqk5eesv","","1726.300000011921","","<p>Press the button below when you are ready to continue.</p>","0","","","","","","","","","","","","","","","","","","","","","","","","","","","","","","","","","","","","","","","","","","",""
"audio-keyboard-response","208","512220","0.0-5.0-1.0-0.7","2","1","vja2xd4mqk5eesv","","null","","sounds/sentences/left/14_04_cfSWS.wav","","null","","","","","","","","","","","","","","","","","","","","","","","","","","","","","","","","","","","","","","","","","",""
"sentence-resp","209","525100","0.0-5.0-1.0-1.7","2","1","vja2xd4mqk5eesv","","12879","","","","","","","SWS-SENT-RESPONSE","","","{""Q0"":""we dont know in the end\n""}","Two plus seven is less than ten.","two,plus,seven,less,ten","WE DONT KNOW IN THE END ","0","0","0","0","0","0","0","","","","","","","","","","","","","","","","","","","","","","","","","",""
"html-keyboard-response","210","526368","0.0-5.0-1.0-2.7","2","1","vja2xd4mqk5eesv","","null","","","","null","","","","","","","","","","","","","","","","","","","","","","","","","","","","","","","","","","","","","","","","","",""
"audio-keyboard-response","211","528419","0.0-5.0-1.0-3.7","2","1","vja2xd4mqk5eesv","","null","","sounds/sentences/left/14_04_cfSWS.wav","","null","","","","","","","","","","","","","","","","","","","","","","","","","","","","","","","","","","","","","","","","","",""
"html-keyboard-response","212","529438","0.0-5.0-1.0-4.7","2","1","vja2xd4mqk5eesv","","null","","","","null","","","","","","","","","","","","","","","","","","","","","","","","","","","","","","","","","","","","","","","","","",""
"html-button-response","213","538460","0.0-5.0-1.0-5.7","2","1","vja2xd4mqk5eesv","","8511.199999988079","","<p>Press the button below when you are ready to continue.</p>","0","","","","","","","","","","","","","","","","","","","","","","","","","","","","","","","","","","","","","","","","","","",""
"audio-keyboard-response","214","541349","0.0-5.0-1.0-0.8","2","1","vja2xd4mqk5eesv","","null","","sounds/sentences/right/14_07_cfSWS.wav","","null","","","","","","","","","","","","","","","","","","","","","","","","","","","","","","","","","","","","","","","","","",""
"sentence-resp","215","552087","0.0-5.0-1.0-1.8","2","1","vja2xd4mqk5eesv","","10736","","","","","","","SWS-SENT-RESPONSE","","","{""Q0"":""please wash your hands\n""}","Write a fond note to the friend you cherish.","write,fond,note,friend,cherish","PLEASE WASH YOUR HANDS ","0","0","0","0","0","0","0","","","","","","","","","","","","","","","","","","","","","","","","","",""
"html-keyboard-response","216","553358","0.0-5.0-1.0-2.8","2","1","vja2xd4mqk5eesv","","null","","","","null","","","","","","","","","","","","","","","","","","","","","","","","","","","","","","","","","","","","","","","","","",""
"audio-keyboard-response","217","555738","0.0-5.0-1.0-3.8","2","1","vja2xd4mqk5eesv","","null","","sounds/sentences/right/14_07_cfSWS.wav","","null","","","","","","","","","","","","","","","","","","","","","","","","","","","","","","","","","","","","","","","","","",""
"html-keyboard-response","218","556759","0.0-5.0-1.0-4.8","2","1","vja2xd4mqk5eesv","","null","","","","null","","","","","","","","","","","","","","","","","","","","","","","","","","","","","","","","","","","","","","","","","",""
"html-button-response","219","559674","0.0-5.0-1.0-5.8","2","1","vja2xd4mqk5eesv","","2405.900000035763","","<p>Press the button below when you are ready to continue.</p>","0","","","","","","","","","","","","","","","","","","","","","","","","","","","","","","","","","","","","","","","","","","",""
"audio-keyboard-response","220","562709","0.0-5.0-1.0-0.9","2","1","vja2xd4mqk5eesv","","null","","sounds/sentences/right/14_10_cfSWS.wav","","null","","","","","","","","","","","","","","","","","","","","","","","","","","","","","","","","","","","","","","","","","",""
"sentence-resp","221","564508","0.0-5.0-1.0-1.9","2","1","vja2xd4mqk5eesv","","1797","","","","","","","SWS-SENT-RESPONSE","","","{""Q0"":""""}","Port is a strong wine with a smoky taste.","port,strong,wine,smoky,taste","","0","0","0","0","0","0","0","","","","","","","","","","","","","","","","","","","","","","","","","",""
"html-keyboard-response","222","565798","0.0-5.0-1.0-2.9","2","1","vja2xd4mqk5eesv","","null","","","","null","","","","","","","","","","","","","","","","","","","","","","","","","","","","","","","","","","","","","","","","","",""
"audio-keyboard-response","223","568319","0.0-5.0-1.0-3.9","2","1","vja2xd4mqk5eesv","","null","","sounds/sentences/right/14_10_cfSWS.wav","","null","","","","","","","","","","","","","","","","","","","","","","","","","","","","","","","","","","","","","","","","","",""
"html-keyboard-response","224","569328","0.0-5.0-1.0-4.9","2","1","vja2xd4mqk5eesv","","null","","","","null","","","","","","","","","","","","","","","","","","","","","","","","","","","","","","","","","","","","","","","","","",""
"html-button-response","225","580074","0.0-5.0-1.0-5.9","2","1","vja2xd4mqk5eesv","","10226.5","","<p>Press the button below when you are ready to continue.</p>","0","","","","","","","","","","","","","","","","","","","","","","","","","","","","","","","","","","","","","","","","","","",""
"html-keyboard-response","226","595959","0.0-6.0-0.0","2","1","vja2xd4mqk5eesv","","15391.699999988079","","<p>In this part of the study, you will hear sounds similar to those you just heard.</p><p>Please focus on these sounds, as you may be asked questions about them later.</p><p>Occasionally, the sounds will pause for up to two seconds. When this happens, please press SPACEBAR as quickly as you can.</br>This helps ensure that you are paying attention to the sounds.</p><p>This part of the study will take about 12 minutes to complete, and you will be given the opportunity to take a couple of short breaks every few minutes.</p><p><strong>Press SPACEBAR to begin</strong></p>","","32","","","","","","","","","","","","","","","","","","","","","","","","","","","","","","","","","","","","","","","","","",""
"html-keyboard-response","227","596966","0.0-6.0-1.0-0.0","2","1","vja2xd4mqk5eesv","","null","","<p style=""font-size: 40px;"">+</p>","","null","","","","","","","","","","","","","","","","","","","","","","","","","","","","","","","","","","","","","","","","","",""
"html-keyboard-response","228","781958","0.0-6.0-1.0-1.0","2","1","vja2xd4mqk5eesv","","null","","","","null","","","SL-TRAIN","","","","","","","","","","","","","","2","null","null","sounds/B/TRAIN/SEQ__08.mp3","0","","","","","","","","","","","","","","","","","","","","",""
"html-button-response","229","785669","0.0-6.0-1.0-2.0","2","1","vja2xd4mqk5eesv","","3709.199999988079","","<p>You may take a short break if you wish.</p>","0","","","","","","","","","","","","","","","","","","","","","","","","","","","","","","","","","","","","","","","","","","",""
"html-keyboard-response","230","786676","0.0-6.0-1.0-3.0","2","1","vja2xd4mqk5eesv","","null","","<p style=""font-size: 40px;"">+</p>","","null","","","","","","","","","","","","","","","","","","","","","","","","","","","","","","","","","","","","","","","","","",""
"html-keyboard-response","231","971663","0.0-6.0-1.0-4.0","2","1","vja2xd4mqk5eesv","","null","","","","null","","","SL-TRAIN","","","","","","","","","","","","","","2","null","null","sounds/B/TRAIN/SEQ__01.mp3","0","","","","","","","","","","","","","","","","","","","","",""
"html-button-response","232","975003","0.0-6.0-1.0-5.0","2","1","vja2xd4mqk5eesv","","3336.800000011921","","<p>You may take a short break if you wish.</p>","0","","","","","","","","","","","","","","","","","","","","","","","","","","","","","","","","","","","","","","","","","","",""
"html-keyboard-response","233","976012","0.0-6.0-1.0-6.0","2","1","vja2xd4mqk5eesv","","null","","<p style=""font-size: 40px;"">+</p>","","null","","","","","","","","","","","","","","","","","","","","","","","","","","","","","","","","","","","","","","","","","",""
"html-keyboard-response","234","1160999","0.0-6.0-1.0-7.0","2","1","vja2xd4mqk5eesv","","null","","","","null","","","SL-TRAIN","","","","","","","","","","","","","","2","null","null","sounds/B/TRAIN/SEQ__07.mp3","0","","","","","","","","","","","","","","","","","","","","",""
"html-button-response","235","1166326","0.0-6.0-1.0-8.0","2","1","vja2xd4mqk5eesv","","5325","","<p>You may take a short break if you wish.</p>","0","","","","","","","","","","","","","","","","","","","","","","","","","","","","","","","","","","","","","","","","","","",""
"html-keyboard-response","236","1167328","0.0-6.0-1.0-9.0","2","1","vja2xd4mqk5eesv","","null","","<p style=""font-size: 40px;"">+</p>","","null","","","","","","","","","","","","","","","","","","","","","","","","","","","","","","","","","","","","","","","","","",""
"html-keyboard-response","237","1352316","0.0-6.0-1.0-10.0","2","1","vja2xd4mqk5eesv","","null","","","","null","","","SL-TRAIN","","","","","","","","","","","","","","2","null","null","sounds/B/TRAIN/SEQ__09.mp3","0","","","","","","","","","","","","","","","","","","","","",""
"html-button-response","238","1354881","0.0-6.0-1.0-11.0","2","1","vja2xd4mqk5eesv","","2563.699999988079","","<p>You may take a short break if you wish.</p>","0","","","","","","","","","","","","","","","","","","","","","","","","","","","","","","","","","","","","","","","","","","",""
"html-button-response","239","1362676","0.0-7.0-0.0","2","1","vja2xd4mqk5eesv","","7793.600000023842","","<p>Welcome to the second part of the study. This is a <u>familiarity task</u>.</p><p>You will now hear short sounds and will be asked to rate how familiar they sound to you <b>based on what you heard in the previous part of the study</b>.</p><p>You will rate 12 sounds in total.</p>","0","","","","","","","","","","","","","","","","","","","","","","","","","","","","","","","","","","","","","","","","","","",""
"html-keyboard-response","240","1363678","0.0-7.0-1.0-0.0","2","1","vja2xd4mqk5eesv","","null","","","","null","","","","","","","","","","","","","","","","","","","","","","","","","","","","","","","","","","","","","","","","","",""
"audio-keyboard-response","241","1364633","0.0-7.0-1.0-1.0","2","1","vja2xd4mqk5eesv","","null","","sounds/B/FAM/P004.mp3","","null","","","","","","","","","","","","","","","","","","","","","","","","","","","","","","","","","","","","","","","","","",""
"html-keyboard-response","242","1381952","0.0-7.0-1.0-2.0","2","1","vja2xd4mqk5eesv","","16797.100000023842","","<p>How familiar did this sound to you?</p><p>1&nbsp;&nbsp;&nbsp;&nbsp;&nbsp;&nbsp;&nbsp;&nbsp;&nbsp;&nbsp;&nbsp;&nbsp;&nbsp;&nbsp;&nbsp;&nbsp;&nbsp;&nbsp;&nbsp;2&nbsp;&nbsp;&nbsp;&nbsp;&nbsp;&nbsp;&nbsp;&nbsp;&nbsp;&nbsp;&nbsp;&nbsp;&nbsp;&nbsp;&nbsp;&nbsp;&nbsp;&nbsp;&nbsp;3&nbsp;&nbsp;&nbsp;&nbsp;&nbsp;&nbsp;&nbsp;&nbsp;&nbsp;&nbsp;&nbsp;&nbsp;&nbsp;&nbsp;&nbsp;&nbsp;&nbsp;&nbsp;&nbsp;4</p><p style=""font-size:14px"">Not at all familiar&nbsp;&nbsp;&nbsp;&nbsp;A little familiar&nbsp;&nbsp;&nbsp;Moderately familiar&nbsp;&nbsp;&nbsp;Extremely familiar</p><p>(press the corresponding number on your keyboard)</p>","","51","","","FAM-RESPONSE","","","","","","","","","","","","","","","","","","","sounds/B/FAM/P004.mp3","partword","","","","","","","","","","","","","","","","","","",""
"html-keyboard-response","243","1383993","0.0-7.0-1.0-0.1","2","1","vja2xd4mqk5eesv","","null","","","","null","","","","","","","","","","","","","","","","","","","","","","","","","","","","","","","","","","","","","","","","","",""
"audio-keyboard-response","244","1384943","0.0-7.0-1.0-1.1","2","1","vja2xd4mqk5eesv","","null","","sounds/B/FAM/N003.mp3","","null","","","","","","","","","","","","","","","","","","","","","","","","","","","","","","","","","","","","","","","","","",""
"html-keyboard-response","245","1387877","0.0-7.0-1.0-2.1","2","1","vja2xd4mqk5eesv","","2423.600000023842","","<p>How familiar did this sound to you?</p><p>1&nbsp;&nbsp;&nbsp;&nbsp;&nbsp;&nbsp;&nbsp;&nbsp;&nbsp;&nbsp;&nbsp;&nbsp;&nbsp;&nbsp;&nbsp;&nbsp;&nbsp;&nbsp;&nbsp;2&nbsp;&nbsp;&nbsp;&nbsp;&nbsp;&nbsp;&nbsp;&nbsp;&nbsp;&nbsp;&nbsp;&nbsp;&nbsp;&nbsp;&nbsp;&nbsp;&nbsp;&nbsp;&nbsp;3&nbsp;&nbsp;&nbsp;&nbsp;&nbsp;&nbsp;&nbsp;&nbsp;&nbsp;&nbsp;&nbsp;&nbsp;&nbsp;&nbsp;&nbsp;&nbsp;&nbsp;&nbsp;&nbsp;4</p><p style=""font-size:14px"">Not at all familiar&nbsp;&nbsp;&nbsp;&nbsp;A little familiar&nbsp;&nbsp;&nbsp;Moderately familiar&nbsp;&nbsp;&nbsp;Extremely familiar</p><p>(press the corresponding number on your keyboard)</p>","","52","","","FAM-RESPONSE","","","","","","","","","","","","","","","","","","","sounds/B/FAM/N003.mp3","nonword","","","","","","","","","","","","","","","","","","",""
"html-keyboard-response","246","1389912","0.0-7.0-1.0-0.2","2","1","vja2xd4mqk5eesv","","null","","","","null","","","","","","","","","","","","","","","","","","","","","","","","","","","","","","","","","","","","","","","","","",""
"audio-keyboard-response","247","1390863","0.0-7.0-1.0-1.2","2","1","vja2xd4mqk5eesv","","null","","sounds/B/FAM/W003.mp3","","null","","","","","","","","","","","","","","","","","","","","","","","","","","","","","","","","","","","","","","","","","",""
"html-keyboard-response","248","1391858","0.0-7.0-1.0-2.2","2","1","vja2xd4mqk5eesv","","474.2999999523163","","<p>How familiar did this sound to you?</p><p>1&nbsp;&nbsp;&nbsp;&nbsp;&nbsp;&nbsp;&nbsp;&nbsp;&nbsp;&nbsp;&nbsp;&nbsp;&nbsp;&nbsp;&nbsp;&nbsp;&nbsp;&nbsp;&nbsp;2&nbsp;&nbsp;&nbsp;&nbsp;&nbsp;&nbsp;&nbsp;&nbsp;&nbsp;&nbsp;&nbsp;&nbsp;&nbsp;&nbsp;&nbsp;&nbsp;&nbsp;&nbsp;&nbsp;3&nbsp;&nbsp;&nbsp;&nbsp;&nbsp;&nbsp;&nbsp;&nbsp;&nbsp;&nbsp;&nbsp;&nbsp;&nbsp;&nbsp;&nbsp;&nbsp;&nbsp;&nbsp;&nbsp;4</p><p style=""font-size:14px"">Not at all familiar&nbsp;&nbsp;&nbsp;&nbsp;A little familiar&nbsp;&nbsp;&nbsp;Moderately familiar&nbsp;&nbsp;&nbsp;Extremely familiar</p><p>(press the corresponding number on your keyboard)</p>","","52","","","FAM-RESPONSE","","","","","","","","","","","","","","","","","","","sounds/B/FAM/W003.mp3","word","","","","","","","","","","","","","","","","","","",""
"html-keyboard-response","249","1393872","0.0-7.0-1.0-0.3","2","1","vja2xd4mqk5eesv","","null","","","","null","","","","","","","","","","","","","","","","","","","","","","","","","","","","","","","","","","","","","","","","","",""
"audio-keyboard-response","250","1394823","0.0-7.0-1.0-1.3","2","1","vja2xd4mqk5eesv","","null","","sounds/B/FAM/P003.mp3","","null","","","","","","","","","","","","","","","","","","","","","","","","","","","","","","","","","","","","","","","","","",""
"html-keyboard-response","251","1397687","0.0-7.0-1.0-2.3","2","1","vja2xd4mqk5eesv","","2343.5","","<p>How familiar did this sound to you?</p><p>1&nbsp;&nbsp;&nbsp;&nbsp;&nbsp;&nbsp;&nbsp;&nbsp;&nbsp;&nbsp;&nbsp;&nbsp;&nbsp;&nbsp;&nbsp;&nbsp;&nbsp;&nbsp;&nbsp;2&nbsp;&nbsp;&nbsp;&nbsp;&nbsp;&nbsp;&nbsp;&nbsp;&nbsp;&nbsp;&nbsp;&nbsp;&nbsp;&nbsp;&nbsp;&nbsp;&nbsp;&nbsp;&nbsp;3&nbsp;&nbsp;&nbsp;&nbsp;&nbsp;&nbsp;&nbsp;&nbsp;&nbsp;&nbsp;&nbsp;&nbsp;&nbsp;&nbsp;&nbsp;&nbsp;&nbsp;&nbsp;&nbsp;4</p><p style=""font-size:14px"">Not at all familiar&nbsp;&nbsp;&nbsp;&nbsp;A little familiar&nbsp;&nbsp;&nbsp;Moderately familiar&nbsp;&nbsp;&nbsp;Extremely familiar</p><p>(press the corresponding number on your keyboard)</p>","","49","","","FAM-RESPONSE","","","","","","","","","","","","","","","","","","","sounds/B/FAM/P003.mp3","partword","","","","","","","","","","","","","","","","","","",""
"html-keyboard-response","252","1399704","0.0-7.0-1.0-0.4","2","1","vja2xd4mqk5eesv","","null","","","","null","","","","","","","","","","","","","","","","","","","","","","","","","","","","","","","","","","","","","","","","","",""
"audio-keyboard-response","253","1400643","0.0-7.0-1.0-1.4","2","1","vja2xd4mqk5eesv","","null","","sounds/B/FAM/N002.mp3","","null","","","","","","","","","","","","","","","","","","","","","","","","","","","","","","","","","","","","","","","","","",""
"html-keyboard-response","254","1402243","0.0-7.0-1.0-2.4","2","1","vja2xd4mqk5eesv","","1089.8999999761581","","<p>How familiar did this sound to you?</p><p>1&nbsp;&nbsp;&nbsp;&nbsp;&nbsp;&nbsp;&nbsp;&nbsp;&nbsp;&nbsp;&nbsp;&nbsp;&nbsp;&nbsp;&nbsp;&nbsp;&nbsp;&nbsp;&nbsp;2&nbsp;&nbsp;&nbsp;&nbsp;&nbsp;&nbsp;&nbsp;&nbsp;&nbsp;&nbsp;&nbsp;&nbsp;&nbsp;&nbsp;&nbsp;&nbsp;&nbsp;&nbsp;&nbsp;3&nbsp;&nbsp;&nbsp;&nbsp;&nbsp;&nbsp;&nbsp;&nbsp;&nbsp;&nbsp;&nbsp;&nbsp;&nbsp;&nbsp;&nbsp;&nbsp;&nbsp;&nbsp;&nbsp;4</p><p style=""font-size:14px"">Not at all familiar&nbsp;&nbsp;&nbsp;&nbsp;A little familiar&nbsp;&nbsp;&nbsp;Moderately familiar&nbsp;&nbsp;&nbsp;Extremely familiar</p><p>(press the corresponding number on your keyboard)</p>","","52","","","FAM-RESPONSE","","","","","","","","","","","","","","","","","","","sounds/B/FAM/N002.mp3","nonword","","","","","","","","","","","","","","","","","","",""
"html-keyboard-response","255","1404258","0.0-7.0-1.0-0.5","2","1","vja2xd4mqk5eesv","","null","","","","null","","","","","","","","","","","","","","","","","","","","","","","","","","","","","","","","","","","","","","","","","",""
"audio-keyboard-response","256","1405193","0.0-7.0-1.0-1.5","2","1","vja2xd4mqk5eesv","","null","","sounds/B/FAM/W002.mp3","","null","","","","","","","","","","","","","","","","","","","","","","","","","","","","","","","","","","","","","","","","","",""
"html-keyboard-response","257","1406205","0.0-7.0-1.0-2.5","2","1","vja2xd4mqk5eesv","","501.39999997615814","","<p>How familiar did this sound to you?</p><p>1&nbsp;&nbsp;&nbsp;&nbsp;&nbsp;&nbsp;&nbsp;&nbsp;&nbsp;&nbsp;&nbsp;&nbsp;&nbsp;&nbsp;&nbsp;&nbsp;&nbsp;&nbsp;&nbsp;2&nbsp;&nbsp;&nbsp;&nbsp;&nbsp;&nbsp;&nbsp;&nbsp;&nbsp;&nbsp;&nbsp;&nbsp;&nbsp;&nbsp;&nbsp;&nbsp;&nbsp;&nbsp;&nbsp;3&nbsp;&nbsp;&nbsp;&nbsp;&nbsp;&nbsp;&nbsp;&nbsp;&nbsp;&nbsp;&nbsp;&nbsp;&nbsp;&nbsp;&nbsp;&nbsp;&nbsp;&nbsp;&nbsp;4</p><p style=""font-size:14px"">Not at all familiar&nbsp;&nbsp;&nbsp;&nbsp;A little familiar&nbsp;&nbsp;&nbsp;Moderately familiar&nbsp;&nbsp;&nbsp;Extremely familiar</p><p>(press the corresponding number on your keyboard)</p>","","52","","","FAM-RESPONSE","","","","","","","","","","","","","","","","","","","sounds/B/FAM/W002.mp3","word","","","","","","","","","","","","","","","","","","",""
"html-keyboard-response","258","1408230","0.0-7.0-1.0-0.6","2","1","vja2xd4mqk5eesv","","null","","","","null","","","","","","","","","","","","","","","","","","","","","","","","","","","","","","","","","","","","","","","","","",""
"audio-keyboard-response","259","1409163","0.0-7.0-1.0-1.6","2","1","vja2xd4mqk5eesv","","null","","sounds/B/FAM/P001.mp3","","null","","","","","","","","","","","","","","","","","","","","","","","","","","","","","","","","","","","","","","","","","",""
"html-keyboard-response","260","1411124","0.0-7.0-1.0-2.6","2","1","vja2xd4mqk5eesv","","1449.9000000357628","","<p>How familiar did this sound to you?</p><p>1&nbsp;&nbsp;&nbsp;&nbsp;&nbsp;&nbsp;&nbsp;&nbsp;&nbsp;&nbsp;&nbsp;&nbsp;&nbsp;&nbsp;&nbsp;&nbsp;&nbsp;&nbsp;&nbsp;2&nbsp;&nbsp;&nbsp;&nbsp;&nbsp;&nbsp;&nbsp;&nbsp;&nbsp;&nbsp;&nbsp;&nbsp;&nbsp;&nbsp;&nbsp;&nbsp;&nbsp;&nbsp;&nbsp;3&nbsp;&nbsp;&nbsp;&nbsp;&nbsp;&nbsp;&nbsp;&nbsp;&nbsp;&nbsp;&nbsp;&nbsp;&nbsp;&nbsp;&nbsp;&nbsp;&nbsp;&nbsp;&nbsp;4</p><p style=""font-size:14px"">Not at all familiar&nbsp;&nbsp;&nbsp;&nbsp;A little familiar&nbsp;&nbsp;&nbsp;Moderately familiar&nbsp;&nbsp;&nbsp;Extremely familiar</p><p>(press the corresponding number on your keyboard)</p>","","51","","","FAM-RESPONSE","","","","","","","","","","","","","","","","","","","sounds/B/FAM/P001.mp3","partword","","","","","","","","","","","","","","","","","","",""
"html-keyboard-response","261","1413145","0.0-7.0-1.0-0.7","2","1","vja2xd4mqk5eesv","","null","","","","null","","","","","","","","","","","","","","","","","","","","","","","","","","","","","","","","","","","","","","","","","",""
"audio-keyboard-response","262","1414095","0.0-7.0-1.0-1.7","2","1","vja2xd4mqk5eesv","","null","","sounds/B/FAM/W001.mp3","","null","","","","","","","","","","","","","","","","","","","","","","","","","","","","","","","","","","","","","","","","","",""
"html-keyboard-response","263","1416913","0.0-7.0-1.0-2.7","2","1","vja2xd4mqk5eesv","","2302.800000011921","","<p>How familiar did this sound to you?</p><p>1&nbsp;&nbsp;&nbsp;&nbsp;&nbsp;&nbsp;&nbsp;&nbsp;&nbsp;&nbsp;&nbsp;&nbsp;&nbsp;&nbsp;&nbsp;&nbsp;&nbsp;&nbsp;&nbsp;2&nbsp;&nbsp;&nbsp;&nbsp;&nbsp;&nbsp;&nbsp;&nbsp;&nbsp;&nbsp;&nbsp;&nbsp;&nbsp;&nbsp;&nbsp;&nbsp;&nbsp;&nbsp;&nbsp;3&nbsp;&nbsp;&nbsp;&nbsp;&nbsp;&nbsp;&nbsp;&nbsp;&nbsp;&nbsp;&nbsp;&nbsp;&nbsp;&nbsp;&nbsp;&nbsp;&nbsp;&nbsp;&nbsp;4</p><p style=""font-size:14px"">Not at all familiar&nbsp;&nbsp;&nbsp;&nbsp;A little familiar&nbsp;&nbsp;&nbsp;Moderately familiar&nbsp;&nbsp;&nbsp;Extremely familiar</p><p>(press the corresponding number on your keyboard)</p>","","50","","","FAM-RESPONSE","","","","","","","","","","","","","","","","","","","sounds/B/FAM/W001.mp3","word","","","","","","","","","","","","","","","","","","",""
"html-keyboard-response","264","1418945","0.0-7.0-1.0-0.8","2","1","vja2xd4mqk5eesv","","null","","","","null","","","","","","","","","","","","","","","","","","","","","","","","","","","","","","","","","","","","","","","","","",""
"audio-keyboard-response","265","1419894","0.0-7.0-1.0-1.8","2","1","vja2xd4mqk5eesv","","null","","sounds/B/FAM/W004.mp3","","null","","","","","","","","","","","","","","","","","","","","","","","","","","","","","","","","","","","","","","","","","",""
"html-keyboard-response","266","1422735","0.0-7.0-1.0-2.8","2","1","vja2xd4mqk5eesv","","2319.5","","<p>How familiar did this sound to you?</p><p>1&nbsp;&nbsp;&nbsp;&nbsp;&nbsp;&nbsp;&nbsp;&nbsp;&nbsp;&nbsp;&nbsp;&nbsp;&nbsp;&nbsp;&nbsp;&nbsp;&nbsp;&nbsp;&nbsp;2&nbsp;&nbsp;&nbsp;&nbsp;&nbsp;&nbsp;&nbsp;&nbsp;&nbsp;&nbsp;&nbsp;&nbsp;&nbsp;&nbsp;&nbsp;&nbsp;&nbsp;&nbsp;&nbsp;3&nbsp;&nbsp;&nbsp;&nbsp;&nbsp;&nbsp;&nbsp;&nbsp;&nbsp;&nbsp;&nbsp;&nbsp;&nbsp;&nbsp;&nbsp;&nbsp;&nbsp;&nbsp;&nbsp;4</p><p style=""font-size:14px"">Not at all familiar&nbsp;&nbsp;&nbsp;&nbsp;A little familiar&nbsp;&nbsp;&nbsp;Moderately familiar&nbsp;&nbsp;&nbsp;Extremely familiar</p><p>(press the corresponding number on your keyboard)</p>","","49","","","FAM-RESPONSE","","","","","","","","","","","","","","","","","","","sounds/B/FAM/W004.mp3","word","","","","","","","","","","","","","","","","","","",""
"html-keyboard-response","267","1424755","0.0-7.0-1.0-0.9","2","1","vja2xd4mqk5eesv","","null","","","","null","","","","","","","","","","","","","","","","","","","","","","","","","","","","","","","","","","","","","","","","","",""
"audio-keyboard-response","268","1425706","0.0-7.0-1.0-1.9","2","1","vja2xd4mqk5eesv","","null","","sounds/B/FAM/P002.mp3","","null","","","","","","","","","","","","","","","","","","","","","","","","","","","","","","","","","","","","","","","","","",""
"html-keyboard-response","269","1427657","0.0-7.0-1.0-2.9","2","1","vja2xd4mqk5eesv","","1441.6000000238419","","<p>How familiar did this sound to you?</p><p>1&nbsp;&nbsp;&nbsp;&nbsp;&nbsp;&nbsp;&nbsp;&nbsp;&nbsp;&nbsp;&nbsp;&nbsp;&nbsp;&nbsp;&nbsp;&nbsp;&nbsp;&nbsp;&nbsp;2&nbsp;&nbsp;&nbsp;&nbsp;&nbsp;&nbsp;&nbsp;&nbsp;&nbsp;&nbsp;&nbsp;&nbsp;&nbsp;&nbsp;&nbsp;&nbsp;&nbsp;&nbsp;&nbsp;3&nbsp;&nbsp;&nbsp;&nbsp;&nbsp;&nbsp;&nbsp;&nbsp;&nbsp;&nbsp;&nbsp;&nbsp;&nbsp;&nbsp;&nbsp;&nbsp;&nbsp;&nbsp;&nbsp;4</p><p style=""font-size:14px"">Not at all familiar&nbsp;&nbsp;&nbsp;&nbsp;A little familiar&nbsp;&nbsp;&nbsp;Moderately familiar&nbsp;&nbsp;&nbsp;Extremely familiar</p><p>(press the corresponding number on your keyboard)</p>","","52","","","FAM-RESPONSE","","","","","","","","","","","","","","","","","","","sounds/B/FAM/P002.mp3","partword","","","","","","","","","","","","","","","","","","",""
"html-keyboard-response","270","1429675","0.0-7.0-1.0-0.10","2","1","vja2xd4mqk5eesv","","null","","","","null","","","","","","","","","","","","","","","","","","","","","","","","","","","","","","","","","","","","","","","","","",""
"audio-keyboard-response","271","1430625","0.0-7.0-1.0-1.10","2","1","vja2xd4mqk5eesv","","null","","sounds/B/FAM/N004.mp3","","null","","","","","","","","","","","","","","","","","","","","","","","","","","","","","","","","","","","","","","","","","",""
"html-keyboard-response","272","1431866","0.0-7.0-1.0-2.10","2","1","vja2xd4mqk5eesv","","721","","<p>How familiar did this sound to you?</p><p>1&nbsp;&nbsp;&nbsp;&nbsp;&nbsp;&nbsp;&nbsp;&nbsp;&nbsp;&nbsp;&nbsp;&nbsp;&nbsp;&nbsp;&nbsp;&nbsp;&nbsp;&nbsp;&nbsp;2&nbsp;&nbsp;&nbsp;&nbsp;&nbsp;&nbsp;&nbsp;&nbsp;&nbsp;&nbsp;&nbsp;&nbsp;&nbsp;&nbsp;&nbsp;&nbsp;&nbsp;&nbsp;&nbsp;3&nbsp;&nbsp;&nbsp;&nbsp;&nbsp;&nbsp;&nbsp;&nbsp;&nbsp;&nbsp;&nbsp;&nbsp;&nbsp;&nbsp;&nbsp;&nbsp;&nbsp;&nbsp;&nbsp;4</p><p style=""font-size:14px"">Not at all familiar&nbsp;&nbsp;&nbsp;&nbsp;A little familiar&nbsp;&nbsp;&nbsp;Moderately familiar&nbsp;&nbsp;&nbsp;Extremely familiar</p><p>(press the corresponding number on your keyboard)</p>","","51","","","FAM-RESPONSE","","","","","","","","","","","","","","","","","","","sounds/B/FAM/N004.mp3","nonword","","","","","","","","","","","","","","","","","","",""
"html-keyboard-response","273","1433895","0.0-7.0-1.0-0.11","2","1","vja2xd4mqk5eesv","","null","","","","null","","","","","","","","","","","","","","","","","","","","","","","","","","","","","","","","","","","","","","","","","",""
"audio-keyboard-response","274","1434835","0.0-7.0-1.0-1.11","2","1","vja2xd4mqk5eesv","","null","","sounds/B/FAM/N001.mp3","","null","","","","","","","","","","","","","","","","","","","","","","","","","","","","","","","","","","","","","","","","","",""
"html-keyboard-response","275","1436403","0.0-7.0-1.0-2.11","2","1","vja2xd4mqk5eesv","","1046.800000011921","","<p>How familiar did this sound to you?</p><p>1&nbsp;&nbsp;&nbsp;&nbsp;&nbsp;&nbsp;&nbsp;&nbsp;&nbsp;&nbsp;&nbsp;&nbsp;&nbsp;&nbsp;&nbsp;&nbsp;&nbsp;&nbsp;&nbsp;2&nbsp;&nbsp;&nbsp;&nbsp;&nbsp;&nbsp;&nbsp;&nbsp;&nbsp;&nbsp;&nbsp;&nbsp;&nbsp;&nbsp;&nbsp;&nbsp;&nbsp;&nbsp;&nbsp;3&nbsp;&nbsp;&nbsp;&nbsp;&nbsp;&nbsp;&nbsp;&nbsp;&nbsp;&nbsp;&nbsp;&nbsp;&nbsp;&nbsp;&nbsp;&nbsp;&nbsp;&nbsp;&nbsp;4</p><p style=""font-size:14px"">Not at all familiar&nbsp;&nbsp;&nbsp;&nbsp;A little familiar&nbsp;&nbsp;&nbsp;Moderately familiar&nbsp;&nbsp;&nbsp;Extremely familiar</p><p>(press the corresponding number on your keyboard)</p>","","49","","","FAM-RESPONSE","","","","","","","","","","","","","","","","","","","sounds/B/FAM/N001.mp3","nonword","","","","","","","","","","","","","","","","","","",""
"html-button-response","276","1449497","0.0-8.0-0.0","2","1","vja2xd4mqk5eesv","","12091.699999988079","","<p>You will now listen to longer sound sequences.</p><p>Each sound sequence will last about 16 seconds.</p><p>On each trial, you will be given a <u>TARGET SOUND</u>. Your task is to listen very carefully for this sound.</p><p>Every time you hear the <u>TARGET SOUND</u>, you will press the <b>SPACEBAR</b> as quickly and accurately as you can.</p>","0","","","","","","","","","","","","","","","","","","","","","","","","","","","","","","","","","","","","","","","","","","",""
"html-button-response","277","1460575","0.0-8.0-1.0","2","1","vja2xd4mqk5eesv","","10818.199999988079","","<p>It is very important that you make your responses as quickly and accurately as possible.</p><p>To help you make your responses, you will be able to listen to the <u>TARGET SOUND</u> at the beginning of each trial.</p><p>There will be 36 total trials.</p><p><b>Note: This is meant to be a difficult task. We simply want you to try your best.</p>","0","","","","","","","","","","","","","","","","","","","","","","","","","","","","","","","","","","","","","","","","","","",""
"html-button-response","278","1462652","0.0-8.0-2.0-0.0","2","1","vja2xd4mqk5eesv","","1804.199999988079","","<p>Trial 1 of 36</p>","0","","","","","","","","","","","","","","","","","","","","","","","","","NI","sounds/syllables/ni_SWS.wav","3900,5700,9300,11100","2","","","","","","","","","","","","","","",""
"html-keyboard-response","279","1465318","0.0-8.0-2.0-1.0","2","1","vja2xd4mqk5eesv","","2664.300000011921","","","","80","","","","","","","","","","","","","","","","","","","","","","","","NI","","3900,5700,9300,11100","2","","","","","","","","","","","","","","",""
"audio-keyboard-response","280","1465604","0.0-8.0-2.0-2.0-0.0","2","1","vja2xd4mqk5eesv","","null","","sounds/syllables/ni_SWS.wav","","null","","","","","","","","","","","","","","","","","","","","","","","","","","","","","","","","","","","","","","","","","",""
"html-keyboard-response","281","1466710","0.0-8.0-2.0-2.0-1.0","2","1","vja2xd4mqk5eesv","","1104.8999999761581","","<p>To replay the <u>TARGET SOUND</u>, press P.</p> When you are ready to begin, press SPACEBAR.","","80","","","","","","","","","","","","","","","","","","","","","","","","","","","","","","","","","","","","","","","","","",""
"audio-keyboard-response","282","1467523","0.0-8.0-2.0-2.1-0.1","2","1","vja2xd4mqk5eesv","","null","","sounds/syllables/ni_SWS.wav","","null","","","","","","","","","","","","","","","","","","","","","","","","","","","","","","","","","","","","","","","","","",""
"html-keyboard-response","283","1469462","0.0-8.0-2.0-2.1-1.1","2","1","vja2xd4mqk5eesv","","1937.8999999761581","","<p>To replay the <u>TARGET SOUND</u>, press P.</p> When you are ready to begin, press SPACEBAR.","","80","","","","","","","","","","","","","","","","","","","","","","","","","","","","","","","","","","","","","","","","","",""
"audio-keyboard-response","284","1470273","0.0-8.0-2.0-2.2-0.2","2","1","vja2xd4mqk5eesv","","null","","sounds/syllables/ni_SWS.wav","","null","","","","","","","","","","","","","","","","","","","","","","","","","","","","","","","","","","","","","","","","","",""
"html-keyboard-response","285","1470817","0.0-8.0-2.0-2.2-1.2","2","1","vja2xd4mqk5eesv","","542.7999999523163","","<p>To replay the <u>TARGET SOUND</u>, press P.</p> When you are ready to begin, press SPACEBAR.","","80","","","","","","","","","","","","","","","","","","","","","","","","","","","","","","","","","","","","","","","","","",""
"audio-keyboard-response","286","1471633","0.0-8.0-2.0-2.3-0.3","2","1","vja2xd4mqk5eesv","","null","","sounds/syllables/ni_SWS.wav","","null","","","","","","","","","","","","","","","","","","","","","","","","","","","","","","","","","","","","","","","","","",""
"html-keyboard-response","287","1473049","0.0-8.0-2.0-2.3-1.3","2","1","vja2xd4mqk5eesv","","1414.7999999523163","","<p>To replay the <u>TARGET SOUND</u>, press P.</p> When you are ready to begin, press SPACEBAR.","","32","","","","","","","","","","","","","","","","","","","","","","","","","","","","","","","","","","","","","","","","","",""
"audio-keyboard-response","288","1488006","0.0-8.0-2.0-3.0","2","1","vja2xd4mqk5eesv","","3331","","sounds/B/TD/NI_02_TD.mp3","","32","","","TD_SUMMARY","","","","","","","","","","","","","","","","","","","","","NI","","3900,5700,9300,11100","2","3900","5700","9300","11100","null","null","null","null","3336.899999976158","4","","","","",""
"html-button-response","289","1489712","0.0-8.0-2.0-0.1","2","1","vja2xd4mqk5eesv","","1702.699999988079","","<p>Trial 2 of 36</p>","0","","","","","","","","","","","","","","","","","","","","","","","","","FE","sounds/syllables/fe_SWS.wav","1500,4200,7800,12300","3","","","","","","","","","","","","","","",""
"html-keyboard-response","290","1491572","0.0-8.0-2.0-1.1","2","1","vja2xd4mqk5eesv","","1858.5","","","","80","","","","","","","","","","","","","","","","","","","","","","","","FE","","1500,4200,7800,12300","3","","","","","","","","","","","","","","",""
"audio-keyboard-response","291","1491874","0.0-8.0-2.0-2.4-0.4","2","1","vja2xd4mqk5eesv","","null","","sounds/syllables/fe_SWS.wav","","null","","","","","","","","","","","","","","","","","","","","","","","","","","","","","","","","","","","","","","","","","",""
"html-keyboard-response","292","1492942","0.0-8.0-2.0-2.4-1.4","2","1","vja2xd4mqk5eesv","","1066.8999999761581","","<p>To replay the <u>TARGET SOUND</u>, press P.</p> When you are ready to begin, press SPACEBAR.","","80","","","","","","","","","","","","","","","","","","","","","","","","","","","","","","","","","","","","","","","","","",""
"audio-keyboard-response","293","1493755","0.0-8.0-2.0-2.5-0.5","2","1","vja2xd4mqk5eesv","","null","","sounds/syllables/fe_SWS.wav","","null","","","","","","","","","","","","","","","","","","","","","","","","","","","","","","","","","","","","","","","","","",""
"html-keyboard-response","294","1494658","0.0-8.0-2.0-2.5-1.5","2","1","vja2xd4mqk5eesv","","901.5","","<p>To replay the <u>TARGET SOUND</u>, press P.</p> When you are ready to begin, press SPACEBAR.","","32","","","","","","","","","","","","","","","","","","","","","","","","","","","","","","","","","","","","","","","","","",""
"audio-keyboard-response","295","1509615","0.0-8.0-2.0-3.1","2","1","vja2xd4mqk5eesv","","520","","sounds/B/TD/FE_08_TD.mp3","","32","","","TD_SUMMARY","","","","","","","","","","","","","","","","","","","","","FE","","1500,4200,7800,12300","3","1500","4200","7800","12300","843","870.8000000119209","null","null","_525.6999999880791_2343_5070.800000011921_6025.399999976158_10827.899999976158_11392.300000011921_11645.699999988079_13950_14235.099999964237","2","","","","",""
"html-button-response","296","1513800","0.0-8.0-2.0-0.2","2","1","vja2xd4mqk5eesv","","4180.899999976158","","<p>Trial 3 of 36</p>","0","","","","","","","","","","","","","","","","","","","","","","","","","ME","sounds/syllables/me_SWS.wav","3900,5700,11100,12900","2","","","","","","","","","","","","","","",""
"html-keyboard-response","297","1515316","0.0-8.0-2.0-1.2","2","1","vja2xd4mqk5eesv","","1514.800000011921","","","","80","","","","","","","","","","","","","","","","","","","","","","","","ME","","3900,5700,11100,12900","2","","","","","","","","","","","","","","",""
"audio-keyboard-response","298","1515625","0.0-8.0-2.0-2.6-0.6","2","1","vja2xd4mqk5eesv","","null","","sounds/syllables/me_SWS.wav","","null","","","","","","","","","","","","","","","","","","","","","","","","","","","","","","","","","","","","","","","","","",""
"html-keyboard-response","299","1516998","0.0-8.0-2.0-2.6-1.6","2","1","vja2xd4mqk5eesv","","1370.800000011921","","<p>To replay the <u>TARGET SOUND</u>, press P.</p> When you are ready to begin, press SPACEBAR.","","32","","","","","","","","","","","","","","","","","","","","","","","","","","","","","","","","","","","","","","","","","",""
"audio-keyboard-response","300","1531965","0.0-8.0-2.0-3.2","2","1","vja2xd4mqk5eesv","","2600","","sounds/B/TD/ME_02_TD.mp3","","32","","","TD_SUMMARY","","","","","","","","","","","","","","","","","","","","","ME","","3900,5700,11100,12900","2","3900","5700","11100","12900","802.1999999880791","null","404.7999999523163","null","__________2607.7999999523163_3508.099999964237_4702.199999988079_7533_8512.299999952316_9324.5_9545.799999952316_11267.399999976158_11504.799999952316","1","","","","",""
"html-button-response","301","1537303","0.0-8.0-2.0-0.3","2","1","vja2xd4mqk5eesv","","5341","","<p>Trial 4 of 36</p>","0","","","","","","","","","","","","","","","","","","","","","","","","","SU","sounds/syllables/su_SWS.wav","1200,3000,7500,10200","2","","","","","","","","","","","","","","",""
"html-keyboard-response","302","1538537","0.0-8.0-2.0-1.3","2","1","vja2xd4mqk5eesv","","1233.0999999642372","","","","80","","","","","","","","","","","","","","","","","","","","","","","","SU","","1200,3000,7500,10200","2","","","","","","","","","","","","","","",""
"audio-keyboard-response","303","1538840","0.0-8.0-2.0-2.7-0.7","2","1","vja2xd4mqk5eesv","","null","","sounds/syllables/su_SWS.wav","","null","","","","","","","","","","","","","","","","","","","","","","","","","","","","","","","","","","","","","","","","","",""
"html-keyboard-response","304","1539701","0.0-8.0-2.0-2.7-1.7","2","1","vja2xd4mqk5eesv","","858.5999999642372","","<p>To replay the <u>TARGET SOUND</u>, press P.</p> When you are ready to begin, press SPACEBAR.","","32","","","","","","","","","","","","","","","","","","","","","","","","","","","","","","","","","","","","","","","","","",""
"audio-keyboard-response","305","1554669","0.0-8.0-2.0-3.3","2","1","vja2xd4mqk5eesv","","4309","","sounds/B/TD/SU_07_TD.mp3","","32","","","TD_SUMMARY","","","","","","","","","","","","","","","","","","","","","SU","","1200,3000,7500,10200","2","1200","3000","7500","10200","null","null","null","1006","___________________4315_11206_11482.899999976158_13261.099999964237_13451.299999952316","1","","","","",""
"html-button-response","306","1557117","0.0-8.0-2.0-0.4","2","1","vja2xd4mqk5eesv","","2445","","<p>Trial 5 of 36</p>","0","","","","","","","","","","","","","","","","","","","","","","","","","TA","sounds/syllables/ta_SWS.wav","1500,5100,9600,13200","3","","","","","","","","","","","","","","",""
"html-keyboard-response","307","1560146","0.0-8.0-2.0-1.4","2","1","vja2xd4mqk5eesv","","3026.7999999523163","","","","80","","","","","","","","","","","","","","","","","","","","","","","","TA","","1500,5100,9600,13200","3","","","","","","","","","","","","","","",""
"audio-keyboard-response","308","1560439","0.0-8.0-2.0-2.8-0.8","2","1","vja2xd4mqk5eesv","","null","","sounds/syllables/ta_SWS.wav","","null","","","","","","","","","","","","","","","","","","","","","","","","","","","","","","","","","","","","","","","","","",""
"html-keyboard-response","309","1561197","0.0-8.0-2.0-2.8-1.8","2","1","vja2xd4mqk5eesv","","754.1000000238419","","<p>To replay the <u>TARGET SOUND</u>, press P.</p> When you are ready to begin, press SPACEBAR.","","32","","","","","","","","","","","","","","","","","","","","","","","","","","","","","","","","","","","","","","","","","",""
"audio-keyboard-response","310","1576160","0.0-8.0-2.0-3.4","2","1","vja2xd4mqk5eesv","","531","","sounds/B/TD/TA_07_TD.mp3","","32","","","TD_SUMMARY","","","","","","","","","","","","","","","","","","","","","TA","","1500,5100,9600,13200","3","1500","5100","9600","13200","null","333.60000002384186","null","null","________________________530.3000000119209_4270.899999976158_5433.600000023842_7856.699999988079_11405.300000011921","1","","","","",""
"html-button-response","311","1577710","0.0-8.0-2.0-0.5","2","1","vja2xd4mqk5eesv","","1546.800000011921","","<p>Trial 6 of 36</p>","0","","","","","","","","","","","","","","","","","","","","","","","","","GE","sounds/syllables/ge_SWS.wav","3600,6300,9900,11700","1","","","","","","","","","","","","","","",""
"html-keyboard-response","312","1580374","0.0-8.0-2.0-1.5","2","1","vja2xd4mqk5eesv","","2662.899999976158","","","","80","","","","","","","","","","","","","","","","","","","","","","","","GE","","3600,6300,9900,11700","1","","","","","","","","","","","","","","",""
"audio-keyboard-response","313","1580669","0.0-8.0-2.0-2.9-0.9","2","1","vja2xd4mqk5eesv","","null","","sounds/syllables/ge_SWS.wav","","null","","","","","","","","","","","","","","","","","","","","","","","","","","","","","","","","","","","","","","","","","",""
"html-keyboard-response","314","1581331","0.0-8.0-2.0-2.9-1.9","2","1","vja2xd4mqk5eesv","","660","","<p>To replay the <u>TARGET SOUND</u>, press P.</p> When you are ready to begin, press SPACEBAR.","","32","","","","","","","","","","","","","","","","","","","","","","","","","","","","","","","","","","","","","","","","","",""
"audio-keyboard-response","315","1596299","0.0-8.0-2.0-3.5","2","1","vja2xd4mqk5eesv","","1331","","sounds/B/TD/GE_09_TD.mp3","","32","","","TD_SUMMARY","","","","","","","","","","","","","","","","","","","","","GE","","3600,6300,9900,11700","1","3600","6300","9900","11700","1029.3999999761581","682.0999999642372","1077.699999988079","null","_____________________________1336.5999999642372_4629.399999976158_6982.099999964237_10977.699999988079","1","","","","",""
