"trial_type","trial_index","time_elapsed","internal_node_id","counterbalance","lang_instruct","ParticipantID","view_history","rt","url","stimulus","button_pressed","key_press","correctRESP","correct","designation","location","correctanswer","timeouts","pause_rt01","pause_rt02","train_file","numKeyPress","sound","fam_type","SYLLABLE","EXEMPLAR","TD_LOCS","TD_TYPE","TDLOC_01","TDLOC_02","TDLOC_03","TDLOC_04","TD_RT_01","TD_RT_02","TD_RT_03","TD_RT_04","TD_SUBJ_RTs","number_of_plays","responses","slider_start","response","question_order","syllable","syllable_type"
"pavlovia","0","6","0.0-0.0","2","0","dlbozjomxchg6q9","","","","","","","","","","","","","","","","","","","","","","","","","","","","","","","","","","","","","",""
"instructions","1","165579","0.0-1.0","2","0","dlbozjomxchg6q9","[{""page_index"":0,""viewing_time"":66016.5},{""page_index"":1,""viewing_time"":99552.10000002384}]","165571.60000002384","","","","","","","","","","","","","","","","","","","","","","","","","","","","","","","","","","","",""
"external-html","2","212913","0.0-2.0","2","0","dlbozjomxchg6q9","","47151.89999997616","consent/consent.html","","","","","","","","","","","","","","","","","","","","","","","","","","","","","","","","","","",""
"html-button-response","3","224393","0.0-3.0-0.0-0.0","2","0","dlbozjomxchg6q9","","11477.699999988079","","<p>Welcome to the study. You will first complete a short volume calibration and headphone check.</p><p>Please make sure you are in a quiet listening environment, that you are wearing headphones, and that your computer's volume is turned on.<p></p>","0","","","","","","","","","","","","","","","","","","","","","","","","","","","","","","","","",""
"html-button-response","4","231078","0.0-3.0-0.0-1.0","2","0","dlbozjomxchg6q9","","6421","","<p>The volume calibration will be first.</p><p>You will hear a thirty-second noise. Please adjust your computer's volume so that this noise is being presented at a comfortable level.<p></p>","0","","","","","","","","","","","","","","","","","","","","","","","","","","","","","","","","",""
"audio-button-response","5","239160","0.0-3.0-0.0-2.0","2","0","dlbozjomxchg6q9","","7760","","audCalib/volumetest.mp3","0","","","","","","","","","","","","","","","","","","","","","","","","","","","","","","","","",""
"html-button-response","6","251418","0.0-3.0-1.0-0.0","2","0","dlbozjomxchg6q9","","12256.600000023842","","<p>You will now complete a short headphone check.</p><p>On each trial, you will hear three tones. One of these tones will be quieter than the others. Your task is to identify whether the quiet tone occured first, second, or third.</p><p>There are six trials in total.<p></p>","0","","","","","","","","","","","","","","","","","","","","","","","","","","","","","","","","",""
"html-keyboard-response","7","252192","0.0-3.0-1.0-1.0-0.0","2","0","dlbozjomxchg6q9","","null","","<div style=""font-size:60px;"">+</div>","","null","","","","","","","","","","","","","","","","","","","","","","","","","","","","","","","",""
"audio-button-response","8","257239","0.0-3.0-1.0-1.0-1.0","2","0","dlbozjomxchg6q9","","5040","","audCalib/t1_1.mp3","0","","0","1","headphone-test","","","","","","","","","","","","","","","","","","","","","","","","","","","","",""
"html-keyboard-response","9","258014","0.0-3.0-1.0-1.0-0.1","2","0","dlbozjomxchg6q9","","null","","<div style=""font-size:60px;"">+</div>","","null","","","","","","","","","","","","","","","","","","","","","","","","","","","","","","","",""
"audio-button-response","10","261811","0.0-3.0-1.0-1.0-1.1","2","0","dlbozjomxchg6q9","","3789","","audCalib/t2_1.mp3","1","","1","1","headphone-test","","","","","","","","","","","","","","","","","","","","","","","","","","","","",""
"html-keyboard-response","11","262594","0.0-3.0-1.0-1.0-0.2","2","0","dlbozjomxchg6q9","","null","","<div style=""font-size:60px;"">+</div>","","null","","","","","","","","","","","","","","","","","","","","","","","","","","","","","","","",""
"audio-button-response","12","267853","0.0-3.0-1.0-1.0-1.2","2","0","dlbozjomxchg6q9","","5251","","audCalib/t2_2.mp3","1","","1","1","headphone-test","","","","","","","","","","","","","","","","","","","","","","","","","","","","",""
"html-keyboard-response","13","268644","0.0-3.0-1.0-1.0-0.3","2","0","dlbozjomxchg6q9","","null","","<div style=""font-size:60px;"">+</div>","","null","","","","","","","","","","","","","","","","","","","","","","","","","","","","","","","",""
"audio-button-response","14","273703","0.0-3.0-1.0-1.0-1.3","2","0","dlbozjomxchg6q9","","5051","","audCalib/t1_2.mp3","0","","0","1","headphone-test","","","","","","","","","","","","","","","","","","","","","","","","","","","","",""
"html-keyboard-response","15","274479","0.0-3.0-1.0-1.0-0.4","2","0","dlbozjomxchg6q9","","null","","<div style=""font-size:60px;"">+</div>","","null","","","","","","","","","","","","","","","","","","","","","","","","","","","","","","","",""
"audio-button-response","16","279538","0.0-3.0-1.0-1.0-1.4","2","0","dlbozjomxchg6q9","","5061","","audCalib/t3_1.mp3","2","","2","1","headphone-test","","","","","","","","","","","","","","","","","","","","","","","","","","","","",""
"html-keyboard-response","17","280314","0.0-3.0-1.0-1.0-0.5","2","0","dlbozjomxchg6q9","","null","","<div style=""font-size:60px;"">+</div>","","null","","","","","","","","","","","","","","","","","","","","","","","","","","","","","","","",""
"audio-button-response","18","285461","0.0-3.0-1.0-1.0-1.5","2","0","dlbozjomxchg6q9","","5141","","audCalib/t3_2.mp3","2","","2","1","headphone-test","","","","","","","","","","","","","","","","","","","","","","","","","","","","",""
"html-button-response","19","288263","0.0-3.0-2.0","2","0","dlbozjomxchg6q9","","2540.600000023842","","<p>The volume calibration and headphone check are now complete.</p>","0","","","","","","","","","","","","","","","","","","","","","","","","","","","","","","","","",""
"instructions","20","309181","0.0-4.0-0.0","2","0","dlbozjomxchg6q9","[{""page_index"":0,""viewing_time"":2082},{""page_index"":1,""viewing_time"":16504},{""page_index"":2,""viewing_time"":2331}]","20917.400000035763","","","","","","","","","","","","","","","","","","","","","","","","","","","","","","","","","","","",""
"audio-keyboard-response","21","309490","0.0-4.0-1.0-0.0","2","0","dlbozjomxchg6q9","","null","","sounds/induction/right_rev/re_SWS.wav","","null","","","","","","","","","","","","","","","","","","","","","","","","","","","","","","","",""
"html-button-response","22","311184","0.0-4.0-1.0-1.0","2","0","dlbozjomxchg6q9","","1691.3999999761581","","Was the sound coming from the left or the right?","1","","","1","INDUCTION-JUDGMENT","right","1","","","","","","","","","","","","","","","","","","","","","","","","","","",""
"html-keyboard-response","23","312188","0.0-4.0-1.0-2.0","2","0","dlbozjomxchg6q9","","null","","<p style=""color:#054d00;""><b>Correct!</b></p>","","null","","","","","","","","","","","","","","","","","","","","","","","","","","","","","","","",""
"audio-keyboard-response","24","312995","0.0-4.0-1.0-0.1","2","0","dlbozjomxchg6q9","","null","","sounds/induction/left_rev/fe_SWS.wav","","null","","","","","","","","","","","","","","","","","","","","","","","","","","","","","","","",""
"html-button-response","25","314428","0.0-4.0-1.0-1.1","2","0","dlbozjomxchg6q9","","1433","","Was the sound coming from the left or the right?","0","","","1","INDUCTION-JUDGMENT","left","0","","","","","","","","","","","","","","","","","","","","","","","","","","",""
"html-keyboard-response","26","315432","0.0-4.0-1.0-2.1","2","0","dlbozjomxchg6q9","","null","","<p style=""color:#054d00;""><b>Correct!</b></p>","","null","","","","","","","","","","","","","","","","","","","","","","","","","","","","","","","",""
"audio-keyboard-response","27","316244","0.0-4.0-1.0-0.2","2","0","dlbozjomxchg6q9","","null","","sounds/induction/left_rev/ni_SWS.wav","","null","","","","","","","","","","","","","","","","","","","","","","","","","","","","","","","",""
"html-button-response","28","317853","0.0-4.0-1.0-1.2","2","0","dlbozjomxchg6q9","","1606.8999999761581","","Was the sound coming from the left or the right?","0","","","1","INDUCTION-JUDGMENT","left","0","","","","","","","","","","","","","","","","","","","","","","","","","","",""
"html-keyboard-response","29","318869","0.0-4.0-1.0-2.2","2","0","dlbozjomxchg6q9","","null","","<p style=""color:#054d00;""><b>Correct!</b></p>","","null","","","","","","","","","","","","","","","","","","","","","","","","","","","","","","","",""
"audio-keyboard-response","30","319684","0.0-4.0-1.0-0.3","2","0","dlbozjomxchg6q9","","null","","sounds/induction/right_rev/ge_SWS.wav","","null","","","","","","","","","","","","","","","","","","","","","","","","","","","","","","","",""
"html-button-response","31","321197","0.0-4.0-1.0-1.3","2","0","dlbozjomxchg6q9","","1511.1000000238419","","Was the sound coming from the left or the right?","1","","","1","INDUCTION-JUDGMENT","right","1","","","","","","","","","","","","","","","","","","","","","","","","","","",""
"html-keyboard-response","32","322201","0.0-4.0-1.0-2.3","2","0","dlbozjomxchg6q9","","null","","<p style=""color:#054d00;""><b>Correct!</b></p>","","null","","","","","","","","","","","","","","","","","","","","","","","","","","","","","","","",""
"audio-keyboard-response","33","323004","0.0-4.0-1.0-0.4","2","0","dlbozjomxchg6q9","","null","","sounds/induction/left_rev/ta_SWS.wav","","null","","","","","","","","","","","","","","","","","","","","","","","","","","","","","","","",""
"html-button-response","34","324560","0.0-4.0-1.0-1.4","2","0","dlbozjomxchg6q9","","1554.800000011921","","Was the sound coming from the left or the right?","0","","","1","INDUCTION-JUDGMENT","left","0","","","","","","","","","","","","","","","","","","","","","","","","","","",""
"html-keyboard-response","35","325574","0.0-4.0-1.0-2.4","2","0","dlbozjomxchg6q9","","null","","<p style=""color:#054d00;""><b>Correct!</b></p>","","null","","","","","","","","","","","","","","","","","","","","","","","","","","","","","","","",""
"audio-keyboard-response","36","326374","0.0-4.0-1.0-0.5","2","0","dlbozjomxchg6q9","","null","","sounds/induction/right_rev/su_SWS.wav","","null","","","","","","","","","","","","","","","","","","","","","","","","","","","","","","","",""
"html-button-response","37","328370","0.0-4.0-1.0-1.5","2","0","dlbozjomxchg6q9","","1994.8999999761581","","Was the sound coming from the left or the right?","1","","","1","INDUCTION-JUDGMENT","right","1","","","","","","","","","","","","","","","","","","","","","","","","","","",""
"html-keyboard-response","38","329383","0.0-4.0-1.0-2.5","2","0","dlbozjomxchg6q9","","null","","<p style=""color:#054d00;""><b>Correct!</b></p>","","null","","","","","","","","","","","","","","","","","","","","","","","","","","","","","","","",""
"audio-keyboard-response","39","330195","0.0-4.0-1.0-0.6","2","0","dlbozjomxchg6q9","","null","","sounds/induction/left_rev/ko_SWS.wav","","null","","","","","","","","","","","","","","","","","","","","","","","","","","","","","","","",""
"html-button-response","40","331762","0.0-4.0-1.0-1.6","2","0","dlbozjomxchg6q9","","1566.800000011921","","Was the sound coming from the left or the right?","0","","","1","INDUCTION-JUDGMENT","left","0","","","","","","","","","","","","","","","","","","","","","","","","","","",""
"html-keyboard-response","41","332777","0.0-4.0-1.0-2.6","2","0","dlbozjomxchg6q9","","null","","<p style=""color:#054d00;""><b>Correct!</b></p>","","null","","","","","","","","","","","","","","","","","","","","","","","","","","","","","","","",""
"audio-keyboard-response","42","333594","0.0-4.0-1.0-0.7","2","0","dlbozjomxchg6q9","","null","","sounds/induction/left_rev/fu_SWS.wav","","null","","","","","","","","","","","","","","","","","","","","","","","","","","","","","","","",""
"html-button-response","43","334999","0.0-4.0-1.0-1.7","2","0","dlbozjomxchg6q9","","1404.5","","Was the sound coming from the left or the right?","0","","","1","INDUCTION-JUDGMENT","left","0","","","","","","","","","","","","","","","","","","","","","","","","","","",""
"html-keyboard-response","44","336013","0.0-4.0-1.0-2.7","2","0","dlbozjomxchg6q9","","null","","<p style=""color:#054d00;""><b>Correct!</b></p>","","null","","","","","","","","","","","","","","","","","","","","","","","","","","","","","","","",""
"audio-keyboard-response","45","336834","0.0-4.0-1.0-0.8","2","0","dlbozjomxchg6q9","","null","","sounds/induction/right_rev/pu_SWS.wav","","null","","","","","","","","","","","","","","","","","","","","","","","","","","","","","","","",""
"html-button-response","46","338335","0.0-4.0-1.0-1.8","2","0","dlbozjomxchg6q9","","1500.199999988079","","Was the sound coming from the left or the right?","1","","","1","INDUCTION-JUDGMENT","right","1","","","","","","","","","","","","","","","","","","","","","","","","","","",""
"html-keyboard-response","47","339419","0.0-4.0-1.0-2.8","2","0","dlbozjomxchg6q9","","null","","<p style=""color:#054d00;""><b>Correct!</b></p>","","null","","","","","","","","","","","","","","","","","","","","","","","","","","","","","","","",""
"audio-keyboard-response","48","340214","0.0-4.0-1.0-0.9","2","0","dlbozjomxchg6q9","","null","","sounds/induction/left_rev/me_SWS.wav","","null","","","","","","","","","","","","","","","","","","","","","","","","","","","","","","","",""
"html-button-response","49","341643","0.0-4.0-1.0-1.9","2","0","dlbozjomxchg6q9","","1427.6000000238419","","Was the sound coming from the left or the right?","0","","","1","INDUCTION-JUDGMENT","left","0","","","","","","","","","","","","","","","","","","","","","","","","","","",""
"html-keyboard-response","50","342655","0.0-4.0-1.0-2.9","2","0","dlbozjomxchg6q9","","null","","<p style=""color:#054d00;""><b>Correct!</b></p>","","null","","","","","","","","","","","","","","","","","","","","","","","","","","","","","","","",""
"audio-keyboard-response","51","343475","0.0-4.0-1.0-0.10","2","0","dlbozjomxchg6q9","","null","","sounds/induction/right_rev/ta_SWS.wav","","null","","","","","","","","","","","","","","","","","","","","","","","","","","","","","","","",""
"html-button-response","52","344720","0.0-4.0-1.0-1.10","2","0","dlbozjomxchg6q9","","1245","","Was the sound coming from the left or the right?","1","","","1","INDUCTION-JUDGMENT","right","1","","","","","","","","","","","","","","","","","","","","","","","","","","",""
"html-keyboard-response","53","345733","0.0-4.0-1.0-2.10","2","0","dlbozjomxchg6q9","","null","","<p style=""color:#054d00;""><b>Correct!</b></p>","","null","","","","","","","","","","","","","","","","","","","","","","","","","","","","","","","",""
"audio-keyboard-response","54","346569","0.0-4.0-1.0-0.11","2","0","dlbozjomxchg6q9","","null","","sounds/induction/left_rev/ti_SWS.wav","","null","","","","","","","","","","","","","","","","","","","","","","","","","","","","","","","",""
"html-button-response","55","347937","0.0-4.0-1.0-1.11","2","0","dlbozjomxchg6q9","","1366.800000011921","","Was the sound coming from the left or the right?","0","","","1","INDUCTION-JUDGMENT","left","0","","","","","","","","","","","","","","","","","","","","","","","","","","",""
"html-keyboard-response","56","348953","0.0-4.0-1.0-2.11","2","0","dlbozjomxchg6q9","","null","","<p style=""color:#054d00;""><b>Correct!</b></p>","","null","","","","","","","","","","","","","","","","","","","","","","","","","","","","","","","",""
"audio-keyboard-response","57","349764","0.0-4.0-1.0-0.12","2","0","dlbozjomxchg6q9","","null","","sounds/induction/left_rev/pu_SWS.wav","","null","","","","","","","","","","","","","","","","","","","","","","","","","","","","","","","",""
"html-button-response","58","350953","0.0-4.0-1.0-1.12","2","0","dlbozjomxchg6q9","","1188.300000011921","","Was the sound coming from the left or the right?","0","","","1","INDUCTION-JUDGMENT","left","0","","","","","","","","","","","","","","","","","","","","","","","","","","",""
"html-keyboard-response","59","351961","0.0-4.0-1.0-2.12","2","0","dlbozjomxchg6q9","","null","","<p style=""color:#054d00;""><b>Correct!</b></p>","","null","","","","","","","","","","","","","","","","","","","","","","","","","","","","","","","",""
"audio-keyboard-response","60","352844","0.0-4.0-1.0-0.13","2","0","dlbozjomxchg6q9","","null","","sounds/induction/right_rev/fe_SWS.wav","","null","","","","","","","","","","","","","","","","","","","","","","","","","","","","","","","",""
"html-button-response","61","354051","0.0-4.0-1.0-1.13","2","0","dlbozjomxchg6q9","","1206.699999988079","","Was the sound coming from the left or the right?","1","","","1","INDUCTION-JUDGMENT","right","1","","","","","","","","","","","","","","","","","","","","","","","","","","",""
"html-keyboard-response","62","355061","0.0-4.0-1.0-2.13","2","0","dlbozjomxchg6q9","","null","","<p style=""color:#054d00;""><b>Correct!</b></p>","","null","","","","","","","","","","","","","","","","","","","","","","","","","","","","","","","",""
"audio-keyboard-response","63","355884","0.0-4.0-1.0-0.14","2","0","dlbozjomxchg6q9","","null","","sounds/induction/right_rev/re_SWS.wav","","null","","","","","","","","","","","","","","","","","","","","","","","","","","","","","","","",""
"html-button-response","64","357062","0.0-4.0-1.0-1.14","2","0","dlbozjomxchg6q9","","1176.1000000238419","","Was the sound coming from the left or the right?","1","","","1","INDUCTION-JUDGMENT","right","1","","","","","","","","","","","","","","","","","","","","","","","","","","",""
"html-keyboard-response","65","358071","0.0-4.0-1.0-2.14","2","0","dlbozjomxchg6q9","","null","","<p style=""color:#054d00;""><b>Correct!</b></p>","","null","","","","","","","","","","","","","","","","","","","","","","","","","","","","","","","",""
"audio-keyboard-response","66","358884","0.0-4.0-1.0-0.15","2","0","dlbozjomxchg6q9","","null","","sounds/induction/left_rev/ni_SWS.wav","","null","","","","","","","","","","","","","","","","","","","","","","","","","","","","","","","",""
"html-button-response","67","360327","0.0-4.0-1.0-1.15","2","0","dlbozjomxchg6q9","","1442.2999999523163","","Was the sound coming from the left or the right?","0","","","1","INDUCTION-JUDGMENT","left","0","","","","","","","","","","","","","","","","","","","","","","","","","","",""
"html-keyboard-response","68","361329","0.0-4.0-1.0-2.15","2","0","dlbozjomxchg6q9","","null","","<p style=""color:#054d00;""><b>Correct!</b></p>","","null","","","","","","","","","","","","","","","","","","","","","","","","","","","","","","","",""
"audio-keyboard-response","69","362154","0.0-4.0-1.0-0.16","2","0","dlbozjomxchg6q9","","null","","sounds/induction/right_rev/fe_SWS.wav","","null","","","","","","","","","","","","","","","","","","","","","","","","","","","","","","","",""
"html-button-response","70","363362","0.0-4.0-1.0-1.16","2","0","dlbozjomxchg6q9","","1205.5","","Was the sound coming from the left or the right?","1","","","1","INDUCTION-JUDGMENT","right","1","","","","","","","","","","","","","","","","","","","","","","","","","","",""
"html-keyboard-response","71","364367","0.0-4.0-1.0-2.16","2","0","dlbozjomxchg6q9","","null","","<p style=""color:#054d00;""><b>Correct!</b></p>","","null","","","","","","","","","","","","","","","","","","","","","","","","","","","","","","","",""
"audio-keyboard-response","72","365175","0.0-4.0-1.0-0.17","2","0","dlbozjomxchg6q9","","null","","sounds/induction/right_rev/ni_SWS.wav","","null","","","","","","","","","","","","","","","","","","","","","","","","","","","","","","","",""
"html-button-response","73","366189","0.0-4.0-1.0-1.17","2","0","dlbozjomxchg6q9","","1012.7000000476837","","Was the sound coming from the left or the right?","1","","","1","INDUCTION-JUDGMENT","right","1","","","","","","","","","","","","","","","","","","","","","","","","","","",""
"html-keyboard-response","74","367199","0.0-4.0-1.0-2.17","2","0","dlbozjomxchg6q9","","null","","<p style=""color:#054d00;""><b>Correct!</b></p>","","null","","","","","","","","","","","","","","","","","","","","","","","","","","","","","","","",""
"audio-keyboard-response","75","368014","0.0-4.0-1.0-0.18","2","0","dlbozjomxchg6q9","","null","","sounds/induction/right_rev/ta_SWS.wav","","null","","","","","","","","","","","","","","","","","","","","","","","","","","","","","","","",""
"html-button-response","76","369266","0.0-4.0-1.0-1.18","2","0","dlbozjomxchg6q9","","1250.699999988079","","Was the sound coming from the left or the right?","1","","","1","INDUCTION-JUDGMENT","right","1","","","","","","","","","","","","","","","","","","","","","","","","","","",""
"html-keyboard-response","77","370271","0.0-4.0-1.0-2.18","2","0","dlbozjomxchg6q9","","null","","<p style=""color:#054d00;""><b>Correct!</b></p>","","null","","","","","","","","","","","","","","","","","","","","","","","","","","","","","","","",""
"audio-keyboard-response","78","371084","0.0-4.0-1.0-0.19","2","0","dlbozjomxchg6q9","","null","","sounds/induction/right_rev/fu_SWS.wav","","null","","","","","","","","","","","","","","","","","","","","","","","","","","","","","","","",""
"html-button-response","79","372210","0.0-4.0-1.0-1.19","2","0","dlbozjomxchg6q9","","1125.0999999642372","","Was the sound coming from the left or the right?","1","","","1","INDUCTION-JUDGMENT","right","1","","","","","","","","","","","","","","","","","","","","","","","","","","",""
"html-keyboard-response","80","373227","0.0-4.0-1.0-2.19","2","0","dlbozjomxchg6q9","","null","","<p style=""color:#054d00;""><b>Correct!</b></p>","","null","","","","","","","","","","","","","","","","","","","","","","","","","","","","","","","",""
"audio-keyboard-response","81","374046","0.0-4.0-1.0-0.20","2","0","dlbozjomxchg6q9","","null","","sounds/induction/left_rev/ru_SWS.wav","","null","","","","","","","","","","","","","","","","","","","","","","","","","","","","","","","",""
"html-button-response","82","375295","0.0-4.0-1.0-1.20","2","0","dlbozjomxchg6q9","","1248.699999988079","","Was the sound coming from the left or the right?","0","","","1","INDUCTION-JUDGMENT","left","0","","","","","","","","","","","","","","","","","","","","","","","","","","",""
"html-keyboard-response","83","376306","0.0-4.0-1.0-2.20","2","0","dlbozjomxchg6q9","","null","","<p style=""color:#054d00;""><b>Correct!</b></p>","","null","","","","","","","","","","","","","","","","","","","","","","","","","","","","","","","",""
"audio-keyboard-response","84","377124","0.0-4.0-1.0-0.21","2","0","dlbozjomxchg6q9","","null","","sounds/induction/left_rev/fu_SWS.wav","","null","","","","","","","","","","","","","","","","","","","","","","","","","","","","","","","",""
"html-button-response","85","378380","0.0-4.0-1.0-1.21","2","0","dlbozjomxchg6q9","","1254.5","","Was the sound coming from the left or the right?","0","","","1","INDUCTION-JUDGMENT","left","0","","","","","","","","","","","","","","","","","","","","","","","","","","",""
"html-keyboard-response","86","379385","0.0-4.0-1.0-2.21","2","0","dlbozjomxchg6q9","","null","","<p style=""color:#054d00;""><b>Correct!</b></p>","","null","","","","","","","","","","","","","","","","","","","","","","","","","","","","","","","",""
"audio-keyboard-response","87","380194","0.0-4.0-1.0-0.22","2","0","dlbozjomxchg6q9","","null","","sounds/induction/right_rev/ru_SWS.wav","","null","","","","","","","","","","","","","","","","","","","","","","","","","","","","","","","",""
"html-button-response","88","381528","0.0-4.0-1.0-1.22","2","0","dlbozjomxchg6q9","","1333.4000000357628","","Was the sound coming from the left or the right?","1","","","1","INDUCTION-JUDGMENT","right","1","","","","","","","","","","","","","","","","","","","","","","","","","","",""
"html-keyboard-response","89","382531","0.0-4.0-1.0-2.22","2","0","dlbozjomxchg6q9","","null","","<p style=""color:#054d00;""><b>Correct!</b></p>","","null","","","","","","","","","","","","","","","","","","","","","","","","","","","","","","","",""
"audio-keyboard-response","90","383325","0.0-4.0-1.0-0.23","2","0","dlbozjomxchg6q9","","null","","sounds/induction/right_rev/me_SWS.wav","","null","","","","","","","","","","","","","","","","","","","","","","","","","","","","","","","",""
"html-button-response","91","384425","0.0-4.0-1.0-1.23","2","0","dlbozjomxchg6q9","","1099.0999999642372","","Was the sound coming from the left or the right?","1","","","1","INDUCTION-JUDGMENT","right","1","","","","","","","","","","","","","","","","","","","","","","","","","","",""
"html-keyboard-response","92","385428","0.0-4.0-1.0-2.23","2","0","dlbozjomxchg6q9","","null","","<p style=""color:#054d00;""><b>Correct!</b></p>","","null","","","","","","","","","","","","","","","","","","","","","","","","","","","","","","","",""
"audio-keyboard-response","93","386284","0.0-4.0-1.0-0.24","2","0","dlbozjomxchg6q9","","null","","sounds/induction/right_rev/pu_SWS.wav","","null","","","","","","","","","","","","","","","","","","","","","","","","","","","","","","","",""
"html-button-response","94","387461","0.0-4.0-1.0-1.24","2","0","dlbozjomxchg6q9","","1176.199999988079","","Was the sound coming from the left or the right?","1","","","1","INDUCTION-JUDGMENT","right","1","","","","","","","","","","","","","","","","","","","","","","","","","","",""
"html-keyboard-response","95","388477","0.0-4.0-1.0-2.24","2","0","dlbozjomxchg6q9","","null","","<p style=""color:#054d00;""><b>Correct!</b></p>","","null","","","","","","","","","","","","","","","","","","","","","","","","","","","","","","","",""
"audio-keyboard-response","96","389284","0.0-4.0-1.0-0.25","2","0","dlbozjomxchg6q9","","null","","sounds/induction/left_rev/fe_SWS.wav","","null","","","","","","","","","","","","","","","","","","","","","","","","","","","","","","","",""
"html-button-response","97","390420","0.0-4.0-1.0-1.25","2","0","dlbozjomxchg6q9","","1134.800000011921","","Was the sound coming from the left or the right?","0","","","1","INDUCTION-JUDGMENT","left","0","","","","","","","","","","","","","","","","","","","","","","","","","","",""
"html-keyboard-response","98","391426","0.0-4.0-1.0-2.25","2","0","dlbozjomxchg6q9","","null","","<p style=""color:#054d00;""><b>Correct!</b></p>","","null","","","","","","","","","","","","","","","","","","","","","","","","","","","","","","","",""
"audio-keyboard-response","99","392255","0.0-4.0-1.0-0.26","2","0","dlbozjomxchg6q9","","null","","sounds/induction/left_rev/su_SWS.wav","","null","","","","","","","","","","","","","","","","","","","","","","","","","","","","","","","",""
"html-button-response","100","393611","0.0-4.0-1.0-1.26","2","0","dlbozjomxchg6q9","","1355.1000000238419","","Was the sound coming from the left or the right?","0","","","1","INDUCTION-JUDGMENT","left","0","","","","","","","","","","","","","","","","","","","","","","","","","","",""
"html-keyboard-response","101","394612","0.0-4.0-1.0-2.26","2","0","dlbozjomxchg6q9","","null","","<p style=""color:#054d00;""><b>Correct!</b></p>","","null","","","","","","","","","","","","","","","","","","","","","","","","","","","","","","","",""
"audio-keyboard-response","102","395434","0.0-4.0-1.0-0.27","2","0","dlbozjomxchg6q9","","null","","sounds/induction/left_rev/ko_SWS.wav","","null","","","","","","","","","","","","","","","","","","","","","","","","","","","","","","","",""
"html-button-response","103","396423","0.0-4.0-1.0-1.27","2","0","dlbozjomxchg6q9","","987.6999999880791","","Was the sound coming from the left or the right?","0","","","1","INDUCTION-JUDGMENT","left","0","","","","","","","","","","","","","","","","","","","","","","","","","","",""
"html-keyboard-response","104","397432","0.0-4.0-1.0-2.27","2","0","dlbozjomxchg6q9","","null","","<p style=""color:#054d00;""><b>Correct!</b></p>","","null","","","","","","","","","","","","","","","","","","","","","","","","","","","","","","","",""
"audio-keyboard-response","105","398254","0.0-4.0-1.0-0.28","2","0","dlbozjomxchg6q9","","null","","sounds/induction/left_rev/re_SWS.wav","","null","","","","","","","","","","","","","","","","","","","","","","","","","","","","","","","",""
"html-button-response","106","399117","0.0-4.0-1.0-1.28","2","0","dlbozjomxchg6q9","","862.2000000476837","","Was the sound coming from the left or the right?","0","","","1","INDUCTION-JUDGMENT","left","0","","","","","","","","","","","","","","","","","","","","","","","","","","",""
"html-keyboard-response","107","400128","0.0-4.0-1.0-2.28","2","0","dlbozjomxchg6q9","","null","","<p style=""color:#054d00;""><b>Correct!</b></p>","","null","","","","","","","","","","","","","","","","","","","","","","","","","","","","","","","",""
"audio-keyboard-response","108","400934","0.0-4.0-1.0-0.29","2","0","dlbozjomxchg6q9","","null","","sounds/induction/right_rev/ru_SWS.wav","","null","","","","","","","","","","","","","","","","","","","","","","","","","","","","","","","",""
"html-button-response","109","401994","0.0-4.0-1.0-1.29","2","0","dlbozjomxchg6q9","","1058.5","","Was the sound coming from the left or the right?","1","","","1","INDUCTION-JUDGMENT","right","1","","","","","","","","","","","","","","","","","","","","","","","","","","",""
"html-keyboard-response","110","403001","0.0-4.0-1.0-2.29","2","0","dlbozjomxchg6q9","","null","","<p style=""color:#054d00;""><b>Correct!</b></p>","","null","","","","","","","","","","","","","","","","","","","","","","","","","","","","","","","",""
"audio-keyboard-response","111","403821","0.0-4.0-1.0-0.30","2","0","dlbozjomxchg6q9","","null","","sounds/induction/left_rev/ru_SWS.wav","","null","","","","","","","","","","","","","","","","","","","","","","","","","","","","","","","",""
"html-button-response","112","404786","0.0-4.0-1.0-1.30","2","0","dlbozjomxchg6q9","","964.3000000119209","","Was the sound coming from the left or the right?","0","","","1","INDUCTION-JUDGMENT","left","0","","","","","","","","","","","","","","","","","","","","","","","","","","",""
"html-keyboard-response","113","405800","0.0-4.0-1.0-2.30","2","0","dlbozjomxchg6q9","","null","","<p style=""color:#054d00;""><b>Correct!</b></p>","","null","","","","","","","","","","","","","","","","","","","","","","","","","","","","","","","",""
"audio-keyboard-response","114","406634","0.0-4.0-1.0-0.31","2","0","dlbozjomxchg6q9","","null","","sounds/induction/right_rev/ge_SWS.wav","","null","","","","","","","","","","","","","","","","","","","","","","","","","","","","","","","",""
"html-button-response","115","407927","0.0-4.0-1.0-1.31","2","0","dlbozjomxchg6q9","","1292","","Was the sound coming from the left or the right?","1","","","1","INDUCTION-JUDGMENT","right","1","","","","","","","","","","","","","","","","","","","","","","","","","","",""
"html-keyboard-response","116","408933","0.0-4.0-1.0-2.31","2","0","dlbozjomxchg6q9","","null","","<p style=""color:#054d00;""><b>Correct!</b></p>","","null","","","","","","","","","","","","","","","","","","","","","","","","","","","","","","","",""
"audio-keyboard-response","117","409754","0.0-4.0-1.0-0.32","2","0","dlbozjomxchg6q9","","null","","sounds/induction/left_rev/me_SWS.wav","","null","","","","","","","","","","","","","","","","","","","","","","","","","","","","","","","",""
"html-button-response","118","410811","0.0-4.0-1.0-1.32","2","0","dlbozjomxchg6q9","","1055.699999988079","","Was the sound coming from the left or the right?","0","","","1","INDUCTION-JUDGMENT","left","0","","","","","","","","","","","","","","","","","","","","","","","","","","",""
"html-keyboard-response","119","411816","0.0-4.0-1.0-2.32","2","0","dlbozjomxchg6q9","","null","","<p style=""color:#054d00;""><b>Correct!</b></p>","","null","","","","","","","","","","","","","","","","","","","","","","","","","","","","","","","",""
"audio-keyboard-response","120","412634","0.0-4.0-1.0-0.33","2","0","dlbozjomxchg6q9","","null","","sounds/induction/left_rev/ge_SWS.wav","","null","","","","","","","","","","","","","","","","","","","","","","","","","","","","","","","",""
"html-button-response","121","413435","0.0-4.0-1.0-1.33","2","0","dlbozjomxchg6q9","","800.5","","Was the sound coming from the left or the right?","0","","","1","INDUCTION-JUDGMENT","left","0","","","","","","","","","","","","","","","","","","","","","","","","","","",""
"html-keyboard-response","122","414448","0.0-4.0-1.0-2.33","2","0","dlbozjomxchg6q9","","null","","<p style=""color:#054d00;""><b>Correct!</b></p>","","null","","","","","","","","","","","","","","","","","","","","","","","","","","","","","","","",""
"audio-keyboard-response","123","415254","0.0-4.0-1.0-0.34","2","0","dlbozjomxchg6q9","","null","","sounds/induction/left_rev/su_SWS.wav","","null","","","","","","","","","","","","","","","","","","","","","","","","","","","","","","","",""
"html-button-response","124","415977","0.0-4.0-1.0-1.34","2","0","dlbozjomxchg6q9","","721.8000000119209","","Was the sound coming from the left or the right?","0","","","1","INDUCTION-JUDGMENT","left","0","","","","","","","","","","","","","","","","","","","","","","","","","","",""
"html-keyboard-response","125","417004","0.0-4.0-1.0-2.34","2","0","dlbozjomxchg6q9","","null","","<p style=""color:#054d00;""><b>Correct!</b></p>","","null","","","","","","","","","","","","","","","","","","","","","","","","","","","","","","","",""
"audio-keyboard-response","126","417814","0.0-4.0-1.0-0.35","2","0","dlbozjomxchg6q9","","null","","sounds/induction/right_rev/ni_SWS.wav","","null","","","","","","","","","","","","","","","","","","","","","","","","","","","","","","","",""
"html-button-response","127","418777","0.0-4.0-1.0-1.35","2","0","dlbozjomxchg6q9","","961.5999999642372","","Was the sound coming from the left or the right?","1","","","1","INDUCTION-JUDGMENT","right","1","","","","","","","","","","","","","","","","","","","","","","","","","","",""
"html-keyboard-response","128","419791","0.0-4.0-1.0-2.35","2","0","dlbozjomxchg6q9","","null","","<p style=""color:#054d00;""><b>Correct!</b></p>","","null","","","","","","","","","","","","","","","","","","","","","","","","","","","","","","","",""
"audio-keyboard-response","129","420594","0.0-4.0-1.0-0.36","2","0","dlbozjomxchg6q9","","null","","sounds/induction/right_rev/ko_SWS.wav","","null","","","","","","","","","","","","","","","","","","","","","","","","","","","","","","","",""
"html-button-response","130","421728","0.0-4.0-1.0-1.36","2","0","dlbozjomxchg6q9","","1133.3999999761581","","Was the sound coming from the left or the right?","1","","","1","INDUCTION-JUDGMENT","right","1","","","","","","","","","","","","","","","","","","","","","","","","","","",""
"html-keyboard-response","131","422737","0.0-4.0-1.0-2.36","2","0","dlbozjomxchg6q9","","null","","<p style=""color:#054d00;""><b>Correct!</b></p>","","null","","","","","","","","","","","","","","","","","","","","","","","","","","","","","","","",""
"audio-keyboard-response","132","423554","0.0-4.0-1.0-0.37","2","0","dlbozjomxchg6q9","","null","","sounds/induction/left_rev/ge_SWS.wav","","null","","","","","","","","","","","","","","","","","","","","","","","","","","","","","","","",""
"html-button-response","133","424591","0.0-4.0-1.0-1.37","2","0","dlbozjomxchg6q9","","1035.7999999523163","","Was the sound coming from the left or the right?","0","","","1","INDUCTION-JUDGMENT","left","0","","","","","","","","","","","","","","","","","","","","","","","","","","",""
"html-keyboard-response","134","425594","0.0-4.0-1.0-2.37","2","0","dlbozjomxchg6q9","","null","","<p style=""color:#054d00;""><b>Correct!</b></p>","","null","","","","","","","","","","","","","","","","","","","","","","","","","","","","","","","",""
"audio-keyboard-response","135","426405","0.0-4.0-1.0-0.38","2","0","dlbozjomxchg6q9","","null","","sounds/induction/left_rev/pu_SWS.wav","","null","","","","","","","","","","","","","","","","","","","","","","","","","","","","","","","",""
"html-button-response","136","427425","0.0-4.0-1.0-1.38","2","0","dlbozjomxchg6q9","","1019.5","","Was the sound coming from the left or the right?","0","","","1","INDUCTION-JUDGMENT","left","0","","","","","","","","","","","","","","","","","","","","","","","","","","",""
"html-keyboard-response","137","428432","0.0-4.0-1.0-2.38","2","0","dlbozjomxchg6q9","","null","","<p style=""color:#054d00;""><b>Correct!</b></p>","","null","","","","","","","","","","","","","","","","","","","","","","","","","","","","","","","",""
"audio-keyboard-response","138","429244","0.0-4.0-1.0-0.39","2","0","dlbozjomxchg6q9","","null","","sounds/induction/right_rev/ti_SWS.wav","","null","","","","","","","","","","","","","","","","","","","","","","","","","","","","","","","",""
"html-button-response","139","430462","0.0-4.0-1.0-1.39","2","0","dlbozjomxchg6q9","","1216.300000011921","","Was the sound coming from the left or the right?","1","","","1","INDUCTION-JUDGMENT","right","1","","","","","","","","","","","","","","","","","","","","","","","","","","",""
"html-keyboard-response","140","431476","0.0-4.0-1.0-2.39","2","0","dlbozjomxchg6q9","","null","","<p style=""color:#054d00;""><b>Correct!</b></p>","","null","","","","","","","","","","","","","","","","","","","","","","","","","","","","","","","",""
"audio-keyboard-response","141","432284","0.0-4.0-1.0-0.40","2","0","dlbozjomxchg6q9","","null","","sounds/induction/right_rev/su_SWS.wav","","null","","","","","","","","","","","","","","","","","","","","","","","","","","","","","","","",""
"html-button-response","142","433212","0.0-4.0-1.0-1.40","2","0","dlbozjomxchg6q9","","926.3000000119209","","Was the sound coming from the left or the right?","1","","","1","INDUCTION-JUDGMENT","right","1","","","","","","","","","","","","","","","","","","","","","","","","","","",""
"html-keyboard-response","143","434223","0.0-4.0-1.0-2.40","2","0","dlbozjomxchg6q9","","null","","<p style=""color:#054d00;""><b>Correct!</b></p>","","null","","","","","","","","","","","","","","","","","","","","","","","","","","","","","","","",""
"audio-keyboard-response","144","435044","0.0-4.0-1.0-0.41","2","0","dlbozjomxchg6q9","","null","","sounds/induction/right_rev/ti_SWS.wav","","null","","","","","","","","","","","","","","","","","","","","","","","","","","","","","","","",""
"html-button-response","145","436034","0.0-4.0-1.0-1.41","2","0","dlbozjomxchg6q9","","987.9000000357628","","Was the sound coming from the left or the right?","1","","","1","INDUCTION-JUDGMENT","right","1","","","","","","","","","","","","","","","","","","","","","","","","","","",""
"html-keyboard-response","146","437041","0.0-4.0-1.0-2.41","2","0","dlbozjomxchg6q9","","null","","<p style=""color:#054d00;""><b>Correct!</b></p>","","null","","","","","","","","","","","","","","","","","","","","","","","","","","","","","","","",""
"audio-keyboard-response","147","437844","0.0-4.0-1.0-0.42","2","0","dlbozjomxchg6q9","","null","","sounds/induction/left_rev/ta_SWS.wav","","null","","","","","","","","","","","","","","","","","","","","","","","","","","","","","","","",""
"html-button-response","148","438853","0.0-4.0-1.0-1.42","2","0","dlbozjomxchg6q9","","1008.1000000238419","","Was the sound coming from the left or the right?","0","","","1","INDUCTION-JUDGMENT","left","0","","","","","","","","","","","","","","","","","","","","","","","","","","",""
"html-keyboard-response","149","439857","0.0-4.0-1.0-2.42","2","0","dlbozjomxchg6q9","","null","","<p style=""color:#054d00;""><b>Correct!</b></p>","","null","","","","","","","","","","","","","","","","","","","","","","","","","","","","","","","",""
"audio-keyboard-response","150","440654","0.0-4.0-1.0-0.43","2","0","dlbozjomxchg6q9","","null","","sounds/induction/right_rev/fu_SWS.wav","","null","","","","","","","","","","","","","","","","","","","","","","","","","","","","","","","",""
"html-button-response","151","441868","0.0-4.0-1.0-1.43","2","0","dlbozjomxchg6q9","","1212.800000011921","","Was the sound coming from the left or the right?","1","","","1","INDUCTION-JUDGMENT","right","1","","","","","","","","","","","","","","","","","","","","","","","","","","",""
"html-keyboard-response","152","442883","0.0-4.0-1.0-2.43","2","0","dlbozjomxchg6q9","","null","","<p style=""color:#054d00;""><b>Correct!</b></p>","","null","","","","","","","","","","","","","","","","","","","","","","","","","","","","","","","",""
"audio-keyboard-response","153","443694","0.0-4.0-1.0-0.44","2","0","dlbozjomxchg6q9","","null","","sounds/induction/right_rev/me_SWS.wav","","null","","","","","","","","","","","","","","","","","","","","","","","","","","","","","","","",""
"html-button-response","154","444814","0.0-4.0-1.0-1.44","2","0","dlbozjomxchg6q9","","1118.5999999642372","","Was the sound coming from the left or the right?","1","","","1","INDUCTION-JUDGMENT","right","1","","","","","","","","","","","","","","","","","","","","","","","","","","",""
"html-keyboard-response","155","445831","0.0-4.0-1.0-2.44","2","0","dlbozjomxchg6q9","","null","","<p style=""color:#054d00;""><b>Correct!</b></p>","","null","","","","","","","","","","","","","","","","","","","","","","","","","","","","","","","",""
"audio-keyboard-response","156","446644","0.0-4.0-1.0-0.45","2","0","dlbozjomxchg6q9","","null","","sounds/induction/left_rev/re_SWS.wav","","null","","","","","","","","","","","","","","","","","","","","","","","","","","","","","","","",""
"html-button-response","157","447676","0.0-4.0-1.0-1.45","2","0","dlbozjomxchg6q9","","1030.800000011921","","Was the sound coming from the left or the right?","0","","","1","INDUCTION-JUDGMENT","left","0","","","","","","","","","","","","","","","","","","","","","","","","","","",""
"html-keyboard-response","158","448683","0.0-4.0-1.0-2.45","2","0","dlbozjomxchg6q9","","null","","<p style=""color:#054d00;""><b>Correct!</b></p>","","null","","","","","","","","","","","","","","","","","","","","","","","","","","","","","","","",""
"audio-keyboard-response","159","449514","0.0-4.0-1.0-0.46","2","0","dlbozjomxchg6q9","","null","","sounds/induction/right_rev/ko_SWS.wav","","null","","","","","","","","","","","","","","","","","","","","","","","","","","","","","","","",""
"html-button-response","160","450776","0.0-4.0-1.0-1.46","2","0","dlbozjomxchg6q9","","1260.800000011921","","Was the sound coming from the left or the right?","1","","","1","INDUCTION-JUDGMENT","right","1","","","","","","","","","","","","","","","","","","","","","","","","","","",""
"html-keyboard-response","161","451788","0.0-4.0-1.0-2.46","2","0","dlbozjomxchg6q9","","null","","<p style=""color:#054d00;""><b>Correct!</b></p>","","null","","","","","","","","","","","","","","","","","","","","","","","","","","","","","","","",""
"audio-keyboard-response","162","452604","0.0-4.0-1.0-0.47","2","0","dlbozjomxchg6q9","","null","","sounds/induction/left_rev/ti_SWS.wav","","null","","","","","","","","","","","","","","","","","","","","","","","","","","","","","","","",""
"html-button-response","163","453688","0.0-4.0-1.0-1.47","2","0","dlbozjomxchg6q9","","1082.5999999642372","","Was the sound coming from the left or the right?","0","","","1","INDUCTION-JUDGMENT","left","0","","","","","","","","","","","","","","","","","","","","","","","","","","",""
"html-keyboard-response","164","454691","0.0-4.0-1.0-2.47","2","0","dlbozjomxchg6q9","","null","","<p style=""color:#054d00;""><b>Correct!</b></p>","","null","","","","","","","","","","","","","","","","","","","","","","","","","","","","","","","",""
"html-button-response","165","467408","0.0-5.0-0.0","2","0","dlbozjomxchg6q9","","12194","","<p>Thank you for your answers.</p><p>You will now listen to similar sounds. The main difference is that the sounds will be longer.</p><p>Just as before, you will be asked to judge whether the sound was coming from the left or the right.</p><p>There are 10 of these longer sounds in total.","0","","","","","","","","","","","","","","","","","","","","","","","","","","","","","","","","",""
"audio-keyboard-response","166","470434","0.0-5.0-1.0-0.0","2","0","dlbozjomxchg6q9","","null","","sounds/sentences/right_rev/14_10_cfSWS.wav","","null","","","","","","","","","","","","","","","","","","","","","","","","","","","","","","","",""
"html-button-response","167","476886","0.0-5.0-1.0-1.0","2","0","dlbozjomxchg6q9","","6450.5","","Was the sound coming from the left or the right?","1","","","1","INDUCTION-JUDGMENT","right","1","","","","","","","","","","","","","","","","","","","","","","","","","","",""
"html-keyboard-response","168","477888","0.0-5.0-1.0-2.0","2","0","dlbozjomxchg6q9","","null","","<p style=""color:#054d00;""><b>Correct!</b></p>","","null","","","","","","","","","","","","","","","","","","","","","","","","","","","","","","","",""
"html-button-response","169","482910","0.0-5.0-1.0-3.0","2","0","dlbozjomxchg6q9","","4520.699999988079","","<p>Press the button below when you are ready to continue.</p>","0","","","","","","","","","","","","","","","","","","","","","","","","","","","","","","","","",""
"audio-keyboard-response","170","485494","0.0-5.0-1.0-0.1","2","0","dlbozjomxchg6q9","","null","","sounds/sentences/left_rev/14_03_cfSWS.wav","","null","","","","","","","","","","","","","","","","","","","","","","","","","","","","","","","",""
"html-button-response","171","487147","0.0-5.0-1.0-1.1","2","0","dlbozjomxchg6q9","","1651.800000011921","","Was the sound coming from the left or the right?","0","","","1","INDUCTION-JUDGMENT","left","0","","","","","","","","","","","","","","","","","","","","","","","","","","",""
"html-keyboard-response","172","488148","0.0-5.0-1.0-2.1","2","0","dlbozjomxchg6q9","","null","","<p style=""color:#054d00;""><b>Correct!</b></p>","","null","","","","","","","","","","","","","","","","","","","","","","","","","","","","","","","",""
"html-button-response","173","489584","0.0-5.0-1.0-3.1","2","0","dlbozjomxchg6q9","","919.6000000238419","","<p>Press the button below when you are ready to continue.</p>","0","","","","","","","","","","","","","","","","","","","","","","","","","","","","","","","","",""
"audio-keyboard-response","174","492575","0.0-5.0-1.0-0.2","2","0","dlbozjomxchg6q9","","null","","sounds/sentences/left_rev/14_05_cfSWS.wav","","null","","","","","","","","","","","","","","","","","","","","","","","","","","","","","","","",""
"html-button-response","175","493344","0.0-5.0-1.0-1.2","2","0","dlbozjomxchg6q9","","767.5","","Was the sound coming from the left or the right?","0","","","1","INDUCTION-JUDGMENT","left","0","","","","","","","","","","","","","","","","","","","","","","","","","","",""
"html-keyboard-response","176","494350","0.0-5.0-1.0-2.2","2","0","dlbozjomxchg6q9","","null","","<p style=""color:#054d00;""><b>Correct!</b></p>","","null","","","","","","","","","","","","","","","","","","","","","","","","","","","","","","","",""
"html-button-response","177","495906","0.0-5.0-1.0-3.2","2","0","dlbozjomxchg6q9","","1043.0999999642372","","<p>Press the button below when you are ready to continue.</p>","0","","","","","","","","","","","","","","","","","","","","","","","","","","","","","","","","",""
"audio-keyboard-response","178","498724","0.0-5.0-1.0-0.3","2","0","dlbozjomxchg6q9","","null","","sounds/sentences/left_rev/14_02_cfSWS.wav","","null","","","","","","","","","","","","","","","","","","","","","","","","","","","","","","","",""
"html-button-response","179","499474","0.0-5.0-1.0-1.3","2","0","dlbozjomxchg6q9","","748.5","","Was the sound coming from the left or the right?","0","","","1","INDUCTION-JUDGMENT","left","0","","","","","","","","","","","","","","","","","","","","","","","","","","",""
"html-keyboard-response","180","500475","0.0-5.0-1.0-2.3","2","0","dlbozjomxchg6q9","","null","","<p style=""color:#054d00;""><b>Correct!</b></p>","","null","","","","","","","","","","","","","","","","","","","","","","","","","","","","","","","",""
"html-button-response","181","501848","0.0-5.0-1.0-3.3","2","0","dlbozjomxchg6q9","","871.4000000357628","","<p>Press the button below when you are ready to continue.</p>","0","","","","","","","","","","","","","","","","","","","","","","","","","","","","","","","","",""
"audio-keyboard-response","182","504404","0.0-5.0-1.0-0.4","2","0","dlbozjomxchg6q9","","null","","sounds/sentences/left_rev/14_04_cfSWS.wav","","null","","","","","","","","","","","","","","","","","","","","","","","","","","","","","","","",""
"html-button-response","183","505946","0.0-5.0-1.0-1.4","2","0","dlbozjomxchg6q9","","1540.300000011921","","Was the sound coming from the left or the right?","0","","","1","INDUCTION-JUDGMENT","left","0","","","","","","","","","","","","","","","","","","","","","","","","","","",""
"html-keyboard-response","184","506954","0.0-5.0-1.0-2.4","2","0","dlbozjomxchg6q9","","null","","<p style=""color:#054d00;""><b>Correct!</b></p>","","null","","","","","","","","","","","","","","","","","","","","","","","","","","","","","","","",""
"html-button-response","185","511168","0.0-5.0-1.0-3.4","2","0","dlbozjomxchg6q9","","3698","","<p>Press the button below when you are ready to continue.</p>","0","","","","","","","","","","","","","","","","","","","","","","","","","","","","","","","","",""
"audio-keyboard-response","186","514294","0.0-5.0-1.0-0.5","2","0","dlbozjomxchg6q9","","null","","sounds/sentences/left_rev/14_01_cfSWS.wav","","null","","","","","","","","","","","","","","","","","","","","","","","","","","","","","","","",""
"html-button-response","187","515433","0.0-5.0-1.0-1.5","2","0","dlbozjomxchg6q9","","1137.5","","Was the sound coming from the left or the right?","0","","","1","INDUCTION-JUDGMENT","left","0","","","","","","","","","","","","","","","","","","","","","","","","","","",""
"html-keyboard-response","188","516447","0.0-5.0-1.0-2.5","2","0","dlbozjomxchg6q9","","null","","<p style=""color:#054d00;""><b>Correct!</b></p>","","null","","","","","","","","","","","","","","","","","","","","","","","","","","","","","","","",""
"html-button-response","189","518511","0.0-5.0-1.0-3.5","2","0","dlbozjomxchg6q9","","1561.800000011921","","<p>Press the button below when you are ready to continue.</p>","0","","","","","","","","","","","","","","","","","","","","","","","","","","","","","","","","",""
"audio-keyboard-response","190","521244","0.0-5.0-1.0-0.6","2","0","dlbozjomxchg6q9","","null","","sounds/sentences/right_rev/14_09_cfSWS.wav","","null","","","","","","","","","","","","","","","","","","","","","","","","","","","","","","","",""
"html-button-response","191","522372","0.0-5.0-1.0-1.6","2","0","dlbozjomxchg6q9","","1126.6000000238419","","Was the sound coming from the left or the right?","1","","","1","INDUCTION-JUDGMENT","right","1","","","","","","","","","","","","","","","","","","","","","","","","","","",""
"html-keyboard-response","192","523374","0.0-5.0-1.0-2.6","2","0","dlbozjomxchg6q9","","null","","<p style=""color:#054d00;""><b>Correct!</b></p>","","null","","","","","","","","","","","","","","","","","","","","","","","","","","","","","","","",""
"html-button-response","193","525220","0.0-5.0-1.0-3.6","2","0","dlbozjomxchg6q9","","1338.6000000238419","","<p>Press the button below when you are ready to continue.</p>","0","","","","","","","","","","","","","","","","","","","","","","","","","","","","","","","","",""
"audio-keyboard-response","194","527964","0.0-5.0-1.0-0.7","2","0","dlbozjomxchg6q9","","null","","sounds/sentences/right_rev/14_06_cfSWS.wav","","null","","","","","","","","","","","","","","","","","","","","","","","","","","","","","","","",""
"html-button-response","195","529023","0.0-5.0-1.0-1.7","2","0","dlbozjomxchg6q9","","1057.300000011921","","Was the sound coming from the left or the right?","1","","","1","INDUCTION-JUDGMENT","right","1","","","","","","","","","","","","","","","","","","","","","","","","","","",""
"html-keyboard-response","196","530039","0.0-5.0-1.0-2.7","2","0","dlbozjomxchg6q9","","null","","<p style=""color:#054d00;""><b>Correct!</b></p>","","null","","","","","","","","","","","","","","","","","","","","","","","","","","","","","","","",""
"html-button-response","197","531565","0.0-5.0-1.0-3.7","2","0","dlbozjomxchg6q9","","1010.9000000357628","","<p>Press the button below when you are ready to continue.</p>","0","","","","","","","","","","","","","","","","","","","","","","","","","","","","","","","","",""
"audio-keyboard-response","198","534454","0.0-5.0-1.0-0.8","2","0","dlbozjomxchg6q9","","null","","sounds/sentences/right_rev/14_07_cfSWS.wav","","null","","","","","","","","","","","","","","","","","","","","","","","","","","","","","","","",""
"html-button-response","199","535355","0.0-5.0-1.0-1.8","2","0","dlbozjomxchg6q9","","899","","Was the sound coming from the left or the right?","1","","","1","INDUCTION-JUDGMENT","right","1","","","","","","","","","","","","","","","","","","","","","","","","","","",""
"html-keyboard-response","200","536369","0.0-5.0-1.0-2.8","2","0","dlbozjomxchg6q9","","null","","<p style=""color:#054d00;""><b>Correct!</b></p>","","null","","","","","","","","","","","","","","","","","","","","","","","","","","","","","","","",""
"html-button-response","201","537799","0.0-5.0-1.0-3.8","2","0","dlbozjomxchg6q9","","919.5","","<p>Press the button below when you are ready to continue.</p>","0","","","","","","","","","","","","","","","","","","","","","","","","","","","","","","","","",""
"audio-keyboard-response","202","540554","0.0-5.0-1.0-0.9","2","0","dlbozjomxchg6q9","","null","","sounds/sentences/right_rev/14_08_cfSWS.wav","","null","","","","","","","","","","","","","","","","","","","","","","","","","","","","","","","",""
"html-button-response","203","542125","0.0-5.0-1.0-1.9","2","0","dlbozjomxchg6q9","","1569.199999988079","","Was the sound coming from the left or the right?","1","","","1","INDUCTION-JUDGMENT","right","1","","","","","","","","","","","","","","","","","","","","","","","","","","",""
"html-keyboard-response","204","543126","0.0-5.0-1.0-2.9","2","0","dlbozjomxchg6q9","","null","","<p style=""color:#054d00;""><b>Correct!</b></p>","","null","","","","","","","","","","","","","","","","","","","","","","","","","","","","","","","",""
"html-button-response","205","544282","0.0-5.0-1.0-3.9","2","0","dlbozjomxchg6q9","","654","","<p>Press the button below when you are ready to continue.</p>","0","","","","","","","","","","","","","","","","","","","","","","","","","","","","","","","","",""
"html-keyboard-response","206","573104","0.0-6.0-0.0","2","0","dlbozjomxchg6q9","","28318.700000047684","","<p>In this part of the study, you will hear sounds similar to those you just heard.</p><p>Please focus on these sounds, as you may be asked questions about them later.</p><p>Occasionally, the sounds will pause for up to two seconds. When this happens, please press SPACEBAR as quickly as you can.</br>This helps ensure that you are paying attention to the sounds.</p><p>This part of the study will take about 12 minutes to complete, and you will be given the opportunity to take a couple of short breaks every few minutes.</p><p><strong>Press SPACEBAR to begin</strong></p>","","32","","","","","","","","","","","","","","","","","","","","","","","","","","","","","","","",""
"html-keyboard-response","207","574106","0.0-6.0-1.0-0.0","2","0","dlbozjomxchg6q9","","null","","<p style=""font-size: 40px;"">+</p>","","null","","","","","","","","","","","","","","","","","","","","","","","","","","","","","","","",""
"html-keyboard-response","208","759160","0.0-6.0-1.0-1.0","2","0","dlbozjomxchg6q9","","null","","","","null","","","SL-TRAIN","","","0","1828.5","1703.800000011921","sounds/B/TRAIN/SEQ__12.mp3","2","","","","","","","","","","","","","","","","","","","","","",""
"html-button-response","209","786509","0.0-6.0-1.0-2.0","2","0","dlbozjomxchg6q9","","27346.30000001192","","<p>You may take a short break if you wish.</p>","0","","","","","","","","","","","","","","","","","","","","","","","","","","","","","","","","",""
"html-keyboard-response","210","787525","0.0-6.0-1.0-3.0","2","0","dlbozjomxchg6q9","","null","","<p style=""font-size: 40px;"">+</p>","","null","","","","","","","","","","","","","","","","","","","","","","","","","","","","","","","",""
"html-keyboard-response","211","972527","0.0-6.0-1.0-4.0","2","0","dlbozjomxchg6q9","","null","","","","null","","","SL-TRAIN","","","0","1523.5999999642372","1457.0999999642372","sounds/B/TRAIN/SEQ__04.mp3","4","","","","","","","","","","","","","","","","","","","","","",""
"html-button-response","212","984273","0.0-6.0-1.0-5.0","2","0","dlbozjomxchg6q9","","11743.799999952316","","<p>You may take a short break if you wish.</p>","0","","","","","","","","","","","","","","","","","","","","","","","","","","","","","","","","",""
"html-keyboard-response","213","985274","0.0-6.0-1.0-6.0","2","0","dlbozjomxchg6q9","","null","","<p style=""font-size: 40px;"">+</p>","","null","","","","","","","","","","","","","","","","","","","","","","","","","","","","","","","",""
"html-keyboard-response","214","1170277","0.0-6.0-1.0-7.0","2","0","dlbozjomxchg6q9","","null","","","","null","","","SL-TRAIN","","","1","1977.8999999761581","null","sounds/B/TRAIN/SEQ__11.mp3","14","","","","","","","","","","","","","","","","","","","","","",""
"html-button-response","215","1180768","0.0-6.0-1.0-8.0","2","0","dlbozjomxchg6q9","","10490.199999988079","","<p>You may take a short break if you wish.</p>","0","","","","","","","","","","","","","","","","","","","","","","","","","","","","","","","","",""
"html-keyboard-response","216","1181879","0.0-6.0-1.0-9.0","2","0","dlbozjomxchg6q9","","null","","<p style=""font-size: 40px;"">+</p>","","null","","","","","","","","","","","","","","","","","","","","","","","","","","","","","","","",""
"html-keyboard-response","217","1366907","0.0-6.0-1.0-10.0","2","0","dlbozjomxchg6q9","","null","","","","null","","","SL-TRAIN","","","1","1912.4000000357628","null","sounds/B/TRAIN/SEQ__07.mp3","11","","","","","","","","","","","","","","","","","","","","","",""
"html-button-response","218","1377947","0.0-6.0-1.0-11.0","2","0","dlbozjomxchg6q9","","11038.099999964237","","<p>You may take a short break if you wish.</p>","0","","","","","","","","","","","","","","","","","","","","","","","","","","","","","","","","",""
"html-button-response","219","1387986","0.0-7.0-0.0","2","0","dlbozjomxchg6q9","","10038.399999976158","","<p>Welcome to the second part of the study. This is a <u>familiarity task</u>.</p><p>You will now hear short sounds and will be asked to rate how familiar they sound to you <b>based on what you heard in the previous part of the study</b>.</p><p>You will rate 12 sounds in total.</p>","0","","","","","","","","","","","","","","","","","","","","","","","","","","","","","","","","",""
"html-keyboard-response","220","1388988","0.0-7.0-1.0-0.0","2","0","dlbozjomxchg6q9","","null","","","","null","","","","","","","","","","","","","","","","","","","","","","","","","","","","","","","",""
"audio-keyboard-response","221","1390072","0.0-7.0-1.0-1.0","2","0","dlbozjomxchg6q9","","null","","sounds/B/FAM/N002.mp3","","null","","","","","","","","","","","","","","","","","","","","","","","","","","","","","","","",""
"html-keyboard-response","222","1397240","0.0-7.0-1.0-2.0","2","0","dlbozjomxchg6q9","","6662.300000011921","","<p>How familiar did this sound to you?</p><p>1&nbsp;&nbsp;&nbsp;&nbsp;&nbsp;&nbsp;&nbsp;&nbsp;&nbsp;&nbsp;&nbsp;&nbsp;&nbsp;&nbsp;&nbsp;&nbsp;&nbsp;&nbsp;&nbsp;2&nbsp;&nbsp;&nbsp;&nbsp;&nbsp;&nbsp;&nbsp;&nbsp;&nbsp;&nbsp;&nbsp;&nbsp;&nbsp;&nbsp;&nbsp;&nbsp;&nbsp;&nbsp;&nbsp;3&nbsp;&nbsp;&nbsp;&nbsp;&nbsp;&nbsp;&nbsp;&nbsp;&nbsp;&nbsp;&nbsp;&nbsp;&nbsp;&nbsp;&nbsp;&nbsp;&nbsp;&nbsp;&nbsp;4</p><p style=""font-size:14px"">Not at all familiar&nbsp;&nbsp;&nbsp;&nbsp;A little familiar&nbsp;&nbsp;&nbsp;Moderately familiar&nbsp;&nbsp;&nbsp;Extremely familiar</p><p>(press the corresponding number on your keyboard)</p>","","52","","","FAM-RESPONSE","","","","","","","","sounds/B/FAM/N002.mp3","nonword","","","","","","","","","","","","","","","","","","","",""
"html-keyboard-response","223","1399247","0.0-7.0-1.0-0.1","2","0","dlbozjomxchg6q9","","null","","","","null","","","","","","","","","","","","","","","","","","","","","","","","","","","","","","","",""
"audio-keyboard-response","224","1400192","0.0-7.0-1.0-1.1","2","0","dlbozjomxchg6q9","","null","","sounds/B/FAM/P004.mp3","","null","","","","","","","","","","","","","","","","","","","","","","","","","","","","","","","",""
"html-keyboard-response","225","1401020","0.0-7.0-1.0-2.1","2","0","dlbozjomxchg6q9","","316.60000002384186","","<p>How familiar did this sound to you?</p><p>1&nbsp;&nbsp;&nbsp;&nbsp;&nbsp;&nbsp;&nbsp;&nbsp;&nbsp;&nbsp;&nbsp;&nbsp;&nbsp;&nbsp;&nbsp;&nbsp;&nbsp;&nbsp;&nbsp;2&nbsp;&nbsp;&nbsp;&nbsp;&nbsp;&nbsp;&nbsp;&nbsp;&nbsp;&nbsp;&nbsp;&nbsp;&nbsp;&nbsp;&nbsp;&nbsp;&nbsp;&nbsp;&nbsp;3&nbsp;&nbsp;&nbsp;&nbsp;&nbsp;&nbsp;&nbsp;&nbsp;&nbsp;&nbsp;&nbsp;&nbsp;&nbsp;&nbsp;&nbsp;&nbsp;&nbsp;&nbsp;&nbsp;4</p><p style=""font-size:14px"">Not at all familiar&nbsp;&nbsp;&nbsp;&nbsp;A little familiar&nbsp;&nbsp;&nbsp;Moderately familiar&nbsp;&nbsp;&nbsp;Extremely familiar</p><p>(press the corresponding number on your keyboard)</p>","","52","","","FAM-RESPONSE","","","","","","","","sounds/B/FAM/P004.mp3","partword","","","","","","","","","","","","","","","","","","","",""
"html-keyboard-response","226","1403042","0.0-7.0-1.0-0.2","2","0","dlbozjomxchg6q9","","null","","","","null","","","","","","","","","","","","","","","","","","","","","","","","","","","","","","","",""
"audio-keyboard-response","227","1403992","0.0-7.0-1.0-1.2","2","0","dlbozjomxchg6q9","","null","","sounds/B/FAM/P002.mp3","","null","","","","","","","","","","","","","","","","","","","","","","","","","","","","","","","",""
"html-keyboard-response","228","1405054","0.0-7.0-1.0-2.2","2","0","dlbozjomxchg6q9","","546","","<p>How familiar did this sound to you?</p><p>1&nbsp;&nbsp;&nbsp;&nbsp;&nbsp;&nbsp;&nbsp;&nbsp;&nbsp;&nbsp;&nbsp;&nbsp;&nbsp;&nbsp;&nbsp;&nbsp;&nbsp;&nbsp;&nbsp;2&nbsp;&nbsp;&nbsp;&nbsp;&nbsp;&nbsp;&nbsp;&nbsp;&nbsp;&nbsp;&nbsp;&nbsp;&nbsp;&nbsp;&nbsp;&nbsp;&nbsp;&nbsp;&nbsp;3&nbsp;&nbsp;&nbsp;&nbsp;&nbsp;&nbsp;&nbsp;&nbsp;&nbsp;&nbsp;&nbsp;&nbsp;&nbsp;&nbsp;&nbsp;&nbsp;&nbsp;&nbsp;&nbsp;4</p><p style=""font-size:14px"">Not at all familiar&nbsp;&nbsp;&nbsp;&nbsp;A little familiar&nbsp;&nbsp;&nbsp;Moderately familiar&nbsp;&nbsp;&nbsp;Extremely familiar</p><p>(press the corresponding number on your keyboard)</p>","","52","","","FAM-RESPONSE","","","","","","","","sounds/B/FAM/P002.mp3","partword","","","","","","","","","","","","","","","","","","","",""
"html-keyboard-response","229","1407080","0.0-7.0-1.0-0.3","2","0","dlbozjomxchg6q9","","null","","","","null","","","","","","","","","","","","","","","","","","","","","","","","","","","","","","","",""
"audio-keyboard-response","230","1408022","0.0-7.0-1.0-1.3","2","0","dlbozjomxchg6q9","","null","","sounds/B/FAM/N001.mp3","","null","","","","","","","","","","","","","","","","","","","","","","","","","","","","","","","",""
"html-keyboard-response","231","1410933","0.0-7.0-1.0-2.3","2","0","dlbozjomxchg6q9","","2408","","<p>How familiar did this sound to you?</p><p>1&nbsp;&nbsp;&nbsp;&nbsp;&nbsp;&nbsp;&nbsp;&nbsp;&nbsp;&nbsp;&nbsp;&nbsp;&nbsp;&nbsp;&nbsp;&nbsp;&nbsp;&nbsp;&nbsp;2&nbsp;&nbsp;&nbsp;&nbsp;&nbsp;&nbsp;&nbsp;&nbsp;&nbsp;&nbsp;&nbsp;&nbsp;&nbsp;&nbsp;&nbsp;&nbsp;&nbsp;&nbsp;&nbsp;3&nbsp;&nbsp;&nbsp;&nbsp;&nbsp;&nbsp;&nbsp;&nbsp;&nbsp;&nbsp;&nbsp;&nbsp;&nbsp;&nbsp;&nbsp;&nbsp;&nbsp;&nbsp;&nbsp;4</p><p style=""font-size:14px"">Not at all familiar&nbsp;&nbsp;&nbsp;&nbsp;A little familiar&nbsp;&nbsp;&nbsp;Moderately familiar&nbsp;&nbsp;&nbsp;Extremely familiar</p><p>(press the corresponding number on your keyboard)</p>","","52","","","FAM-RESPONSE","","","","","","","","sounds/B/FAM/N001.mp3","nonword","","","","","","","","","","","","","","","","","","","",""
"html-keyboard-response","232","1412941","0.0-7.0-1.0-0.4","2","0","dlbozjomxchg6q9","","null","","","","null","","","","","","","","","","","","","","","","","","","","","","","","","","","","","","","",""
"audio-keyboard-response","233","1413883","0.0-7.0-1.0-1.4","2","0","dlbozjomxchg6q9","","null","","sounds/B/FAM/N004.mp3","","null","","","","","","","","","","","","","","","","","","","","","","","","","","","","","","","",""
"html-keyboard-response","234","1415185","0.0-7.0-1.0-2.4","2","0","dlbozjomxchg6q9","","789.3000000119209","","<p>How familiar did this sound to you?</p><p>1&nbsp;&nbsp;&nbsp;&nbsp;&nbsp;&nbsp;&nbsp;&nbsp;&nbsp;&nbsp;&nbsp;&nbsp;&nbsp;&nbsp;&nbsp;&nbsp;&nbsp;&nbsp;&nbsp;2&nbsp;&nbsp;&nbsp;&nbsp;&nbsp;&nbsp;&nbsp;&nbsp;&nbsp;&nbsp;&nbsp;&nbsp;&nbsp;&nbsp;&nbsp;&nbsp;&nbsp;&nbsp;&nbsp;3&nbsp;&nbsp;&nbsp;&nbsp;&nbsp;&nbsp;&nbsp;&nbsp;&nbsp;&nbsp;&nbsp;&nbsp;&nbsp;&nbsp;&nbsp;&nbsp;&nbsp;&nbsp;&nbsp;4</p><p style=""font-size:14px"">Not at all familiar&nbsp;&nbsp;&nbsp;&nbsp;A little familiar&nbsp;&nbsp;&nbsp;Moderately familiar&nbsp;&nbsp;&nbsp;Extremely familiar</p><p>(press the corresponding number on your keyboard)</p>","","52","","","FAM-RESPONSE","","","","","","","","sounds/B/FAM/N004.mp3","nonword","","","","","","","","","","","","","","","","","","","",""
"html-keyboard-response","235","1417198","0.0-7.0-1.0-0.5","2","0","dlbozjomxchg6q9","","null","","","","null","","","","","","","","","","","","","","","","","","","","","","","","","","","","","","","",""
"audio-keyboard-response","236","1418142","0.0-7.0-1.0-1.5","2","0","dlbozjomxchg6q9","","null","","sounds/B/FAM/P003.mp3","","null","","","","","","","","","","","","","","","","","","","","","","","","","","","","","","","",""
"html-keyboard-response","237","1420254","0.0-7.0-1.0-2.5","2","0","dlbozjomxchg6q9","","1588.699999988079","","<p>How familiar did this sound to you?</p><p>1&nbsp;&nbsp;&nbsp;&nbsp;&nbsp;&nbsp;&nbsp;&nbsp;&nbsp;&nbsp;&nbsp;&nbsp;&nbsp;&nbsp;&nbsp;&nbsp;&nbsp;&nbsp;&nbsp;2&nbsp;&nbsp;&nbsp;&nbsp;&nbsp;&nbsp;&nbsp;&nbsp;&nbsp;&nbsp;&nbsp;&nbsp;&nbsp;&nbsp;&nbsp;&nbsp;&nbsp;&nbsp;&nbsp;3&nbsp;&nbsp;&nbsp;&nbsp;&nbsp;&nbsp;&nbsp;&nbsp;&nbsp;&nbsp;&nbsp;&nbsp;&nbsp;&nbsp;&nbsp;&nbsp;&nbsp;&nbsp;&nbsp;4</p><p style=""font-size:14px"">Not at all familiar&nbsp;&nbsp;&nbsp;&nbsp;A little familiar&nbsp;&nbsp;&nbsp;Moderately familiar&nbsp;&nbsp;&nbsp;Extremely familiar</p><p>(press the corresponding number on your keyboard)</p>","","51","","","FAM-RESPONSE","","","","","","","","sounds/B/FAM/P003.mp3","partword","","","","","","","","","","","","","","","","","","","",""
"html-keyboard-response","238","1422281","0.0-7.0-1.0-0.6","2","0","dlbozjomxchg6q9","","null","","","","null","","","","","","","","","","","","","","","","","","","","","","","","","","","","","","","",""
"audio-keyboard-response","239","1423222","0.0-7.0-1.0-1.6","2","0","dlbozjomxchg6q9","","null","","sounds/B/FAM/W002.mp3","","null","","","","","","","","","","","","","","","","","","","","","","","","","","","","","","","",""
"html-keyboard-response","240","1424095","0.0-7.0-1.0-2.6","2","0","dlbozjomxchg6q9","","357.30000001192093","","<p>How familiar did this sound to you?</p><p>1&nbsp;&nbsp;&nbsp;&nbsp;&nbsp;&nbsp;&nbsp;&nbsp;&nbsp;&nbsp;&nbsp;&nbsp;&nbsp;&nbsp;&nbsp;&nbsp;&nbsp;&nbsp;&nbsp;2&nbsp;&nbsp;&nbsp;&nbsp;&nbsp;&nbsp;&nbsp;&nbsp;&nbsp;&nbsp;&nbsp;&nbsp;&nbsp;&nbsp;&nbsp;&nbsp;&nbsp;&nbsp;&nbsp;3&nbsp;&nbsp;&nbsp;&nbsp;&nbsp;&nbsp;&nbsp;&nbsp;&nbsp;&nbsp;&nbsp;&nbsp;&nbsp;&nbsp;&nbsp;&nbsp;&nbsp;&nbsp;&nbsp;4</p><p style=""font-size:14px"">Not at all familiar&nbsp;&nbsp;&nbsp;&nbsp;A little familiar&nbsp;&nbsp;&nbsp;Moderately familiar&nbsp;&nbsp;&nbsp;Extremely familiar</p><p>(press the corresponding number on your keyboard)</p>","","52","","","FAM-RESPONSE","","","","","","","","sounds/B/FAM/W002.mp3","word","","","","","","","","","","","","","","","","","","","",""
"html-keyboard-response","241","1426153","0.0-7.0-1.0-0.7","2","0","dlbozjomxchg6q9","","null","","","","null","","","","","","","","","","","","","","","","","","","","","","","","","","","","","","","",""
"audio-keyboard-response","242","1427102","0.0-7.0-1.0-1.7","2","0","dlbozjomxchg6q9","","null","","sounds/B/FAM/W001.mp3","","null","","","","","","","","","","","","","","","","","","","","","","","","","","","","","","","",""
"html-keyboard-response","243","1429448","0.0-7.0-1.0-2.7","2","0","dlbozjomxchg6q9","","1840.199999988079","","<p>How familiar did this sound to you?</p><p>1&nbsp;&nbsp;&nbsp;&nbsp;&nbsp;&nbsp;&nbsp;&nbsp;&nbsp;&nbsp;&nbsp;&nbsp;&nbsp;&nbsp;&nbsp;&nbsp;&nbsp;&nbsp;&nbsp;2&nbsp;&nbsp;&nbsp;&nbsp;&nbsp;&nbsp;&nbsp;&nbsp;&nbsp;&nbsp;&nbsp;&nbsp;&nbsp;&nbsp;&nbsp;&nbsp;&nbsp;&nbsp;&nbsp;3&nbsp;&nbsp;&nbsp;&nbsp;&nbsp;&nbsp;&nbsp;&nbsp;&nbsp;&nbsp;&nbsp;&nbsp;&nbsp;&nbsp;&nbsp;&nbsp;&nbsp;&nbsp;&nbsp;4</p><p style=""font-size:14px"">Not at all familiar&nbsp;&nbsp;&nbsp;&nbsp;A little familiar&nbsp;&nbsp;&nbsp;Moderately familiar&nbsp;&nbsp;&nbsp;Extremely familiar</p><p>(press the corresponding number on your keyboard)</p>","","51","","","FAM-RESPONSE","","","","","","","","sounds/B/FAM/W001.mp3","word","","","","","","","","","","","","","","","","","","","",""
"html-keyboard-response","244","1431464","0.0-7.0-1.0-0.8","2","0","dlbozjomxchg6q9","","null","","","","null","","","","","","","","","","","","","","","","","","","","","","","","","","","","","","","",""
"audio-keyboard-response","245","1432402","0.0-7.0-1.0-1.8","2","0","dlbozjomxchg6q9","","null","","sounds/B/FAM/N003.mp3","","null","","","","","","","","","","","","","","","","","","","","","","","","","","","","","","","",""
"html-keyboard-response","246","1434546","0.0-7.0-1.0-2.8","2","0","dlbozjomxchg6q9","","1638.5999999642372","","<p>How familiar did this sound to you?</p><p>1&nbsp;&nbsp;&nbsp;&nbsp;&nbsp;&nbsp;&nbsp;&nbsp;&nbsp;&nbsp;&nbsp;&nbsp;&nbsp;&nbsp;&nbsp;&nbsp;&nbsp;&nbsp;&nbsp;2&nbsp;&nbsp;&nbsp;&nbsp;&nbsp;&nbsp;&nbsp;&nbsp;&nbsp;&nbsp;&nbsp;&nbsp;&nbsp;&nbsp;&nbsp;&nbsp;&nbsp;&nbsp;&nbsp;3&nbsp;&nbsp;&nbsp;&nbsp;&nbsp;&nbsp;&nbsp;&nbsp;&nbsp;&nbsp;&nbsp;&nbsp;&nbsp;&nbsp;&nbsp;&nbsp;&nbsp;&nbsp;&nbsp;4</p><p style=""font-size:14px"">Not at all familiar&nbsp;&nbsp;&nbsp;&nbsp;A little familiar&nbsp;&nbsp;&nbsp;Moderately familiar&nbsp;&nbsp;&nbsp;Extremely familiar</p><p>(press the corresponding number on your keyboard)</p>","","51","","","FAM-RESPONSE","","","","","","","","sounds/B/FAM/N003.mp3","nonword","","","","","","","","","","","","","","","","","","","",""
"html-keyboard-response","247","1436571","0.0-7.0-1.0-0.9","2","0","dlbozjomxchg6q9","","null","","","","null","","","","","","","","","","","","","","","","","","","","","","","","","","","","","","","",""
"audio-keyboard-response","248","1437512","0.0-7.0-1.0-1.9","2","0","dlbozjomxchg6q9","","null","","sounds/B/FAM/W003.mp3","","null","","","","","","","","","","","","","","","","","","","","","","","","","","","","","","","",""
"html-keyboard-response","249","1439058","0.0-7.0-1.0-2.9","2","0","dlbozjomxchg6q9","","1027.6000000238419","","<p>How familiar did this sound to you?</p><p>1&nbsp;&nbsp;&nbsp;&nbsp;&nbsp;&nbsp;&nbsp;&nbsp;&nbsp;&nbsp;&nbsp;&nbsp;&nbsp;&nbsp;&nbsp;&nbsp;&nbsp;&nbsp;&nbsp;2&nbsp;&nbsp;&nbsp;&nbsp;&nbsp;&nbsp;&nbsp;&nbsp;&nbsp;&nbsp;&nbsp;&nbsp;&nbsp;&nbsp;&nbsp;&nbsp;&nbsp;&nbsp;&nbsp;3&nbsp;&nbsp;&nbsp;&nbsp;&nbsp;&nbsp;&nbsp;&nbsp;&nbsp;&nbsp;&nbsp;&nbsp;&nbsp;&nbsp;&nbsp;&nbsp;&nbsp;&nbsp;&nbsp;4</p><p style=""font-size:14px"">Not at all familiar&nbsp;&nbsp;&nbsp;&nbsp;A little familiar&nbsp;&nbsp;&nbsp;Moderately familiar&nbsp;&nbsp;&nbsp;Extremely familiar</p><p>(press the corresponding number on your keyboard)</p>","","51","","","FAM-RESPONSE","","","","","","","","sounds/B/FAM/W003.mp3","word","","","","","","","","","","","","","","","","","","","",""
"html-keyboard-response","250","1441083","0.0-7.0-1.0-0.10","2","0","dlbozjomxchg6q9","","null","","","","null","","","","","","","","","","","","","","","","","","","","","","","","","","","","","","","",""
"audio-keyboard-response","251","1442032","0.0-7.0-1.0-1.10","2","0","dlbozjomxchg6q9","","null","","sounds/B/FAM/W004.mp3","","null","","","","","","","","","","","","","","","","","","","","","","","","","","","","","","","",""
"html-keyboard-response","252","1442865","0.0-7.0-1.0-2.10","2","0","dlbozjomxchg6q9","","317.80000001192093","","<p>How familiar did this sound to you?</p><p>1&nbsp;&nbsp;&nbsp;&nbsp;&nbsp;&nbsp;&nbsp;&nbsp;&nbsp;&nbsp;&nbsp;&nbsp;&nbsp;&nbsp;&nbsp;&nbsp;&nbsp;&nbsp;&nbsp;2&nbsp;&nbsp;&nbsp;&nbsp;&nbsp;&nbsp;&nbsp;&nbsp;&nbsp;&nbsp;&nbsp;&nbsp;&nbsp;&nbsp;&nbsp;&nbsp;&nbsp;&nbsp;&nbsp;3&nbsp;&nbsp;&nbsp;&nbsp;&nbsp;&nbsp;&nbsp;&nbsp;&nbsp;&nbsp;&nbsp;&nbsp;&nbsp;&nbsp;&nbsp;&nbsp;&nbsp;&nbsp;&nbsp;4</p><p style=""font-size:14px"">Not at all familiar&nbsp;&nbsp;&nbsp;&nbsp;A little familiar&nbsp;&nbsp;&nbsp;Moderately familiar&nbsp;&nbsp;&nbsp;Extremely familiar</p><p>(press the corresponding number on your keyboard)</p>","","52","","","FAM-RESPONSE","","","","","","","","sounds/B/FAM/W004.mp3","word","","","","","","","","","","","","","","","","","","","",""
"html-keyboard-response","253","1444976","0.0-7.0-1.0-0.11","2","0","dlbozjomxchg6q9","","null","","","","null","","","","","","","","","","","","","","","","","","","","","","","","","","","","","","","",""
"audio-keyboard-response","254","1445913","0.0-7.0-1.0-1.11","2","0","dlbozjomxchg6q9","","null","","sounds/B/FAM/P001.mp3","","null","","","","","","","","","","","","","","","","","","","","","","","","","","","","","","","",""
"html-keyboard-response","255","1446787","0.0-7.0-1.0-2.11","2","0","dlbozjomxchg6q9","","367.5","","<p>How familiar did this sound to you?</p><p>1&nbsp;&nbsp;&nbsp;&nbsp;&nbsp;&nbsp;&nbsp;&nbsp;&nbsp;&nbsp;&nbsp;&nbsp;&nbsp;&nbsp;&nbsp;&nbsp;&nbsp;&nbsp;&nbsp;2&nbsp;&nbsp;&nbsp;&nbsp;&nbsp;&nbsp;&nbsp;&nbsp;&nbsp;&nbsp;&nbsp;&nbsp;&nbsp;&nbsp;&nbsp;&nbsp;&nbsp;&nbsp;&nbsp;3&nbsp;&nbsp;&nbsp;&nbsp;&nbsp;&nbsp;&nbsp;&nbsp;&nbsp;&nbsp;&nbsp;&nbsp;&nbsp;&nbsp;&nbsp;&nbsp;&nbsp;&nbsp;&nbsp;4</p><p style=""font-size:14px"">Not at all familiar&nbsp;&nbsp;&nbsp;&nbsp;A little familiar&nbsp;&nbsp;&nbsp;Moderately familiar&nbsp;&nbsp;&nbsp;Extremely familiar</p><p>(press the corresponding number on your keyboard)</p>","","51","","","FAM-RESPONSE","","","","","","","","sounds/B/FAM/P001.mp3","partword","","","","","","","","","","","","","","","","","","","",""
"html-button-response","256","1467676","0.0-8.0-0.0","2","0","dlbozjomxchg6q9","","19854.80000001192","","<p>You will now listen to longer sound sequences.</p><p>Each sound sequence will last about 16 seconds.</p><p>On each trial, you will be given a <u>TARGET SOUND</u>. Your task is to listen very carefully for this sound.</p><p>Every time you hear the <u>TARGET SOUND</u>, you will press the <b>SPACEBAR</b> as quickly and accurately as you can.</p>","0","","","","","","","","","","","","","","","","","","","","","","","","","","","","","","","","",""
"html-button-response","257","1484481","0.0-8.0-1.0","2","0","dlbozjomxchg6q9","","16547.69999998808","","<p>It is very important that you make your responses as quickly and accurately as possible.</p><p>To help you make your responses, you will be able to listen to the <u>TARGET SOUND</u> at the beginning of each trial.</p><p>There will be 36 total trials.</p><p><b>Note: This is meant to be a difficult task. We simply want you to try your best.</p>","0","","","","","","","","","","","","","","","","","","","","","","","","","","","","","","","","",""
"html-button-response","258","1487110","0.0-8.0-2.0-0.0","2","0","dlbozjomxchg6q9","","2375.5","","<p>Trial 1 of 36</p>","0","","","","","","","","","","","","","","FU","sounds/syllables/fu_SWS.wav","900,4500,9000,10800","1","","","","","","","","","","","","","","","",""
"html-keyboard-response","259","1491561","0.0-8.0-2.0-1.0","2","0","dlbozjomxchg6q9","","4449.699999988079","","","","80","","","","","","","","","","","","","FU","","900,4500,9000,10800","1","","","","","","","","","","","","","","","",""
"audio-keyboard-response","260","1492070","0.0-8.0-2.0-2.0-0.0","2","0","dlbozjomxchg6q9","","null","","sounds/syllables/fu_SWS.wav","","null","","","","","","","","","","","","","","","","","","","","","","","","","","","","","","","",""
"html-keyboard-response","261","1494637","0.0-8.0-2.0-2.0-1.0","2","0","dlbozjomxchg6q9","","2565.899999976158","","<p>To replay the <u>TARGET SOUND</u>, press P.</p> When you are ready to begin, press SPACEBAR.","","80","","","","","","","","","","","","","","","","","","","","","","","","","","","","","","","",""
"audio-keyboard-response","262","1495450","0.0-8.0-2.0-2.1-0.1","2","0","dlbozjomxchg6q9","","null","","sounds/syllables/fu_SWS.wav","","null","","","","","","","","","","","","","","","","","","","","","","","","","","","","","","","",""
"html-keyboard-response","263","1496146","0.0-8.0-2.0-2.1-1.1","2","0","dlbozjomxchg6q9","","695.1999999880791","","<p>To replay the <u>TARGET SOUND</u>, press P.</p> When you are ready to begin, press SPACEBAR.","","80","","","","","","","","","","","","","","","","","","","","","","","","","","","","","","","",""
"audio-keyboard-response","264","1496950","0.0-8.0-2.0-2.2-0.2","2","0","dlbozjomxchg6q9","","null","","sounds/syllables/fu_SWS.wav","","null","","","","","","","","","","","","","","","","","","","","","","","","","","","","","","","",""
"html-keyboard-response","265","1497450","0.0-8.0-2.0-2.2-1.2","2","0","dlbozjomxchg6q9","","499.5","","<p>To replay the <u>TARGET SOUND</u>, press P.</p> When you are ready to begin, press SPACEBAR.","","80","","","","","","","","","","","","","","","","","","","","","","","","","","","","","","","",""
"audio-keyboard-response","266","1498260","0.0-8.0-2.0-2.3-0.3","2","0","dlbozjomxchg6q9","","null","","sounds/syllables/fu_SWS.wav","","null","","","","","","","","","","","","","","","","","","","","","","","","","","","","","","","",""
"html-keyboard-response","267","1498609","0.0-8.0-2.0-2.3-1.3","2","0","dlbozjomxchg6q9","","349.19999998807907","","<p>To replay the <u>TARGET SOUND</u>, press P.</p> When you are ready to begin, press SPACEBAR.","","80","","","","","","","","","","","","","","","","","","","","","","","","","","","","","","","",""
"audio-keyboard-response","268","1499421","0.0-8.0-2.0-2.4-0.4","2","0","dlbozjomxchg6q9","","null","","sounds/syllables/fu_SWS.wav","","null","","","","","","","","","","","","","","","","","","","","","","","","","","","","","","","",""
"html-keyboard-response","269","1499759","0.0-8.0-2.0-2.4-1.4","2","0","dlbozjomxchg6q9","","337.19999998807907","","<p>To replay the <u>TARGET SOUND</u>, press P.</p> When you are ready to begin, press SPACEBAR.","","80","","","","","","","","","","","","","","","","","","","","","","","","","","","","","","","",""
"audio-keyboard-response","270","1500570","0.0-8.0-2.0-2.5-0.5","2","0","dlbozjomxchg6q9","","null","","sounds/syllables/fu_SWS.wav","","null","","","","","","","","","","","","","","","","","","","","","","","","","","","","","","","",""
"html-keyboard-response","271","1500942","0.0-8.0-2.0-2.5-1.5","2","0","dlbozjomxchg6q9","","371.5999999642372","","<p>To replay the <u>TARGET SOUND</u>, press P.</p> When you are ready to begin, press SPACEBAR.","","80","","","","","","","","","","","","","","","","","","","","","","","","","","","","","","","",""
"audio-keyboard-response","272","1501750","0.0-8.0-2.0-2.6-0.6","2","0","dlbozjomxchg6q9","","null","","sounds/syllables/fu_SWS.wav","","null","","","","","","","","","","","","","","","","","","","","","","","","","","","","","","","",""
"html-keyboard-response","273","1502217","0.0-8.0-2.0-2.6-1.6","2","0","dlbozjomxchg6q9","","466","","<p>To replay the <u>TARGET SOUND</u>, press P.</p> When you are ready to begin, press SPACEBAR.","","80","","","","","","","","","","","","","","","","","","","","","","","","","","","","","","","",""
"audio-keyboard-response","274","1503020","0.0-8.0-2.0-2.7-0.7","2","0","dlbozjomxchg6q9","","null","","sounds/syllables/fu_SWS.wav","","null","","","","","","","","","","","","","","","","","","","","","","","","","","","","","","","",""
"html-keyboard-response","275","1503315","0.0-8.0-2.0-2.7-1.7","2","0","dlbozjomxchg6q9","","294.39999997615814","","<p>To replay the <u>TARGET SOUND</u>, press P.</p> When you are ready to begin, press SPACEBAR.","","80","","","","","","","","","","","","","","","","","","","","","","","","","","","","","","","",""
"audio-keyboard-response","276","1504110","0.0-8.0-2.0-2.8-0.8","2","0","dlbozjomxchg6q9","","null","","sounds/syllables/fu_SWS.wav","","null","","","","","","","","","","","","","","","","","","","","","","","","","","","","","","","",""
"html-keyboard-response","277","1505141","0.0-8.0-2.0-2.8-1.8","2","0","dlbozjomxchg6q9","","1030.2000000476837","","<p>To replay the <u>TARGET SOUND</u>, press P.</p> When you are ready to begin, press SPACEBAR.","","80","","","","","","","","","","","","","","","","","","","","","","","","","","","","","","","",""
"audio-keyboard-response","278","1505950","0.0-8.0-2.0-2.9-0.9","2","0","dlbozjomxchg6q9","","null","","sounds/syllables/fu_SWS.wav","","null","","","","","","","","","","","","","","","","","","","","","","","","","","","","","","","",""
"html-keyboard-response","279","1506412","0.0-8.0-2.0-2.9-1.9","2","0","dlbozjomxchg6q9","","462.5","","<p>To replay the <u>TARGET SOUND</u>, press P.</p> When you are ready to begin, press SPACEBAR.","","80","","","","","","","","","","","","","","","","","","","","","","","","","","","","","","","",""
"audio-keyboard-response","280","1507220","0.0-8.0-2.0-2.10-0.10","2","0","dlbozjomxchg6q9","","null","","sounds/syllables/fu_SWS.wav","","null","","","","","","","","","","","","","","","","","","","","","","","","","","","","","","","",""
"html-keyboard-response","281","1507882","0.0-8.0-2.0-2.10-1.10","2","0","dlbozjomxchg6q9","","661.1999999880791","","<p>To replay the <u>TARGET SOUND</u>, press P.</p> When you are ready to begin, press SPACEBAR.","","80","","","","","","","","","","","","","","","","","","","","","","","","","","","","","","","",""
"audio-keyboard-response","282","1508690","0.0-8.0-2.0-2.11-0.11","2","0","dlbozjomxchg6q9","","null","","sounds/syllables/fu_SWS.wav","","null","","","","","","","","","","","","","","","","","","","","","","","","","","","","","","","",""
"html-keyboard-response","283","1509112","0.0-8.0-2.0-2.11-1.11","2","0","dlbozjomxchg6q9","","421.0999999642372","","<p>To replay the <u>TARGET SOUND</u>, press P.</p> When you are ready to begin, press SPACEBAR.","","80","","","","","","","","","","","","","","","","","","","","","","","","","","","","","","","",""
"audio-keyboard-response","284","1509910","0.0-8.0-2.0-2.12-0.12","2","0","dlbozjomxchg6q9","","null","","sounds/syllables/fu_SWS.wav","","null","","","","","","","","","","","","","","","","","","","","","","","","","","","","","","","",""
"html-keyboard-response","285","1510105","0.0-8.0-2.0-2.12-1.12","2","0","dlbozjomxchg6q9","","194.19999998807907","","<p>To replay the <u>TARGET SOUND</u>, press P.</p> When you are ready to begin, press SPACEBAR.","","80","","","","","","","","","","","","","","","","","","","","","","","","","","","","","","","",""
"audio-keyboard-response","286","1510910","0.0-8.0-2.0-2.13-0.13","2","0","dlbozjomxchg6q9","","null","","sounds/syllables/fu_SWS.wav","","null","","","","","","","","","","","","","","","","","","","","","","","","","","","","","","","",""
"html-keyboard-response","287","1511738","0.0-8.0-2.0-2.13-1.13","2","0","dlbozjomxchg6q9","","827.7000000476837","","<p>To replay the <u>TARGET SOUND</u>, press P.</p> When you are ready to begin, press SPACEBAR.","","32","","","","","","","","","","","","","","","","","","","","","","","","","","","","","","","",""
"audio-keyboard-response","288","1526714","0.0-8.0-2.0-3.0","2","0","dlbozjomxchg6q9","","4661","","sounds/B/TD/FU_02_TD.mp3","","32","","","TD_SUMMARY","","","","","","","","","","FU","","900,4500,9000,10800","1","900","4500","9000","10800","null","null","null","307.10000002384186","4665.199999988079_7015.800000011921_11107.100000023842","14","","","","","",""
"html-button-response","289","1530582","0.0-8.0-2.0-0.1","2","0","dlbozjomxchg6q9","","3865.099999964237","","<p>Trial 2 of 36</p>","0","","","","","","","","","","","","","","TA","sounds/syllables/ta_SWS.wav","1500,5100,9600,13200","3","","","","","","","","","","","","","","","",""
"html-keyboard-response","290","1532455","0.0-8.0-2.0-1.1","2","0","dlbozjomxchg6q9","","1871.8999999761581","","","","80","","","","","","","","","","","","","TA","","1500,5100,9600,13200","3","","","","","","","","","","","","","","","",""
"audio-keyboard-response","291","1532750","0.0-8.0-2.0-2.14-0.14","2","0","dlbozjomxchg6q9","","null","","sounds/syllables/ta_SWS.wav","","null","","","","","","","","","","","","","","","","","","","","","","","","","","","","","","","",""
"html-keyboard-response","292","1533154","0.0-8.0-2.0-2.14-1.14","2","0","dlbozjomxchg6q9","","404.0999999642372","","<p>To replay the <u>TARGET SOUND</u>, press P.</p> When you are ready to begin, press SPACEBAR.","","80","","","","","","","","","","","","","","","","","","","","","","","","","","","","","","","",""
"audio-keyboard-response","293","1533970","0.0-8.0-2.0-2.15-0.15","2","0","dlbozjomxchg6q9","","null","","sounds/syllables/ta_SWS.wav","","null","","","","","","","","","","","","","","","","","","","","","","","","","","","","","","","",""
"html-keyboard-response","294","1534028","0.0-8.0-2.0-2.15-1.15","2","0","dlbozjomxchg6q9","","58.39999997615814","","<p>To replay the <u>TARGET SOUND</u>, press P.</p> When you are ready to begin, press SPACEBAR.","","80","","","","","","","","","","","","","","","","","","","","","","","","","","","","","","","",""
"audio-keyboard-response","295","1534830","0.0-8.0-2.0-2.16-0.16","2","0","dlbozjomxchg6q9","","null","","sounds/syllables/ta_SWS.wav","","null","","","","","","","","","","","","","","","","","","","","","","","","","","","","","","","",""
"html-keyboard-response","296","1535167","0.0-8.0-2.0-2.16-1.16","2","0","dlbozjomxchg6q9","","337.10000002384186","","<p>To replay the <u>TARGET SOUND</u>, press P.</p> When you are ready to begin, press SPACEBAR.","","80","","","","","","","","","","","","","","","","","","","","","","","","","","","","","","","",""
"audio-keyboard-response","297","1535979","0.0-8.0-2.0-2.17-0.17","2","0","dlbozjomxchg6q9","","null","","sounds/syllables/ta_SWS.wav","","null","","","","","","","","","","","","","","","","","","","","","","","","","","","","","","","",""
"html-keyboard-response","298","1536266","0.0-8.0-2.0-2.17-1.17","2","0","dlbozjomxchg6q9","","284.9000000357628","","<p>To replay the <u>TARGET SOUND</u>, press P.</p> When you are ready to begin, press SPACEBAR.","","80","","","","","","","","","","","","","","","","","","","","","","","","","","","","","","","",""
"audio-keyboard-response","299","1537070","0.0-8.0-2.0-2.18-0.18","2","0","dlbozjomxchg6q9","","null","","sounds/syllables/ta_SWS.wav","","null","","","","","","","","","","","","","","","","","","","","","","","","","","","","","","","",""
"html-keyboard-response","300","1537226","0.0-8.0-2.0-2.18-1.18","2","0","dlbozjomxchg6q9","","155.89999997615814","","<p>To replay the <u>TARGET SOUND</u>, press P.</p> When you are ready to begin, press SPACEBAR.","","32","","","","","","","","","","","","","","","","","","","","","","","","","","","","","","","",""
"audio-keyboard-response","301","1552190","0.0-8.0-2.0-3.1","2","0","dlbozjomxchg6q9","","600","","sounds/B/TD/TA_07_TD.mp3","","32","","","TD_SUMMARY","","","","","","","","","","TA","","1500,5100,9600,13200","3","1500","5100","9600","13200","null","1114","null","null","___603.4000000357628_3442.600000023842_4690.700000047684_6214_7973.300000011921_9150.700000047684_11456.300000011921_12529.300000011921","5","","","","","",""
"html-button-response","302","1555994","0.0-8.0-2.0-0.2","2","0","dlbozjomxchg6q9","","3802","","<p>Trial 3 of 36</p>","0","","","","","","","","","","","","","","PU","sounds/syllables/pu_SWS.wav","900,2700,4500,9900","1","","","","","","","","","","","","","","","",""
"html-keyboard-response","303","1557060","0.0-8.0-2.0-1.2","2","0","dlbozjomxchg6q9","","1065.2000000476837","","","","80","","","","","","","","","","","","","PU","","900,2700,4500,9900","1","","","","","","","","","","","","","","","",""
"audio-keyboard-response","304","1557369","0.0-8.0-2.0-2.19-0.19","2","0","dlbozjomxchg6q9","","null","","sounds/syllables/pu_SWS.wav","","null","","","","","","","","","","","","","","","","","","","","","","","","","","","","","","","",""
"html-keyboard-response","305","1558024","0.0-8.0-2.0-2.19-1.19","2","0","dlbozjomxchg6q9","","653.8000000119209","","<p>To replay the <u>TARGET SOUND</u>, press P.</p> When you are ready to begin, press SPACEBAR.","","80","","","","","","","","","","","","","","","","","","","","","","","","","","","","","","","",""
"audio-keyboard-response","306","1558819","0.0-8.0-2.0-2.20-0.20","2","0","dlbozjomxchg6q9","","null","","sounds/syllables/pu_SWS.wav","","null","","","","","","","","","","","","","","","","","","","","","","","","","","","","","","","",""
"html-keyboard-response","307","1559053","0.0-8.0-2.0-2.20-1.20","2","0","dlbozjomxchg6q9","","233.19999998807907","","<p>To replay the <u>TARGET SOUND</u>, press P.</p> When you are ready to begin, press SPACEBAR.","","80","","","","","","","","","","","","","","","","","","","","","","","","","","","","","","","",""
"audio-keyboard-response","308","1559863","0.0-8.0-2.0-2.21-0.21","2","0","dlbozjomxchg6q9","","null","","sounds/syllables/pu_SWS.wav","","null","","","","","","","","","","","","","","","","","","","","","","","","","","","","","","","",""
"html-keyboard-response","309","1560026","0.0-8.0-2.0-2.21-1.21","2","0","dlbozjomxchg6q9","","161.9000000357628","","<p>To replay the <u>TARGET SOUND</u>, press P.</p> When you are ready to begin, press SPACEBAR.","","80","","","","","","","","","","","","","","","","","","","","","","","","","","","","","","","",""
"audio-keyboard-response","310","1560829","0.0-8.0-2.0-2.22-0.22","2","0","dlbozjomxchg6q9","","null","","sounds/syllables/pu_SWS.wav","","null","","","","","","","","","","","","","","","","","","","","","","","","","","","","","","","",""
"html-keyboard-response","311","1560986","0.0-8.0-2.0-2.22-1.22","2","0","dlbozjomxchg6q9","","156.19999998807907","","<p>To replay the <u>TARGET SOUND</u>, press P.</p> When you are ready to begin, press SPACEBAR.","","32","","","","","","","","","","","","","","","","","","","","","","","","","","","","","","","",""
"audio-keyboard-response","312","1575940","0.0-8.0-2.0-3.2","2","0","dlbozjomxchg6q9","","520","","sounds/B/TD/PU_07_TD.mp3","","32","","","TD_SUMMARY","","","","","","","","","","PU","","900,2700,4500,9900","1","900","2700","4500","9900","883.8000000119209","null","1149.199999988079","null","___________513.8000000119209_1783.800000011921_3930.699999988079_5649.199999988079_9271.099999964237_11387.899999976158_13000.099999964237","4","","","","","",""
"html-button-response","313","1578804","0.0-8.0-2.0-0.3","2","0","dlbozjomxchg6q9","","2862.199999988079","","<p>Trial 4 of 36</p>","0","","","","","","","","","","","","","","GE","sounds/syllables/ge_SWS.wav","900,4500,6300,8100","1","","","","","","","","","","","","","","","",""
"html-keyboard-response","314","1579081","0.0-8.0-2.0-1.3","2","0","dlbozjomxchg6q9","","273.9000000357628","","","","80","","","","","","","","","","","","","GE","","900,4500,6300,8100","1","","","","","","","","","","","","","","","",""
"audio-keyboard-response","315","1579380","0.0-8.0-2.0-2.23-0.23","2","0","dlbozjomxchg6q9","","null","","sounds/syllables/ge_SWS.wav","","null","","","","","","","","","","","","","","","","","","","","","","","","","","","","","","","",""
"html-keyboard-response","316","1580055","0.0-8.0-2.0-2.23-1.23","2","0","dlbozjomxchg6q9","","674.5","","<p>To replay the <u>TARGET SOUND</u>, press P.</p> When you are ready to begin, press SPACEBAR.","","80","","","","","","","","","","","","","","","","","","","","","","","","","","","","","","","",""
"audio-keyboard-response","317","1580859","0.0-8.0-2.0-2.24-0.24","2","0","dlbozjomxchg6q9","","null","","sounds/syllables/ge_SWS.wav","","null","","","","","","","","","","","","","","","","","","","","","","","","","","","","","","","",""
"html-keyboard-response","318","1581684","0.0-8.0-2.0-2.24-1.24","2","0","dlbozjomxchg6q9","","823.8000000119209","","<p>To replay the <u>TARGET SOUND</u>, press P.</p> When you are ready to begin, press SPACEBAR.","","80","","","","","","","","","","","","","","","","","","","","","","","","","","","","","","","",""
"audio-keyboard-response","319","1582489","0.0-8.0-2.0-2.25-0.25","2","0","dlbozjomxchg6q9","","null","","sounds/syllables/ge_SWS.wav","","null","","","","","","","","","","","","","","","","","","","","","","","","","","","","","","","",""
"html-keyboard-response","320","1582623","0.0-8.0-2.0-2.25-1.25","2","0","dlbozjomxchg6q9","","133.79999995231628","","<p>To replay the <u>TARGET SOUND</u>, press P.</p> When you are ready to begin, press SPACEBAR.","","32","","","","","","","","","","","","","","","","","","","","","","","","","","","","","","","",""
"audio-keyboard-response","321","1597580","0.0-8.0-2.0-3.3","2","0","dlbozjomxchg6q9","","1291","","sounds/B/TD/GE_01_TD.mp3","","32","","","TD_SUMMARY","","","","","","","","","","GE","","900,4500,6300,8100","1","900","4500","6300","8100","384.4000000357628","null","744.6000000238419","679.1999999880791","__________________1284.4000000357628_4648_7044.600000023842_8779.199999988079_12669.300000011921_14307.800000011921","3","","","","","",""
"html-button-response","322","1599513","0.0-8.0-2.0-0.4","2","0","dlbozjomxchg6q9","","1930.6000000238419","","<p>Trial 5 of 36</p>","0","","","","","","","","","","","","","","RE","sounds/syllables/re_SWS.wav","2400,7800,9600,13200","3","","","","","","","","","","","","","","","",""
"html-keyboard-response","323","1599788","0.0-8.0-2.0-1.4","2","0","dlbozjomxchg6q9","","274.19999998807907","","","","80","","","","","","","","","","","","","RE","","2400,7800,9600,13200","3","","","","","","","","","","","","","","","",""
"audio-keyboard-response","324","1600093","0.0-8.0-2.0-2.26-0.26","2","0","dlbozjomxchg6q9","","null","","sounds/syllables/re_SWS.wav","","null","","","","","","","","","","","","","","","","","","","","","","","","","","","","","","","",""
"html-keyboard-response","325","1600633","0.0-8.0-2.0-2.26-1.26","2","0","dlbozjomxchg6q9","","539","","<p>To replay the <u>TARGET SOUND</u>, press P.</p> When you are ready to begin, press SPACEBAR.","","80","","","","","","","","","","","","","","","","","","","","","","","","","","","","","","","",""
"audio-keyboard-response","326","1601429","0.0-8.0-2.0-2.27-0.27","2","0","dlbozjomxchg6q9","","null","","sounds/syllables/re_SWS.wav","","null","","","","","","","","","","","","","","","","","","","","","","","","","","","","","","","",""
"html-keyboard-response","327","1601816","0.0-8.0-2.0-2.27-1.27","2","0","dlbozjomxchg6q9","","386.5","","<p>To replay the <u>TARGET SOUND</u>, press P.</p> When you are ready to begin, press SPACEBAR.","","80","","","","","","","","","","","","","","","","","","","","","","","","","","","","","","","",""
"audio-keyboard-response","328","1602619","0.0-8.0-2.0-2.28-0.28","2","0","dlbozjomxchg6q9","","null","","sounds/syllables/re_SWS.wav","","null","","","","","","","","","","","","","","","","","","","","","","","","","","","","","","","",""
"html-keyboard-response","329","1602800","0.0-8.0-2.0-2.28-1.28","2","0","dlbozjomxchg6q9","","181","","<p>To replay the <u>TARGET SOUND</u>, press P.</p> When you are ready to begin, press SPACEBAR.","","32","","","","","","","","","","","","","","","","","","","","","","","","","","","","","","","",""
"audio-keyboard-response","330","1617750","0.0-8.0-2.0-3.4","2","0","dlbozjomxchg6q9","","1011","","sounds/B/TD/RE_10_TD.mp3","","32","","","TD_SUMMARY","","","","","","","","","","RE","","2400,7800,9600,13200","3","2400","7800","9600","13200","386.9000000357628","435","null","null","________________________1010.3000000119209_2786.900000035763_4588.100000023842_6322.100000023842_8235_9614.100000023842_13119.600000023842","3","","","","","",""
"html-button-response","331","1619983","0.0-8.0-2.0-0.5","2","0","dlbozjomxchg6q9","","2231.5","","<p>Trial 6 of 36</p>","0","","","","","","","","","","","","","","FU","sounds/syllables/fu_SWS.wav","3600,6300,9900,12600","1","","","","","","","","","","","","","","","",""
"html-keyboard-response","332","1620131","0.0-8.0-2.0-1.5","2","0","dlbozjomxchg6q9","","145.89999997615814","","","","80","","","","","","","","","","","","","FU","","3600,6300,9900,12600","1","","","","","","","","","","","","","","","",""
"audio-keyboard-response","333","1620429","0.0-8.0-2.0-2.29-0.29","2","0","dlbozjomxchg6q9","","null","","sounds/syllables/fu_SWS.wav","","null","","","","","","","","","","","","","","","","","","","","","","","","","","","","","","","",""
"html-keyboard-response","334","1621149","0.0-8.0-2.0-2.29-1.29","2","0","dlbozjomxchg6q9","","719.4000000357628","","<p>To replay the <u>TARGET SOUND</u>, press P.</p> When you are ready to begin, press SPACEBAR.","","80","","","","","","","","","","","","","","","","","","","","","","","","","","","","","","","",""
"audio-keyboard-response","335","1621969","0.0-8.0-2.0-2.30-0.30","2","0","dlbozjomxchg6q9","","null","","sounds/syllables/fu_SWS.wav","","null","","","","","","","","","","","","","","","","","","","","","","","","","","","","","","","",""
"html-keyboard-response","336","1622525","0.0-8.0-2.0-2.30-1.30","2","0","dlbozjomxchg6q9","","555.3000000119209","","<p>To replay the <u>TARGET SOUND</u>, press P.</p> When you are ready to begin, press SPACEBAR.","","80","","","","","","","","","","","","","","","","","","","","","","","","","","","","","","","",""
"audio-keyboard-response","337","1623330","0.0-8.0-2.0-2.31-0.31","2","0","dlbozjomxchg6q9","","null","","sounds/syllables/fu_SWS.wav","","null","","","","","","","","","","","","","","","","","","","","","","","","","","","","","","","",""
"html-keyboard-response","338","1623377","0.0-8.0-2.0-2.31-1.31","2","0","dlbozjomxchg6q9","","46.39999997615814","","<p>To replay the <u>TARGET SOUND</u>, press P.</p> When you are ready to begin, press SPACEBAR.","","80","","","","","","","","","","","","","","","","","","","","","","","","","","","","","","","",""
"audio-keyboard-response","339","1624189","0.0-8.0-2.0-2.32-0.32","2","0","dlbozjomxchg6q9","","null","","sounds/syllables/fu_SWS.wav","","null","","","","","","","","","","","","","","","","","","","","","","","","","","","","","","","",""
"html-keyboard-response","340","1626522","0.0-8.0-2.0-2.32-1.32","2","0","dlbozjomxchg6q9","","2331.699999988079","","<p>To replay the <u>TARGET SOUND</u>, press P.</p> When you are ready to begin, press SPACEBAR.","","32","","","","","","","","","","","","","","","","","","","","","","","","","","","","","","","",""
