"trial_type","trial_index","time_elapsed","internal_node_id","counterbalance","lang_instruct","ParticipantID","view_history","rt","url","stimulus","button_pressed","key_press","correctRESP","correct","designation","location","correctanswer","responses","sentence","keywords","typed_resp","keyword1_acc","keyword2_acc","keyword3_acc","keyword4_acc","keyword5_acc","total_acc","prop_acc","timeouts","pause_rt01","pause_rt02","train_file","numKeyPress","sound","fam_type","SYLLABLE","EXEMPLAR","TD_LOCS","TD_TYPE","TDLOC_01","TDLOC_02","TDLOC_03","TDLOC_04","TD_RT_01","TD_RT_02","TD_RT_03","TD_RT_04","TD_SUBJ_RTs","number_of_plays","syllable","syllable_type"
"pavlovia","0","6","0.0-0.0","2","1","hclvf56gxy2hvqh","","","","","","","","","","","","","","","","","","","","","","","","","","","","","","","","","","","","","","","","","","","","",""
"instructions","1","11439","0.0-1.0","2","1","hclvf56gxy2hvqh","[{""page_index"":0,""viewing_time"":7897.899999976158},{""page_index"":1,""viewing_time"":3529.8000000715256}]","11431.200000047684","","","","","","","","","","","","","","","","","","","","","","","","","","","","","","","","","","","","","","","","","","",""
"external-html","2","20297","0.0-2.0","2","1","hclvf56gxy2hvqh","","8838.700000047684","consent/consent.html","","","","","","","","","","","","","","","","","","","","","","","","","","","","","","","","","","","","","","","","","",""
"html-button-response","3","21547","0.0-3.0-0.0-0.0","2","1","hclvf56gxy2hvqh","","1246.7000000476837","","<p>Welcome to the study. You will first complete a short volume calibration and headphone check.</p><p>Please make sure you are in a quiet listening environment, that you are wearing headphones, and that your computer's volume is turned on.<p></p>","0","","","","","","","","","","","","","","","","","","","","","","","","","","","","","","","","","","","","","","","",""
"html-button-response","4","22586","0.0-3.0-0.0-1.0","2","1","hclvf56gxy2hvqh","","784.2999999523163","","<p>The volume calibration will be first.</p><p>You will hear a thirty-second noise. Please adjust your computer's volume so that this noise is being presented at a comfortable level.<p></p>","0","","","","","","","","","","","","","","","","","","","","","","","","","","","","","","","","","","","","","","","",""
"audio-button-response","5","24219","0.0-3.0-0.0-2.0","2","1","hclvf56gxy2hvqh","","1371","","audCalib/volumetest.mp3","0","","","","","","","","","","","","","","","","","","","","","","","","","","","","","","","","","","","","","","","",""
"html-button-response","6","26994","0.0-3.0-1.0-0.0","2","1","hclvf56gxy2hvqh","","2773.0999999046326","","<p>You will now complete a short headphone check.</p><p>On each trial, you will hear three tones. One of these tones will be quieter than the others. Your task is to identify whether the quiet tone occured first, second, or third.</p><p>There are six trials in total.<p></p>","0","","","","","","","","","","","","","","","","","","","","","","","","","","","","","","","","","","","","","","","",""
"html-keyboard-response","7","27762","0.0-3.0-1.0-1.0-0.0","2","1","hclvf56gxy2hvqh","","null","","<div style=""font-size:60px;"">+</div>","","null","","","","","","","","","","","","","","","","","","","","","","","","","","","","","","","","","","","","","","",""
"audio-button-response","8","32008","0.0-3.0-1.0-1.0-1.0","2","1","hclvf56gxy2hvqh","","4240","","audCalib/t2_1.mp3","1","","1","1","headphone-test","","","","","","","","","","","","","","","","","","","","","","","","","","","","","","","","","","","",""
"html-keyboard-response","9","32771","0.0-3.0-1.0-1.0-0.1","2","1","hclvf56gxy2hvqh","","null","","<div style=""font-size:60px;"">+</div>","","null","","","","","","","","","","","","","","","","","","","","","","","","","","","","","","","","","","","","","","",""
"audio-button-response","10","37114","0.0-3.0-1.0-1.0-1.1","2","1","hclvf56gxy2hvqh","","4352","","audCalib/t3_2.mp3","2","","2","1","headphone-test","","","","","","","","","","","","","","","","","","","","","","","","","","","","","","","","","","","",""
"html-keyboard-response","11","37882","0.0-3.0-1.0-1.0-0.2","2","1","hclvf56gxy2hvqh","","null","","<div style=""font-size:60px;"">+</div>","","null","","","","","","","","","","","","","","","","","","","","","","","","","","","","","","","","","","","","","","",""
"audio-button-response","12","42360","0.0-3.0-1.0-1.0-1.2","2","1","hclvf56gxy2hvqh","","4472","","audCalib/t1_2.mp3","1","","0","0","headphone-test","","","","","","","","","","","","","","","","","","","","","","","","","","","","","","","","","","","",""
"html-keyboard-response","13","43132","0.0-3.0-1.0-1.0-0.3","2","1","hclvf56gxy2hvqh","","null","","<div style=""font-size:60px;"">+</div>","","null","","","","","","","","","","","","","","","","","","","","","","","","","","","","","","","","","","","","","","",""
"audio-button-response","14","47614","0.0-3.0-1.0-1.0-1.3","2","1","hclvf56gxy2hvqh","","4480","","audCalib/t2_2.mp3","1","","1","1","headphone-test","","","","","","","","","","","","","","","","","","","","","","","","","","","","","","","","","","","",""
"html-keyboard-response","15","48382","0.0-3.0-1.0-1.0-0.4","2","1","hclvf56gxy2hvqh","","null","","<div style=""font-size:60px;"">+</div>","","null","","","","","","","","","","","","","","","","","","","","","","","","","","","","","","","","","","","","","","",""
"audio-button-response","16","52814","0.0-3.0-1.0-1.0-1.4","2","1","hclvf56gxy2hvqh","","4429","","audCalib/t1_1.mp3","0","","0","1","headphone-test","","","","","","","","","","","","","","","","","","","","","","","","","","","","","","","","","","","",""
"html-keyboard-response","17","53570","0.0-3.0-1.0-1.0-0.5","2","1","hclvf56gxy2hvqh","","null","","<div style=""font-size:60px;"">+</div>","","null","","","","","","","","","","","","","","","","","","","","","","","","","","","","","","","","","","","","","","",""
"audio-button-response","18","58176","0.0-3.0-1.0-1.0-1.5","2","1","hclvf56gxy2hvqh","","4611","","audCalib/t3_1.mp3","2","","2","1","headphone-test","","","","","","","","","","","","","","","","","","","","","","","","","","","","","","","","","","","",""
"html-button-response","19","59197","0.0-3.0-2.0","2","1","hclvf56gxy2hvqh","","762.6000000238419","","<p>The volume calibration and headphone check are now complete.</p>","0","","","","","","","","","","","","","","","","","","","","","","","","","","","","","","","","","","","","","","","",""
"instructions","20","72896","0.0-4.0-0.0","2","1","hclvf56gxy2hvqh","[{""page_index"":0,""viewing_time"":782.3999999761581},{""page_index"":1,""viewing_time"":11080.200000047684},{""page_index"":2,""viewing_time"":1836.1000000238419}]","13699","","","","","","","","","","","","","","","","","","","","","","","","","","","","","","","","","","","","","","","","","","",""
"audio-keyboard-response","21","73195","0.0-4.0-1.0-0.0","2","1","hclvf56gxy2hvqh","","null","","sounds/induction/left/ru_SWS.wav","","null","","","","","","","","","","","","","","","","","","","","","","","","","","","","","","","","","","","","","","",""
"html-button-response","22","74112","0.0-4.0-1.0-1.0","2","1","hclvf56gxy2hvqh","","914.3999999761581","","What sound did you hear?","0","","","1","INDUCTION-JUDGMENT","left","0","","","","","","","","","","","","","","","","","","","","","","","","","","","","","","","","","",""
"html-keyboard-response","23","75116","0.0-4.0-1.0-2.0","2","1","hclvf56gxy2hvqh","","null","","<p style=""color:green;""><b>Correct!</b></p>","","null","","","","","","","","","","","","","","","","","","","","","","","","","","","","","","","","","","","","","","",""
"audio-keyboard-response","24","75914","0.0-4.0-1.0-0.1","2","1","hclvf56gxy2hvqh","","null","","sounds/induction/left/re_SWS.wav","","null","","","","","","","","","","","","","","","","","","","","","","","","","","","","","","","","","","","","","","",""
"html-button-response","25","76895","0.0-4.0-1.0-1.1","2","1","hclvf56gxy2hvqh","","979.6000000238419","","What sound did you hear?","0","","","1","INDUCTION-JUDGMENT","left","0","","","","","","","","","","","","","","","","","","","","","","","","","","","","","","","","","",""
"html-keyboard-response","26","77902","0.0-4.0-1.0-2.1","2","1","hclvf56gxy2hvqh","","null","","<p style=""color:green;""><b>Correct!</b></p>","","null","","","","","","","","","","","","","","","","","","","","","","","","","","","","","","","","","","","","","","",""
"audio-keyboard-response","27","78704","0.0-4.0-1.0-0.2","2","1","hclvf56gxy2hvqh","","null","","sounds/induction/right/me_SWS.wav","","null","","","","","","","","","","","","","","","","","","","","","","","","","","","","","","","","","","","","","","",""
"html-button-response","28","79750","0.0-4.0-1.0-1.2","2","1","hclvf56gxy2hvqh","","1045","","What sound did you hear?","0","","","1","INDUCTION-JUDGMENT","right","0","","","","","","","","","","","","","","","","","","","","","","","","","","","","","","","","","",""
"html-keyboard-response","29","80752","0.0-4.0-1.0-2.2","2","1","hclvf56gxy2hvqh","","null","","<p style=""color:green;""><b>Correct!</b></p>","","null","","","","","","","","","","","","","","","","","","","","","","","","","","","","","","","","","","","","","","",""
"audio-keyboard-response","30","81556","0.0-4.0-1.0-0.3","2","1","hclvf56gxy2hvqh","","null","","sounds/induction/left/ti_SWS.wav","","null","","","","","","","","","","","","","","","","","","","","","","","","","","","","","","","","","","","","","","",""
"html-button-response","31","82248","0.0-4.0-1.0-1.3","2","1","hclvf56gxy2hvqh","","691","","What sound did you hear?","0","","","1","INDUCTION-JUDGMENT","left","0","","","","","","","","","","","","","","","","","","","","","","","","","","","","","","","","","",""
"html-keyboard-response","32","83252","0.0-4.0-1.0-2.3","2","1","hclvf56gxy2hvqh","","null","","<p style=""color:green;""><b>Correct!</b></p>","","null","","","","","","","","","","","","","","","","","","","","","","","","","","","","","","","","","","","","","","",""
"audio-keyboard-response","33","84066","0.0-4.0-1.0-0.4","2","1","hclvf56gxy2hvqh","","null","","sounds/induction/right/ko_SWS.wav","","null","","","","","","","","","","","","","","","","","","","","","","","","","","","","","","","","","","","","","","",""
"html-button-response","34","85048","0.0-4.0-1.0-1.4","2","1","hclvf56gxy2hvqh","","980.6000000238419","","What sound did you hear?","0","","","1","INDUCTION-JUDGMENT","right","0","","","","","","","","","","","","","","","","","","","","","","","","","","","","","","","","","",""
"html-keyboard-response","35","86052","0.0-4.0-1.0-2.4","2","1","hclvf56gxy2hvqh","","null","","<p style=""color:green;""><b>Correct!</b></p>","","null","","","","","","","","","","","","","","","","","","","","","","","","","","","","","","","","","","","","","","",""
"audio-keyboard-response","36","86864","0.0-4.0-1.0-0.5","2","1","hclvf56gxy2hvqh","","null","","sounds/induction/right/ta_SWS.wav","","null","","","","","","","","","","","","","","","","","","","","","","","","","","","","","","","","","","","","","","",""
"html-button-response","37","87714","0.0-4.0-1.0-1.5","2","1","hclvf56gxy2hvqh","","848.8999999761581","","What sound did you hear?","1","","","1","INDUCTION-JUDGMENT","right","1","","","","","","","","","","","","","","","","","","","","","","","","","","","","","","","","","",""
"html-keyboard-response","38","88720","0.0-4.0-1.0-2.5","2","1","hclvf56gxy2hvqh","","null","","<p style=""color:green;""><b>Correct!</b></p>","","null","","","","","","","","","","","","","","","","","","","","","","","","","","","","","","","","","","","","","","",""
"audio-keyboard-response","39","89534","0.0-4.0-1.0-0.6","2","1","hclvf56gxy2hvqh","","null","","sounds/induction/right/re_SWS.wav","","null","","","","","","","","","","","","","","","","","","","","","","","","","","","","","","","","","","","","","","",""
"html-button-response","40","90840","0.0-4.0-1.0-1.6","2","1","hclvf56gxy2hvqh","","1303.6000000238419","","What sound did you hear?","1","","","1","INDUCTION-JUDGMENT","right","1","","","","","","","","","","","","","","","","","","","","","","","","","","","","","","","","","",""
"html-keyboard-response","41","91842","0.0-4.0-1.0-2.6","2","1","hclvf56gxy2hvqh","","null","","<p style=""color:green;""><b>Correct!</b></p>","","null","","","","","","","","","","","","","","","","","","","","","","","","","","","","","","","","","","","","","","",""
"audio-keyboard-response","42","92654","0.0-4.0-1.0-0.7","2","1","hclvf56gxy2hvqh","","null","","sounds/induction/left/ge_SWS.wav","","null","","","","","","","","","","","","","","","","","","","","","","","","","","","","","","","","","","","","","","",""
"html-button-response","43","93468","0.0-4.0-1.0-1.7","2","1","hclvf56gxy2hvqh","","813.4000000953674","","What sound did you hear?","1","","","1","INDUCTION-JUDGMENT","left","1","","","","","","","","","","","","","","","","","","","","","","","","","","","","","","","","","",""
"html-keyboard-response","44","94472","0.0-4.0-1.0-2.7","2","1","hclvf56gxy2hvqh","","null","","<p style=""color:green;""><b>Correct!</b></p>","","null","","","","","","","","","","","","","","","","","","","","","","","","","","","","","","","","","","","","","","",""
"audio-keyboard-response","45","95275","0.0-4.0-1.0-0.8","2","1","hclvf56gxy2hvqh","","null","","sounds/induction/right/fe_SWS.wav","","null","","","","","","","","","","","","","","","","","","","","","","","","","","","","","","","","","","","","","","",""
"html-button-response","46","96693","0.0-4.0-1.0-1.8","2","1","hclvf56gxy2hvqh","","1416.8999999761581","","What sound did you hear?","0","","","1","INDUCTION-JUDGMENT","right","0","","","","","","","","","","","","","","","","","","","","","","","","","","","","","","","","","",""
"html-keyboard-response","47","97698","0.0-4.0-1.0-2.8","2","1","hclvf56gxy2hvqh","","null","","<p style=""color:green;""><b>Correct!</b></p>","","null","","","","","","","","","","","","","","","","","","","","","","","","","","","","","","","","","","","","","","",""
"audio-keyboard-response","48","98503","0.0-4.0-1.0-0.9","2","1","hclvf56gxy2hvqh","","null","","sounds/induction/left/ni_SWS.wav","","null","","","","","","","","","","","","","","","","","","","","","","","","","","","","","","","","","","","","","","",""
"html-button-response","49","99373","0.0-4.0-1.0-1.9","2","1","hclvf56gxy2hvqh","","868.1000000238419","","What sound did you hear?","1","","","1","INDUCTION-JUDGMENT","left","1","","","","","","","","","","","","","","","","","","","","","","","","","","","","","","","","","",""
"html-keyboard-response","50","100381","0.0-4.0-1.0-2.9","2","1","hclvf56gxy2hvqh","","null","","<p style=""color:green;""><b>Correct!</b></p>","","null","","","","","","","","","","","","","","","","","","","","","","","","","","","","","","","","","","","","","","",""
"audio-keyboard-response","51","101185","0.0-4.0-1.0-0.10","2","1","hclvf56gxy2hvqh","","null","","sounds/induction/left/su_SWS.wav","","null","","","","","","","","","","","","","","","","","","","","","","","","","","","","","","","","","","","","","","",""
"html-button-response","52","102205","0.0-4.0-1.0-1.10","2","1","hclvf56gxy2hvqh","","1018.3999999761581","","What sound did you hear?","0","","","1","INDUCTION-JUDGMENT","left","0","","","","","","","","","","","","","","","","","","","","","","","","","","","","","","","","","",""
"html-keyboard-response","53","103211","0.0-4.0-1.0-2.10","2","1","hclvf56gxy2hvqh","","null","","<p style=""color:green;""><b>Correct!</b></p>","","null","","","","","","","","","","","","","","","","","","","","","","","","","","","","","","","","","","","","","","",""
"audio-keyboard-response","54","104023","0.0-4.0-1.0-0.11","2","1","hclvf56gxy2hvqh","","null","","sounds/induction/left/ni_SWS.wav","","null","","","","","","","","","","","","","","","","","","","","","","","","","","","","","","","","","","","","","","",""
"html-button-response","55","104896","0.0-4.0-1.0-1.11","2","1","hclvf56gxy2hvqh","","871.5","","What sound did you hear?","1","","","1","INDUCTION-JUDGMENT","left","1","","","","","","","","","","","","","","","","","","","","","","","","","","","","","","","","","",""
"html-keyboard-response","56","105901","0.0-4.0-1.0-2.11","2","1","hclvf56gxy2hvqh","","null","","<p style=""color:green;""><b>Correct!</b></p>","","null","","","","","","","","","","","","","","","","","","","","","","","","","","","","","","","","","","","","","","",""
"audio-keyboard-response","57","106704","0.0-4.0-1.0-0.12","2","1","hclvf56gxy2hvqh","","null","","sounds/induction/left/pu_SWS.wav","","null","","","","","","","","","","","","","","","","","","","","","","","","","","","","","","","","","","","","","","",""
"html-button-response","58","108115","0.0-4.0-1.0-1.12","2","1","hclvf56gxy2hvqh","","1410","","What sound did you hear?","0","","","1","INDUCTION-JUDGMENT","left","0","","","","","","","","","","","","","","","","","","","","","","","","","","","","","","","","","",""
"html-keyboard-response","59","109121","0.0-4.0-1.0-2.12","2","1","hclvf56gxy2hvqh","","null","","<p style=""color:green;""><b>Correct!</b></p>","","null","","","","","","","","","","","","","","","","","","","","","","","","","","","","","","","","","","","","","","",""
"audio-keyboard-response","60","109934","0.0-4.0-1.0-0.13","2","1","hclvf56gxy2hvqh","","null","","sounds/induction/right/ru_SWS.wav","","null","","","","","","","","","","","","","","","","","","","","","","","","","","","","","","","","","","","","","","",""
"html-button-response","61","110737","0.0-4.0-1.0-1.13","2","1","hclvf56gxy2hvqh","","801.8000000715256","","What sound did you hear?","1","","","1","INDUCTION-JUDGMENT","right","1","","","","","","","","","","","","","","","","","","","","","","","","","","","","","","","","","",""
"html-keyboard-response","62","111741","0.0-4.0-1.0-2.13","2","1","hclvf56gxy2hvqh","","null","","<p style=""color:green;""><b>Correct!</b></p>","","null","","","","","","","","","","","","","","","","","","","","","","","","","","","","","","","","","","","","","","",""
"audio-keyboard-response","63","112544","0.0-4.0-1.0-0.14","2","1","hclvf56gxy2hvqh","","null","","sounds/induction/left/fu_SWS.wav","","null","","","","","","","","","","","","","","","","","","","","","","","","","","","","","","","","","","","","","","",""
"html-button-response","64","114249","0.0-4.0-1.0-1.14","2","1","hclvf56gxy2hvqh","","1704.1000000238419","","What sound did you hear?","1","","","1","INDUCTION-JUDGMENT","left","1","","","","","","","","","","","","","","","","","","","","","","","","","","","","","","","","","",""
"html-keyboard-response","65","115251","0.0-4.0-1.0-2.14","2","1","hclvf56gxy2hvqh","","null","","<p style=""color:green;""><b>Correct!</b></p>","","null","","","","","","","","","","","","","","","","","","","","","","","","","","","","","","","","","","","","","","",""
"audio-keyboard-response","66","116064","0.0-4.0-1.0-0.15","2","1","hclvf56gxy2hvqh","","null","","sounds/induction/right/ge_SWS.wav","","null","","","","","","","","","","","","","","","","","","","","","","","","","","","","","","","","","","","","","","",""
"html-button-response","67","117003","0.0-4.0-1.0-1.15","2","1","hclvf56gxy2hvqh","","938.1000000238419","","What sound did you hear?","0","","","1","INDUCTION-JUDGMENT","right","0","","","","","","","","","","","","","","","","","","","","","","","","","","","","","","","","","",""
"html-keyboard-response","68","118011","0.0-4.0-1.0-2.15","2","1","hclvf56gxy2hvqh","","null","","<p style=""color:green;""><b>Correct!</b></p>","","null","","","","","","","","","","","","","","","","","","","","","","","","","","","","","","","","","","","","","","",""
"audio-keyboard-response","69","118823","0.0-4.0-1.0-0.16","2","1","hclvf56gxy2hvqh","","null","","sounds/induction/right/ni_SWS.wav","","null","","","","","","","","","","","","","","","","","","","","","","","","","","","","","","","","","","","","","","",""
"html-button-response","70","119587","0.0-4.0-1.0-1.16","2","1","hclvf56gxy2hvqh","","759","","What sound did you hear?","0","","","1","INDUCTION-JUDGMENT","right","0","","","","","","","","","","","","","","","","","","","","","","","","","","","","","","","","","",""
"html-keyboard-response","71","120602","0.0-4.0-1.0-2.16","2","1","hclvf56gxy2hvqh","","null","","<p style=""color:green;""><b>Correct!</b></p>","","null","","","","","","","","","","","","","","","","","","","","","","","","","","","","","","","","","","","","","","",""
"audio-keyboard-response","72","121413","0.0-4.0-1.0-0.17","2","1","hclvf56gxy2hvqh","","null","","sounds/induction/left/ko_SWS.wav","","null","","","","","","","","","","","","","","","","","","","","","","","","","","","","","","","","","","","","","","",""
"html-button-response","73","122331","0.0-4.0-1.0-1.17","2","1","hclvf56gxy2hvqh","","916.1000000238419","","What sound did you hear?","1","","","1","INDUCTION-JUDGMENT","left","1","","","","","","","","","","","","","","","","","","","","","","","","","","","","","","","","","",""
"html-keyboard-response","74","123341","0.0-4.0-1.0-2.17","2","1","hclvf56gxy2hvqh","","null","","<p style=""color:green;""><b>Correct!</b></p>","","null","","","","","","","","","","","","","","","","","","","","","","","","","","","","","","","","","","","","","","",""
"audio-keyboard-response","75","124144","0.0-4.0-1.0-0.18","2","1","hclvf56gxy2hvqh","","null","","sounds/induction/right/me_SWS.wav","","null","","","","","","","","","","","","","","","","","","","","","","","","","","","","","","","","","","","","","","",""
"html-button-response","76","125007","0.0-4.0-1.0-1.18","2","1","hclvf56gxy2hvqh","","861.8000000715256","","What sound did you hear?","0","","","1","INDUCTION-JUDGMENT","right","0","","","","","","","","","","","","","","","","","","","","","","","","","","","","","","","","","",""
"html-keyboard-response","77","126011","0.0-4.0-1.0-2.18","2","1","hclvf56gxy2hvqh","","null","","<p style=""color:green;""><b>Correct!</b></p>","","null","","","","","","","","","","","","","","","","","","","","","","","","","","","","","","","","","","","","","","",""
"audio-keyboard-response","78","126822","0.0-4.0-1.0-0.19","2","1","hclvf56gxy2hvqh","","null","","sounds/induction/right/ni_SWS.wav","","null","","","","","","","","","","","","","","","","","","","","","","","","","","","","","","","","","","","","","","",""
"html-button-response","79","127870","0.0-4.0-1.0-1.19","2","1","hclvf56gxy2hvqh","","1046.8000000715256","","What sound did you hear?","0","","","1","INDUCTION-JUDGMENT","right","0","","","","","","","","","","","","","","","","","","","","","","","","","","","","","","","","","",""
"html-keyboard-response","80","128881","0.0-4.0-1.0-2.19","2","1","hclvf56gxy2hvqh","","null","","<p style=""color:green;""><b>Correct!</b></p>","","null","","","","","","","","","","","","","","","","","","","","","","","","","","","","","","","","","","","","","","",""
"audio-keyboard-response","81","129694","0.0-4.0-1.0-0.20","2","1","hclvf56gxy2hvqh","","null","","sounds/induction/right/ge_SWS.wav","","null","","","","","","","","","","","","","","","","","","","","","","","","","","","","","","","","","","","","","","",""
"html-button-response","82","130419","0.0-4.0-1.0-1.20","2","1","hclvf56gxy2hvqh","","723.5","","What sound did you hear?","0","","","1","INDUCTION-JUDGMENT","right","0","","","","","","","","","","","","","","","","","","","","","","","","","","","","","","","","","",""
"html-keyboard-response","83","131431","0.0-4.0-1.0-2.20","2","1","hclvf56gxy2hvqh","","null","","<p style=""color:green;""><b>Correct!</b></p>","","null","","","","","","","","","","","","","","","","","","","","","","","","","","","","","","","","","","","","","","",""
"audio-keyboard-response","84","132234","0.0-4.0-1.0-0.21","2","1","hclvf56gxy2hvqh","","null","","sounds/induction/left/ko_SWS.wav","","null","","","","","","","","","","","","","","","","","","","","","","","","","","","","","","","","","","","","","","",""
"html-button-response","85","133397","0.0-4.0-1.0-1.21","2","1","hclvf56gxy2hvqh","","1161.2999999523163","","What sound did you hear?","1","","","1","INDUCTION-JUDGMENT","left","1","","","","","","","","","","","","","","","","","","","","","","","","","","","","","","","","","",""
"html-keyboard-response","86","134411","0.0-4.0-1.0-2.21","2","1","hclvf56gxy2hvqh","","null","","<p style=""color:green;""><b>Correct!</b></p>","","null","","","","","","","","","","","","","","","","","","","","","","","","","","","","","","","","","","","","","","",""
"audio-keyboard-response","87","135223","0.0-4.0-1.0-0.22","2","1","hclvf56gxy2hvqh","","null","","sounds/induction/right/fe_SWS.wav","","null","","","","","","","","","","","","","","","","","","","","","","","","","","","","","","","","","","","","","","",""
"html-button-response","88","136490","0.0-4.0-1.0-1.22","2","1","hclvf56gxy2hvqh","","1264.6000000238419","","What sound did you hear?","1","","","0","INDUCTION-JUDGMENT","right","0","","","","","","","","","","","","","","","","","","","","","","","","","","","","","","","","","",""
"html-keyboard-response","89","137491","0.0-4.0-1.0-2.22","2","1","hclvf56gxy2hvqh","","null","","<p style=""color:red;""><b>Incorrect!</b></p>","","null","","","","","","","","","","","","","","","","","","","","","","","","","","","","","","","","","","","","","","",""
"audio-keyboard-response","90","138305","0.0-4.0-1.0-0.23","2","1","hclvf56gxy2hvqh","","null","","sounds/induction/right/re_SWS.wav","","null","","","","","","","","","","","","","","","","","","","","","","","","","","","","","","","","","","","","","","",""
"html-button-response","91","139469","0.0-4.0-1.0-1.23","2","1","hclvf56gxy2hvqh","","1162.8999999761581","","What sound did you hear?","1","","","1","INDUCTION-JUDGMENT","right","1","","","","","","","","","","","","","","","","","","","","","","","","","","","","","","","","","",""
"html-keyboard-response","92","140471","0.0-4.0-1.0-2.23","2","1","hclvf56gxy2hvqh","","null","","<p style=""color:green;""><b>Correct!</b></p>","","null","","","","","","","","","","","","","","","","","","","","","","","","","","","","","","","","","","","","","","",""
"audio-keyboard-response","93","141273","0.0-4.0-1.0-0.24","2","1","hclvf56gxy2hvqh","","null","","sounds/induction/right/ko_SWS.wav","","null","","","","","","","","","","","","","","","","","","","","","","","","","","","","","","","","","","","","","","",""
"html-button-response","94","142005","0.0-4.0-1.0-1.24","2","1","hclvf56gxy2hvqh","","730.1000000238419","","What sound did you hear?","0","","","1","INDUCTION-JUDGMENT","right","0","","","","","","","","","","","","","","","","","","","","","","","","","","","","","","","","","",""
"html-keyboard-response","95","143011","0.0-4.0-1.0-2.24","2","1","hclvf56gxy2hvqh","","null","","<p style=""color:green;""><b>Correct!</b></p>","","null","","","","","","","","","","","","","","","","","","","","","","","","","","","","","","","","","","","","","","",""
"audio-keyboard-response","96","143823","0.0-4.0-1.0-0.25","2","1","hclvf56gxy2hvqh","","null","","sounds/induction/right/ru_SWS.wav","","null","","","","","","","","","","","","","","","","","","","","","","","","","","","","","","","","","","","","","","",""
"html-button-response","97","144804","0.0-4.0-1.0-1.25","2","1","hclvf56gxy2hvqh","","978.7999999523163","","What sound did you hear?","1","","","1","INDUCTION-JUDGMENT","right","1","","","","","","","","","","","","","","","","","","","","","","","","","","","","","","","","","",""
"html-keyboard-response","98","145810","0.0-4.0-1.0-2.25","2","1","hclvf56gxy2hvqh","","null","","<p style=""color:green;""><b>Correct!</b></p>","","null","","","","","","","","","","","","","","","","","","","","","","","","","","","","","","","","","","","","","","",""
"audio-keyboard-response","99","146626","0.0-4.0-1.0-0.26","2","1","hclvf56gxy2hvqh","","null","","sounds/induction/left/su_SWS.wav","","null","","","","","","","","","","","","","","","","","","","","","","","","","","","","","","","","","","","","","","",""
"html-button-response","100","147455","0.0-4.0-1.0-1.26","2","1","hclvf56gxy2hvqh","","827.1999999284744","","What sound did you hear?","0","","","1","INDUCTION-JUDGMENT","left","0","","","","","","","","","","","","","","","","","","","","","","","","","","","","","","","","","",""
"html-keyboard-response","101","148459","0.0-4.0-1.0-2.26","2","1","hclvf56gxy2hvqh","","null","","<p style=""color:green;""><b>Correct!</b></p>","","null","","","","","","","","","","","","","","","","","","","","","","","","","","","","","","","","","","","","","","",""
"audio-keyboard-response","102","149264","0.0-4.0-1.0-0.27","2","1","hclvf56gxy2hvqh","","null","","sounds/induction/right/ti_SWS.wav","","null","","","","","","","","","","","","","","","","","","","","","","","","","","","","","","","","","","","","","","",""
"html-button-response","103","150365","0.0-4.0-1.0-1.27","2","1","hclvf56gxy2hvqh","","1099.8999999761581","","What sound did you hear?","1","","","1","INDUCTION-JUDGMENT","right","1","","","","","","","","","","","","","","","","","","","","","","","","","","","","","","","","","",""
"html-keyboard-response","104","151381","0.0-4.0-1.0-2.27","2","1","hclvf56gxy2hvqh","","null","","<p style=""color:green;""><b>Correct!</b></p>","","null","","","","","","","","","","","","","","","","","","","","","","","","","","","","","","","","","","","","","","",""
"audio-keyboard-response","105","152183","0.0-4.0-1.0-0.28","2","1","hclvf56gxy2hvqh","","null","","sounds/induction/left/ru_SWS.wav","","null","","","","","","","","","","","","","","","","","","","","","","","","","","","","","","","","","","","","","","",""
"html-button-response","106","152955","0.0-4.0-1.0-1.28","2","1","hclvf56gxy2hvqh","","770.5","","What sound did you hear?","0","","","1","INDUCTION-JUDGMENT","left","0","","","","","","","","","","","","","","","","","","","","","","","","","","","","","","","","","",""
"html-keyboard-response","107","153961","0.0-4.0-1.0-2.28","2","1","hclvf56gxy2hvqh","","null","","<p style=""color:green;""><b>Correct!</b></p>","","null","","","","","","","","","","","","","","","","","","","","","","","","","","","","","","","","","","","","","","",""
"audio-keyboard-response","108","154774","0.0-4.0-1.0-0.29","2","1","hclvf56gxy2hvqh","","null","","sounds/induction/left/ta_SWS.wav","","null","","","","","","","","","","","","","","","","","","","","","","","","","","","","","","","","","","","","","","",""
"html-button-response","109","155657","0.0-4.0-1.0-1.29","2","1","hclvf56gxy2hvqh","","881","","What sound did you hear?","0","","","1","INDUCTION-JUDGMENT","left","0","","","","","","","","","","","","","","","","","","","","","","","","","","","","","","","","","",""
"html-keyboard-response","110","156661","0.0-4.0-1.0-2.29","2","1","hclvf56gxy2hvqh","","null","","<p style=""color:green;""><b>Correct!</b></p>","","null","","","","","","","","","","","","","","","","","","","","","","","","","","","","","","","","","","","","","","",""
"audio-keyboard-response","111","157463","0.0-4.0-1.0-0.30","2","1","hclvf56gxy2hvqh","","null","","sounds/induction/left/fu_SWS.wav","","null","","","","","","","","","","","","","","","","","","","","","","","","","","","","","","","","","","","","","","",""
"html-button-response","112","158370","0.0-4.0-1.0-1.30","2","1","hclvf56gxy2hvqh","","905","","What sound did you hear?","1","","","1","INDUCTION-JUDGMENT","left","1","","","","","","","","","","","","","","","","","","","","","","","","","","","","","","","","","",""
"html-keyboard-response","113","159381","0.0-4.0-1.0-2.30","2","1","hclvf56gxy2hvqh","","null","","<p style=""color:green;""><b>Correct!</b></p>","","null","","","","","","","","","","","","","","","","","","","","","","","","","","","","","","","","","","","","","","",""
"audio-keyboard-response","114","160184","0.0-4.0-1.0-0.31","2","1","hclvf56gxy2hvqh","","null","","sounds/induction/right/fu_SWS.wav","","null","","","","","","","","","","","","","","","","","","","","","","","","","","","","","","","","","","","","","","",""
"html-button-response","115","161057","0.0-4.0-1.0-1.31","2","1","hclvf56gxy2hvqh","","871.7000000476837","","What sound did you hear?","0","","","1","INDUCTION-JUDGMENT","right","0","","","","","","","","","","","","","","","","","","","","","","","","","","","","","","","","","",""
"html-keyboard-response","116","162061","0.0-4.0-1.0-2.31","2","1","hclvf56gxy2hvqh","","null","","<p style=""color:green;""><b>Correct!</b></p>","","null","","","","","","","","","","","","","","","","","","","","","","","","","","","","","","","","","","","","","","",""
"audio-keyboard-response","117","162864","0.0-4.0-1.0-0.32","2","1","hclvf56gxy2hvqh","","null","","sounds/induction/left/fe_SWS.wav","","null","","","","","","","","","","","","","","","","","","","","","","","","","","","","","","","","","","","","","","",""
"html-button-response","118","164177","0.0-4.0-1.0-1.32","2","1","hclvf56gxy2hvqh","","1311.9000000953674","","What sound did you hear?","1","","","1","INDUCTION-JUDGMENT","left","1","","","","","","","","","","","","","","","","","","","","","","","","","","","","","","","","","",""
"html-keyboard-response","119","165181","0.0-4.0-1.0-2.32","2","1","hclvf56gxy2hvqh","","null","","<p style=""color:green;""><b>Correct!</b></p>","","null","","","","","","","","","","","","","","","","","","","","","","","","","","","","","","","","","","","","","","",""
"audio-keyboard-response","120","165984","0.0-4.0-1.0-0.33","2","1","hclvf56gxy2hvqh","","null","","sounds/induction/right/fu_SWS.wav","","null","","","","","","","","","","","","","","","","","","","","","","","","","","","","","","","","","","","","","","",""
"html-button-response","121","166803","0.0-4.0-1.0-1.33","2","1","hclvf56gxy2hvqh","","817.8000000715256","","What sound did you hear?","1","","","0","INDUCTION-JUDGMENT","right","0","","","","","","","","","","","","","","","","","","","","","","","","","","","","","","","","","",""
"html-keyboard-response","122","167805","0.0-4.0-1.0-2.33","2","1","hclvf56gxy2hvqh","","null","","<p style=""color:red;""><b>Incorrect!</b></p>","","null","","","","","","","","","","","","","","","","","","","","","","","","","","","","","","","","","","","","","","",""
"audio-keyboard-response","123","168613","0.0-4.0-1.0-0.34","2","1","hclvf56gxy2hvqh","","null","","sounds/induction/left/ta_SWS.wav","","null","","","","","","","","","","","","","","","","","","","","","","","","","","","","","","","","","","","","","","",""
"html-button-response","124","169297","0.0-4.0-1.0-1.34","2","1","hclvf56gxy2hvqh","","682.7999999523163","","What sound did you hear?","0","","","1","INDUCTION-JUDGMENT","left","0","","","","","","","","","","","","","","","","","","","","","","","","","","","","","","","","","",""
"html-keyboard-response","125","170311","0.0-4.0-1.0-2.34","2","1","hclvf56gxy2hvqh","","null","","<p style=""color:green;""><b>Correct!</b></p>","","null","","","","","","","","","","","","","","","","","","","","","","","","","","","","","","","","","","","","","","",""
"audio-keyboard-response","126","171114","0.0-4.0-1.0-0.35","2","1","hclvf56gxy2hvqh","","null","","sounds/induction/right/su_SWS.wav","","null","","","","","","","","","","","","","","","","","","","","","","","","","","","","","","","","","","","","","","",""
"html-button-response","127","172141","0.0-4.0-1.0-1.35","2","1","hclvf56gxy2hvqh","","1026.1999999284744","","What sound did you hear?","1","","","1","INDUCTION-JUDGMENT","right","1","","","","","","","","","","","","","","","","","","","","","","","","","","","","","","","","","",""
"html-keyboard-response","128","173151","0.0-4.0-1.0-2.35","2","1","hclvf56gxy2hvqh","","null","","<p style=""color:green;""><b>Correct!</b></p>","","null","","","","","","","","","","","","","","","","","","","","","","","","","","","","","","","","","","","","","","",""
"audio-keyboard-response","129","173973","0.0-4.0-1.0-0.36","2","1","hclvf56gxy2hvqh","","null","","sounds/induction/right/ti_SWS.wav","","null","","","","","","","","","","","","","","","","","","","","","","","","","","","","","","","","","","","","","","",""
"html-button-response","130","174911","0.0-4.0-1.0-1.36","2","1","hclvf56gxy2hvqh","","936.1000000238419","","What sound did you hear?","1","","","1","INDUCTION-JUDGMENT","right","1","","","","","","","","","","","","","","","","","","","","","","","","","","","","","","","","","",""
"html-keyboard-response","131","175921","0.0-4.0-1.0-2.36","2","1","hclvf56gxy2hvqh","","null","","<p style=""color:green;""><b>Correct!</b></p>","","null","","","","","","","","","","","","","","","","","","","","","","","","","","","","","","","","","","","","","","",""
"audio-keyboard-response","132","176733","0.0-4.0-1.0-0.37","2","1","hclvf56gxy2hvqh","","null","","sounds/induction/right/pu_SWS.wav","","null","","","","","","","","","","","","","","","","","","","","","","","","","","","","","","","","","","","","","","",""
"html-button-response","133","177529","0.0-4.0-1.0-1.37","2","1","hclvf56gxy2hvqh","","794","","What sound did you hear?","0","","","0","INDUCTION-JUDGMENT","right","1","","","","","","","","","","","","","","","","","","","","","","","","","","","","","","","","","",""
"html-keyboard-response","134","178541","0.0-4.0-1.0-2.37","2","1","hclvf56gxy2hvqh","","null","","<p style=""color:red;""><b>Incorrect!</b></p>","","null","","","","","","","","","","","","","","","","","","","","","","","","","","","","","","","","","","","","","","",""
"audio-keyboard-response","135","179343","0.0-4.0-1.0-0.38","2","1","hclvf56gxy2hvqh","","null","","sounds/induction/left/ti_SWS.wav","","null","","","","","","","","","","","","","","","","","","","","","","","","","","","","","","","","","","","","","","",""
"html-button-response","136","180092","0.0-4.0-1.0-1.38","2","1","hclvf56gxy2hvqh","","746.9000000953674","","What sound did you hear?","0","","","1","INDUCTION-JUDGMENT","left","0","","","","","","","","","","","","","","","","","","","","","","","","","","","","","","","","","",""
"html-keyboard-response","137","181100","0.0-4.0-1.0-2.38","2","1","hclvf56gxy2hvqh","","null","","<p style=""color:green;""><b>Correct!</b></p>","","null","","","","","","","","","","","","","","","","","","","","","","","","","","","","","","","","","","","","","","",""
"audio-keyboard-response","138","181904","0.0-4.0-1.0-0.39","2","1","hclvf56gxy2hvqh","","null","","sounds/induction/right/ta_SWS.wav","","null","","","","","","","","","","","","","","","","","","","","","","","","","","","","","","","","","","","","","","",""
"html-button-response","139","182981","0.0-4.0-1.0-1.39","2","1","hclvf56gxy2hvqh","","1075.6999999284744","","What sound did you hear?","1","","","1","INDUCTION-JUDGMENT","right","1","","","","","","","","","","","","","","","","","","","","","","","","","","","","","","","","","",""
"html-keyboard-response","140","183982","0.0-4.0-1.0-2.39","2","1","hclvf56gxy2hvqh","","null","","<p style=""color:green;""><b>Correct!</b></p>","","null","","","","","","","","","","","","","","","","","","","","","","","","","","","","","","","","","","","","","","",""
"audio-keyboard-response","141","184783","0.0-4.0-1.0-0.40","2","1","hclvf56gxy2hvqh","","null","","sounds/induction/right/pu_SWS.wav","","null","","","","","","","","","","","","","","","","","","","","","","","","","","","","","","","","","","","","","","",""
"html-button-response","142","185905","0.0-4.0-1.0-1.40","2","1","hclvf56gxy2hvqh","","1119.7999999523163","","What sound did you hear?","1","","","1","INDUCTION-JUDGMENT","right","1","","","","","","","","","","","","","","","","","","","","","","","","","","","","","","","","","",""
"html-keyboard-response","143","186909","0.0-4.0-1.0-2.40","2","1","hclvf56gxy2hvqh","","null","","<p style=""color:green;""><b>Correct!</b></p>","","null","","","","","","","","","","","","","","","","","","","","","","","","","","","","","","","","","","","","","","",""
"audio-keyboard-response","144","187714","0.0-4.0-1.0-0.41","2","1","hclvf56gxy2hvqh","","null","","sounds/induction/left/me_SWS.wav","","null","","","","","","","","","","","","","","","","","","","","","","","","","","","","","","","","","","","","","","",""
"html-button-response","145","188925","0.0-4.0-1.0-1.41","2","1","hclvf56gxy2hvqh","","1209.6000000238419","","What sound did you hear?","1","","","1","INDUCTION-JUDGMENT","left","1","","","","","","","","","","","","","","","","","","","","","","","","","","","","","","","","","",""
"html-keyboard-response","146","189931","0.0-4.0-1.0-2.41","2","1","hclvf56gxy2hvqh","","null","","<p style=""color:green;""><b>Correct!</b></p>","","null","","","","","","","","","","","","","","","","","","","","","","","","","","","","","","","","","","","","","","",""
"audio-keyboard-response","147","190744","0.0-4.0-1.0-0.42","2","1","hclvf56gxy2hvqh","","null","","sounds/induction/left/fe_SWS.wav","","null","","","","","","","","","","","","","","","","","","","","","","","","","","","","","","","","","","","","","","",""
"html-button-response","148","191755","0.0-4.0-1.0-1.42","2","1","hclvf56gxy2hvqh","","1009.2999999523163","","What sound did you hear?","1","","","1","INDUCTION-JUDGMENT","left","1","","","","","","","","","","","","","","","","","","","","","","","","","","","","","","","","","",""
"html-keyboard-response","149","192761","0.0-4.0-1.0-2.42","2","1","hclvf56gxy2hvqh","","null","","<p style=""color:green;""><b>Correct!</b></p>","","null","","","","","","","","","","","","","","","","","","","","","","","","","","","","","","","","","","","","","","",""
"audio-keyboard-response","150","193574","0.0-4.0-1.0-0.43","2","1","hclvf56gxy2hvqh","","null","","sounds/induction/left/ge_SWS.wav","","null","","","","","","","","","","","","","","","","","","","","","","","","","","","","","","","","","","","","","","",""
"html-button-response","151","194453","0.0-4.0-1.0-1.43","2","1","hclvf56gxy2hvqh","","878.5","","What sound did you hear?","1","","","1","INDUCTION-JUDGMENT","left","1","","","","","","","","","","","","","","","","","","","","","","","","","","","","","","","","","",""
"html-keyboard-response","152","195461","0.0-4.0-1.0-2.43","2","1","hclvf56gxy2hvqh","","null","","<p style=""color:green;""><b>Correct!</b></p>","","null","","","","","","","","","","","","","","","","","","","","","","","","","","","","","","","","","","","","","","",""
"audio-keyboard-response","153","196263","0.0-4.0-1.0-0.44","2","1","hclvf56gxy2hvqh","","null","","sounds/induction/left/me_SWS.wav","","null","","","","","","","","","","","","","","","","","","","","","","","","","","","","","","","","","","","","","","",""
"html-button-response","154","197922","0.0-4.0-1.0-1.44","2","1","hclvf56gxy2hvqh","","1656.7000000476837","","What sound did you hear?","1","","","1","INDUCTION-JUDGMENT","left","1","","","","","","","","","","","","","","","","","","","","","","","","","","","","","","","","","",""
"html-keyboard-response","155","198931","0.0-4.0-1.0-2.44","2","1","hclvf56gxy2hvqh","","null","","<p style=""color:green;""><b>Correct!</b></p>","","null","","","","","","","","","","","","","","","","","","","","","","","","","","","","","","","","","","","","","","",""
"audio-keyboard-response","156","199745","0.0-4.0-1.0-0.45","2","1","hclvf56gxy2hvqh","","null","","sounds/induction/left/pu_SWS.wav","","null","","","","","","","","","","","","","","","","","","","","","","","","","","","","","","","","","","","","","","",""
"html-button-response","157","201297","0.0-4.0-1.0-1.45","2","1","hclvf56gxy2hvqh","","1550.8999999761581","","What sound did you hear?","0","","","1","INDUCTION-JUDGMENT","left","0","","","","","","","","","","","","","","","","","","","","","","","","","","","","","","","","","",""
"html-keyboard-response","158","202301","0.0-4.0-1.0-2.45","2","1","hclvf56gxy2hvqh","","null","","<p style=""color:green;""><b>Correct!</b></p>","","null","","","","","","","","","","","","","","","","","","","","","","","","","","","","","","","","","","","","","","",""
"audio-keyboard-response","159","203103","0.0-4.0-1.0-0.46","2","1","hclvf56gxy2hvqh","","null","","sounds/induction/left/re_SWS.wav","","null","","","","","","","","","","","","","","","","","","","","","","","","","","","","","","","","","","","","","","",""
"html-button-response","160","204505","0.0-4.0-1.0-1.46","2","1","hclvf56gxy2hvqh","","1400.1999999284744","","What sound did you hear?","0","","","1","INDUCTION-JUDGMENT","left","0","","","","","","","","","","","","","","","","","","","","","","","","","","","","","","","","","",""
"html-keyboard-response","161","205511","0.0-4.0-1.0-2.46","2","1","hclvf56gxy2hvqh","","null","","<p style=""color:green;""><b>Correct!</b></p>","","null","","","","","","","","","","","","","","","","","","","","","","","","","","","","","","","","","","","","","","",""
"audio-keyboard-response","162","206313","0.0-4.0-1.0-0.47","2","1","hclvf56gxy2hvqh","","null","","sounds/induction/right/su_SWS.wav","","null","","","","","","","","","","","","","","","","","","","","","","","","","","","","","","","","","","","","","","",""
"html-button-response","163","207255","0.0-4.0-1.0-1.47","2","1","hclvf56gxy2hvqh","","939.6999999284744","","What sound did you hear?","1","","","1","INDUCTION-JUDGMENT","right","1","","","","","","","","","","","","","","","","","","","","","","","","","","","","","","","","","",""
"html-keyboard-response","164","208261","0.0-4.0-1.0-2.47","2","1","hclvf56gxy2hvqh","","null","","<p style=""color:green;""><b>Correct!</b></p>","","null","","","","","","","","","","","","","","","","","","","","","","","","","","","","","","","","","","","","","","",""
"html-button-response","165","229418","0.0-5.0-0.0","2","1","hclvf56gxy2hvqh","","20651.200000047684","","<p>Thank you for your answers.</p><p>You will now listen to similar sounds. The main difference is that the sounds will be longer and will make up complete sentences.</p><p>Please listen carefully to each sentence. After each sentence, you will be asked to type back what you heard to the best of your ability. After you provide your response, you will be given feedback about the correct answer.</p><p>There are 10 sentences in total.","0","","","","","","","","","","","","","","","","","","","","","","","","","","","","","","","","","","","","","","","",""
"audio-keyboard-response","166","232234","0.0-5.0-1.0-0.0","2","1","hclvf56gxy2hvqh","","null","","sounds/sentences/left/14_02_cfSWS.wav","","null","","","","","","","","","","","","","","","","","","","","","","","","","","","","","","","","","","","","","","",""
"sentence-resp","167","249873","0.0-5.0-1.0-1.0","2","1","hclvf56gxy2hvqh","","17636","","","","","","","SWS-SENT-RESPONSE","","","{""Q0"":""He said he tried the same thing 30 times""}","He said the same phrase thirty times.","said,same,phrase,thirty,times","HE SAID HE TRIED THE SAME THING 30 TIMES","1","1","0","0","1","3","0.6","","","","","","","","","","","","","","","","","","","","","","",""
"html-keyboard-response","168","251141","0.0-5.0-1.0-2.0","2","1","hclvf56gxy2hvqh","","null","","","","null","","","","","","","","","","","","","","","","","","","","","","","","","","","","","","","","","","","","","","",""
"audio-keyboard-response","169","253454","0.0-5.0-1.0-3.0","2","1","hclvf56gxy2hvqh","","null","","sounds/sentences/left/14_02_cfSWS.wav","","null","","","","","","","","","","","","","","","","","","","","","","","","","","","","","","","","","","","","","","",""
"html-keyboard-response","170","254461","0.0-5.0-1.0-4.0","2","1","hclvf56gxy2hvqh","","null","","","","null","","","","","","","","","","","","","","","","","","","","","","","","","","","","","","","","","","","","","","",""
"html-button-response","171","256507","0.0-5.0-1.0-5.0","2","1","hclvf56gxy2hvqh","","1536","","<p>Press the button below when you are ready to continue.</p>","0","","","","","","","","","","","","","","","","","","","","","","","","","","","","","","","","","","","","","","","",""
"audio-keyboard-response","172","259094","0.0-5.0-1.0-0.1","2","1","hclvf56gxy2hvqh","","null","","sounds/sentences/left/14_03_cfSWS.wav","","null","","","","","","","","","","","","","","","","","","","","","","","","","","","","","","","","","","","","","","",""
"sentence-resp","173","275818","0.0-5.0-1.0-1.1","2","1","hclvf56gxy2hvqh","","16721","","","","","","","SWS-SENT-RESPONSE","","","{""Q0"":""I'd like it without pickles please""}","Pluck the bright rose without leaves.","pluck,bright,rose,without,leaves","I'D LIKE IT WITHOUT PICKLES PLEASE","0","0","0","1","0","1","0.2","","","","","","","","","","","","","","","","","","","","","","",""
"html-keyboard-response","174","277073","0.0-5.0-1.0-2.1","2","1","hclvf56gxy2hvqh","","null","","","","null","","","","","","","","","","","","","","","","","","","","","","","","","","","","","","","","","","","","","","",""
"audio-keyboard-response","175","279154","0.0-5.0-1.0-3.1","2","1","hclvf56gxy2hvqh","","null","","sounds/sentences/left/14_03_cfSWS.wav","","null","","","","","","","","","","","","","","","","","","","","","","","","","","","","","","","","","","","","","","",""
"html-keyboard-response","176","280156","0.0-5.0-1.0-4.1","2","1","hclvf56gxy2hvqh","","null","","","","null","","","","","","","","","","","","","","","","","","","","","","","","","","","","","","","","","","","","","","",""
"html-button-response","177","281844","0.0-5.0-1.0-5.1","2","1","hclvf56gxy2hvqh","","1185.8999999761581","","<p>Press the button below when you are ready to continue.</p>","0","","","","","","","","","","","","","","","","","","","","","","","","","","","","","","","","","","","","","","","",""
"audio-keyboard-response","178","284844","0.0-5.0-1.0-0.2","2","1","hclvf56gxy2hvqh","","null","","sounds/sentences/left/14_05_cfSWS.wav","","null","","","","","","","","","","","","","","","","","","","","","","","","","","","","","","","","","","","","","","",""
"sentence-resp","179","292902","0.0-5.0-1.0-1.2","2","1","hclvf56gxy2hvqh","","8056","","","","","","","SWS-SENT-RESPONSE","","","{""Q0"":""He looked into the eyes of the sweet girl""}","The glow deepened in the eyes of the sweet girl.","glow,deepened,eyes,sweet,girl","HE LOOKED INTO THE EYES OF THE SWEET GIRL","0","0","1","1","1","3","0.6","","","","","","","","","","","","","","","","","","","","","","",""
"html-keyboard-response","180","294164","0.0-5.0-1.0-2.2","2","1","hclvf56gxy2hvqh","","null","","","","null","","","","","","","","","","","","","","","","","","","","","","","","","","","","","","","","","","","","","","",""
"audio-keyboard-response","181","296654","0.0-5.0-1.0-3.2","2","1","hclvf56gxy2hvqh","","null","","sounds/sentences/left/14_05_cfSWS.wav","","null","","","","","","","","","","","","","","","","","","","","","","","","","","","","","","","","","","","","","","",""
"html-keyboard-response","182","297660","0.0-5.0-1.0-4.2","2","1","hclvf56gxy2hvqh","","null","","","","null","","","","","","","","","","","","","","","","","","","","","","","","","","","","","","","","","","","","","","",""
"html-button-response","183","299305","0.0-5.0-1.0-5.2","2","1","hclvf56gxy2hvqh","","1132.6000000238419","","<p>Press the button below when you are ready to continue.</p>","0","","","","","","","","","","","","","","","","","","","","","","","","","","","","","","","","","","","","","","","",""
"audio-keyboard-response","184","302036","0.0-5.0-1.0-0.3","2","1","hclvf56gxy2hvqh","","null","","sounds/sentences/right/14_09_cfSWS.wav","","null","","","","","","","","","","","","","","","","","","","","","","","","","","","","","","","","","","","","","","",""
"sentence-resp","185","318132","0.0-5.0-1.0-1.3","2","1","hclvf56gxy2hvqh","","16095","","","","","","","SWS-SENT-RESPONSE","","","{""Q0"":""He went and took a bad turn""}","We frown when events take a bad turn.","frown,events,take,bad,turn","HE WENT AND TOOK A BAD TURN","0","0","0","1","1","2","0.4","","","","","","","","","","","","","","","","","","","","","","",""
"html-keyboard-response","186","319395","0.0-5.0-1.0-2.3","2","1","hclvf56gxy2hvqh","","null","","","","null","","","","","","","","","","","","","","","","","","","","","","","","","","","","","","","","","","","","","","",""
"audio-keyboard-response","187","321624","0.0-5.0-1.0-3.3","2","1","hclvf56gxy2hvqh","","null","","sounds/sentences/right/14_09_cfSWS.wav","","null","","","","","","","","","","","","","","","","","","","","","","","","","","","","","","","","","","","","","","",""
"html-keyboard-response","188","322628","0.0-5.0-1.0-4.3","2","1","hclvf56gxy2hvqh","","null","","","","null","","","","","","","","","","","","","","","","","","","","","","","","","","","","","","","","","","","","","","",""
"html-button-response","189","323995","0.0-5.0-1.0-5.3","2","1","hclvf56gxy2hvqh","","863","","<p>Press the button below when you are ready to continue.</p>","0","","","","","","","","","","","","","","","","","","","","","","","","","","","","","","","","","","","","","","","",""
"audio-keyboard-response","190","326764","0.0-5.0-1.0-0.4","2","1","hclvf56gxy2hvqh","","null","","sounds/sentences/right/14_08_cfSWS.wav","","null","","","","","","","","","","","","","","","","","","","","","","","","","","","","","","","","","","","","","","",""
"sentence-resp","191","341341","0.0-5.0-1.0-1.4","2","1","hclvf56gxy2hvqh","","14574","","","","","","","SWS-SENT-RESPONSE","","","{""Q0"":""___ watching and for you to miss""}","Clothes and lodging are free to new men.","clothes,lodging,free,new,men","___ WATCHING AND FOR YOU TO MISS","0","0","0","0","0","0","0","","","","","","","","","","","","","","","","","","","","","","",""
"html-keyboard-response","192","342607","0.0-5.0-1.0-2.4","2","1","hclvf56gxy2hvqh","","null","","","","null","","","","","","","","","","","","","","","","","","","","","","","","","","","","","","","","","","","","","","",""
"audio-keyboard-response","193","344863","0.0-5.0-1.0-3.4","2","1","hclvf56gxy2hvqh","","null","","sounds/sentences/right/14_08_cfSWS.wav","","null","","","","","","","","","","","","","","","","","","","","","","","","","","","","","","","","","","","","","","",""
"html-keyboard-response","194","345881","0.0-5.0-1.0-4.4","2","1","hclvf56gxy2hvqh","","null","","","","null","","","","","","","","","","","","","","","","","","","","","","","","","","","","","","","","","","","","","","",""
"html-button-response","195","348043","0.0-5.0-1.0-5.4","2","1","hclvf56gxy2hvqh","","1651.6000000238419","","<p>Press the button below when you are ready to continue.</p>","0","","","","","","","","","","","","","","","","","","","","","","","","","","","","","","","","","","","","","","","",""
"audio-keyboard-response","196","350794","0.0-5.0-1.0-0.5","2","1","hclvf56gxy2hvqh","","null","","sounds/sentences/right/14_06_cfSWS.wav","","null","","","","","","","","","","","","","","","","","","","","","","","","","","","","","","","","","","","","","","",""
"sentence-resp","197","358694","0.0-5.0-1.0-1.5","2","1","hclvf56gxy2hvqh","","7899","","","","","","","SWS-SENT-RESPONSE","","","{""Q0"":""Tell your problems to the wise chief""}","Bring your problems to the wise chief.","bring,your,problems,wise,chief","TELL YOUR PROBLEMS TO THE WISE CHIEF","0","1","1","1","1","4","0.8","","","","","","","","","","","","","","","","","","","","","","",""
"html-keyboard-response","198","359953","0.0-5.0-1.0-2.5","2","1","hclvf56gxy2hvqh","","null","","","","null","","","","","","","","","","","","","","","","","","","","","","","","","","","","","","","","","","","","","","",""
"audio-keyboard-response","199","362196","0.0-5.0-1.0-3.5","2","1","hclvf56gxy2hvqh","","null","","sounds/sentences/right/14_06_cfSWS.wav","","null","","","","","","","","","","","","","","","","","","","","","","","","","","","","","","","","","","","","","","",""
"html-keyboard-response","200","363201","0.0-5.0-1.0-4.5","2","1","hclvf56gxy2hvqh","","null","","","","null","","","","","","","","","","","","","","","","","","","","","","","","","","","","","","","","","","","","","","",""
"html-button-response","201","365503","0.0-5.0-1.0-5.5","2","1","hclvf56gxy2hvqh","","1791.2999999523163","","<p>Press the button below when you are ready to continue.</p>","0","","","","","","","","","","","","","","","","","","","","","","","","","","","","","","","","","","","","","","","",""
"audio-keyboard-response","202","368523","0.0-5.0-1.0-0.6","2","1","hclvf56gxy2hvqh","","null","","sounds/sentences/right/14_10_cfSWS.wav","","null","","","","","","","","","","","","","","","","","","","","","","","","","","","","","","","","","","","","","","",""
"sentence-resp","203","380429","0.0-5.0-1.0-1.6","2","1","hclvf56gxy2hvqh","","11903","","","","","","","SWS-SENT-RESPONSE","","","{""Q0"":""___ is a strong wine with a smoky taste""}","Port is a strong wine with a smoky taste.","port,strong,wine,smoky,taste","___ IS A STRONG WINE WITH A SMOKY TASTE","0","1","1","1","1","4","0.8","","","","","","","","","","","","","","","","","","","","","","",""
"html-keyboard-response","204","381692","0.0-5.0-1.0-2.6","2","1","hclvf56gxy2hvqh","","null","","","","null","","","","","","","","","","","","","","","","","","","","","","","","","","","","","","","","","","","","","","",""
"audio-keyboard-response","205","384204","0.0-5.0-1.0-3.6","2","1","hclvf56gxy2hvqh","","null","","sounds/sentences/right/14_10_cfSWS.wav","","null","","","","","","","","","","","","","","","","","","","","","","","","","","","","","","","","","","","","","","",""
"html-keyboard-response","206","385211","0.0-5.0-1.0-4.6","2","1","hclvf56gxy2hvqh","","null","","","","null","","","","","","","","","","","","","","","","","","","","","","","","","","","","","","","","","","","","","","",""
"html-button-response","207","386740","0.0-5.0-1.0-5.6","2","1","hclvf56gxy2hvqh","","1026.3999999761581","","<p>Press the button below when you are ready to continue.</p>","0","","","","","","","","","","","","","","","","","","","","","","","","","","","","","","","","","","","","","","","",""
"audio-keyboard-response","208","389623","0.0-5.0-1.0-0.7","2","1","hclvf56gxy2hvqh","","null","","sounds/sentences/right/14_07_cfSWS.wav","","null","","","","","","","","","","","","","","","","","","","","","","","","","","","","","","","","","","","","","","",""
"sentence-resp","209","398379","0.0-5.0-1.0-1.7","2","1","hclvf56gxy2hvqh","","8754","","","","","","","SWS-SENT-RESPONSE","","","{""Q0"":""Write a ___ to the friends you cherish""}","Write a fond note to the friend you cherish.","write,fond,note,friend,cherish","WRITE A ___ TO THE FRIENDS YOU CHERISH","1","0","0","0","1","2","0.4","","","","","","","","","","","","","","","","","","","","","","",""
"html-keyboard-response","210","399651","0.0-5.0-1.0-2.7","2","1","hclvf56gxy2hvqh","","null","","","","null","","","","","","","","","","","","","","","","","","","","","","","","","","","","","","","","","","","","","","",""
"audio-keyboard-response","211","402034","0.0-5.0-1.0-3.7","2","1","hclvf56gxy2hvqh","","null","","sounds/sentences/right/14_07_cfSWS.wav","","null","","","","","","","","","","","","","","","","","","","","","","","","","","","","","","","","","","","","","","",""
"html-keyboard-response","212","403041","0.0-5.0-1.0-4.7","2","1","hclvf56gxy2hvqh","","null","","","","null","","","","","","","","","","","","","","","","","","","","","","","","","","","","","","","","","","","","","","",""
"html-button-response","213","404155","0.0-5.0-1.0-5.7","2","1","hclvf56gxy2hvqh","","611.7999999523163","","<p>Press the button below when you are ready to continue.</p>","0","","","","","","","","","","","","","","","","","","","","","","","","","","","","","","","","","","","","","","","",""
"audio-keyboard-response","214","406713","0.0-5.0-1.0-0.8","2","1","hclvf56gxy2hvqh","","null","","sounds/sentences/left/14_04_cfSWS.wav","","null","","","","","","","","","","","","","","","","","","","","","","","","","","","","","","","","","","","","","","",""
"sentence-resp","215","424337","0.0-5.0-1.0-1.8","2","1","hclvf56gxy2hvqh","","17622","","","","","","","SWS-SENT-RESPONSE","","","{""Q0"":""2 and 7 is less than 10""}","Two plus seven is less than ten.","two,plus,seven,less,ten","2 AND 7 IS LESS THAN 10","0","0","0","1","0","1","0.2","","","","","","","","","","","","","","","","","","","","","","",""
"html-keyboard-response","216","425595","0.0-5.0-1.0-2.8","2","1","hclvf56gxy2hvqh","","null","","","","null","","","","","","","","","","","","","","","","","","","","","","","","","","","","","","","","","","","","","","",""
"audio-keyboard-response","217","427653","0.0-5.0-1.0-3.8","2","1","hclvf56gxy2hvqh","","null","","sounds/sentences/left/14_04_cfSWS.wav","","null","","","","","","","","","","","","","","","","","","","","","","","","","","","","","","","","","","","","","","",""
"html-keyboard-response","218","428661","0.0-5.0-1.0-4.8","2","1","hclvf56gxy2hvqh","","null","","","","null","","","","","","","","","","","","","","","","","","","","","","","","","","","","","","","","","","","","","","",""
"html-button-response","219","430153","0.0-5.0-1.0-5.8","2","1","hclvf56gxy2hvqh","","981.5","","<p>Press the button below when you are ready to continue.</p>","0","","","","","","","","","","","","","","","","","","","","","","","","","","","","","","","","","","","","","","","",""
"audio-keyboard-response","220","433274","0.0-5.0-1.0-0.9","2","1","hclvf56gxy2hvqh","","null","","sounds/sentences/left/14_01_cfSWS.wav","","null","","","","","","","","","","","","","","","","","","","","","","","","","","","","","","","","","","","","","","",""
"sentence-resp","221","450519","0.0-5.0-1.0-1.9","2","1","hclvf56gxy2hvqh","","17243","","","","","","","SWS-SENT-RESPONSE","","","{""Q0"":""He crammed his nose through danger""}","A cramp is no small danger on a swim.","cramp,no,small,danger,swim","HE CRAMMED HIS NOSE THROUGH DANGER","0","0","0","1","0","1","0.2","","","","","","","","","","","","","","","","","","","","","","",""
"html-keyboard-response","222","451777","0.0-5.0-1.0-2.9","2","1","hclvf56gxy2hvqh","","null","","","","null","","","","","","","","","","","","","","","","","","","","","","","","","","","","","","","","","","","","","","",""
"audio-keyboard-response","223","454392","0.0-5.0-1.0-3.9","2","1","hclvf56gxy2hvqh","","null","","sounds/sentences/left/14_01_cfSWS.wav","","null","","","","","","","","","","","","","","","","","","","","","","","","","","","","","","","","","","","","","","",""
"html-keyboard-response","224","455395","0.0-5.0-1.0-4.9","2","1","hclvf56gxy2hvqh","","null","","","","null","","","","","","","","","","","","","","","","","","","","","","","","","","","","","","","","","","","","","","",""
"html-button-response","225","456903","0.0-5.0-1.0-5.9","2","1","hclvf56gxy2hvqh","","1004.1000000238419","","<p>Press the button below when you are ready to continue.</p>","0","","","","","","","","","","","","","","","","","","","","","","","","","","","","","","","","","","","","","","","",""
"html-keyboard-response","226","461034","0.0-6.0-0.0","2","1","hclvf56gxy2hvqh","","3628","","<p>In this part of the study, you will hear sounds similar to those you just heard.</p><p>Please focus on these sounds, as you may be asked questions about them later.</p><p>Occasionally, the sounds will pause for up to two seconds. When this happens, please press SPACEBAR as quickly as you can.</br>This helps ensure that you are paying attention to the sounds.</p><p>This part of the study will take about 12 minutes to complete, and you will be given the opportunity to take a couple of short breaks every few minutes.</p><p><strong>Press SPACEBAR to begin</strong></p>","","32","","","","","","","","","","","","","","","","","","","","","","","","","","","","","","","","","","","","","","",""
"html-keyboard-response","227","462042","0.0-6.0-1.0-0.0","2","1","hclvf56gxy2hvqh","","null","","<p style=""font-size: 40px;"">+</p>","","null","","","","","","","","","","","","","","","","","","","","","","","","","","","","","","","","","","","","","","",""
"html-keyboard-response","228","647048","0.0-6.0-1.0-1.0","2","1","hclvf56gxy2hvqh","","null","","","","null","","","SL-TRAIN","","","","","","","","","","","","","","0","1408.4000000953674","1519.7000000476837","sounds/B/TRAIN/SEQ__04.mp3","2","","","","","","","","","","","","","","","","","",""
"html-button-response","229","649854","0.0-6.0-1.0-2.0","2","1","hclvf56gxy2hvqh","","2803.2999999523163","","<p>You may take a short break if you wish.</p>","0","","","","","","","","","","","","","","","","","","","","","","","","","","","","","","","","","","","","","","","",""
"html-keyboard-response","230","650857","0.0-6.0-1.0-3.0","2","1","hclvf56gxy2hvqh","","null","","<p style=""font-size: 40px;"">+</p>","","null","","","","","","","","","","","","","","","","","","","","","","","","","","","","","","","","","","","","","","",""
"html-keyboard-response","231","835865","0.0-6.0-1.0-4.0","2","1","hclvf56gxy2hvqh","","null","","","","null","","","SL-TRAIN","","","","","","","","","","","","","","0","1240.7000000476837","1472.7999999523163","sounds/B/TRAIN/SEQ__02.mp3","4","","","","","","","","","","","","","","","","","",""
"html-button-response","232","838218","0.0-6.0-1.0-5.0","2","1","hclvf56gxy2hvqh","","2351","","<p>You may take a short break if you wish.</p>","0","","","","","","","","","","","","","","","","","","","","","","","","","","","","","","","","","","","","","","","",""
"html-keyboard-response","233","839220","0.0-6.0-1.0-6.0","2","1","hclvf56gxy2hvqh","","null","","<p style=""font-size: 40px;"">+</p>","","null","","","","","","","","","","","","","","","","","","","","","","","","","","","","","","","","","","","","","","",""
"html-keyboard-response","234","1024228","0.0-6.0-1.0-7.0","2","1","hclvf56gxy2hvqh","","null","","","","null","","","SL-TRAIN","","","","","","","","","","","","","","0","1377.3999999761581","1254","sounds/B/TRAIN/SEQ__09.mp3","6","","","","","","","","","","","","","","","","","",""
"html-button-response","235","1026401","0.0-6.0-1.0-8.0","2","1","hclvf56gxy2hvqh","","2170.7000000476837","","<p>You may take a short break if you wish.</p>","0","","","","","","","","","","","","","","","","","","","","","","","","","","","","","","","","","","","","","","","",""
"html-keyboard-response","236","1027404","0.0-6.0-1.0-9.0","2","1","hclvf56gxy2hvqh","","null","","<p style=""font-size: 40px;"">+</p>","","null","","","","","","","","","","","","","","","","","","","","","","","","","","","","","","","","","","","","","","",""
"html-keyboard-response","237","1212411","0.0-6.0-1.0-10.0","2","1","hclvf56gxy2hvqh","","null","","","","null","","","SL-TRAIN","","","","","","","","","","","","","","0","1204.6999999284744","1185","sounds/B/TRAIN/SEQ__12.mp3","8","","","","","","","","","","","","","","","","","",""
"html-button-response","238","1214695","0.0-6.0-1.0-11.0","2","1","hclvf56gxy2hvqh","","2281.7000000476837","","<p>You may take a short break if you wish.</p>","0","","","","","","","","","","","","","","","","","","","","","","","","","","","","","","","","","","","","","","","",""
"html-button-response","239","1215612","0.0-7.0-0.0","2","1","hclvf56gxy2hvqh","","916.3999999761581","","<p>Welcome to the second part of the study. This is a <u>familiarity task</u>.</p><p>You will now hear short sounds and will be asked to rate how familiar they sound to you <b>based on what you heard in the previous part of the study</b>.</p><p>You will rate 12 sounds in total.</p>","0","","","","","","","","","","","","","","","","","","","","","","","","","","","","","","","","","","","","","","","",""
"html-keyboard-response","240","1216614","0.0-7.0-1.0-0.0","2","1","hclvf56gxy2hvqh","","null","","","","null","","","","","","","","","","","","","","","","","","","","","","","","","","","","","","","","","","","","","","",""
"audio-keyboard-response","241","1217624","0.0-7.0-1.0-1.0","2","1","hclvf56gxy2hvqh","","null","","sounds/B/FAM/P004.mp3","","null","","","","","","","","","","","","","","","","","","","","","","","","","","","","","","","","","","","","","","",""
"html-keyboard-response","242","1219144","0.0-7.0-1.0-2.0","2","1","hclvf56gxy2hvqh","","1008.8999999761581","","<p>How familiar did this sound to you?</p><p>1&nbsp;&nbsp;&nbsp;&nbsp;&nbsp;&nbsp;&nbsp;&nbsp;&nbsp;&nbsp;&nbsp;&nbsp;&nbsp;&nbsp;&nbsp;&nbsp;&nbsp;&nbsp;&nbsp;2&nbsp;&nbsp;&nbsp;&nbsp;&nbsp;&nbsp;&nbsp;&nbsp;&nbsp;&nbsp;&nbsp;&nbsp;&nbsp;&nbsp;&nbsp;&nbsp;&nbsp;&nbsp;&nbsp;3&nbsp;&nbsp;&nbsp;&nbsp;&nbsp;&nbsp;&nbsp;&nbsp;&nbsp;&nbsp;&nbsp;&nbsp;&nbsp;&nbsp;&nbsp;&nbsp;&nbsp;&nbsp;&nbsp;4</p><p style=""font-size:14px"">Not at all familiar&nbsp;&nbsp;&nbsp;&nbsp;A little familiar&nbsp;&nbsp;&nbsp;Moderately familiar&nbsp;&nbsp;&nbsp;Extremely familiar</p><p>(press the corresponding number on your keyboard)</p>","","52","","","FAM-RESPONSE","","","","","","","","","","","","","","","","","","","sounds/B/FAM/P004.mp3","partword","","","","","","","","","","","","","","","",""
"html-keyboard-response","243","1221160","0.0-7.0-1.0-0.1","2","1","hclvf56gxy2hvqh","","null","","","","null","","","","","","","","","","","","","","","","","","","","","","","","","","","","","","","","","","","","","","",""
"audio-keyboard-response","244","1222103","0.0-7.0-1.0-1.1","2","1","hclvf56gxy2hvqh","","null","","sounds/B/FAM/W002.mp3","","null","","","","","","","","","","","","","","","","","","","","","","","","","","","","","","","","","","","","","","",""
"html-keyboard-response","245","1223122","0.0-7.0-1.0-2.1","2","1","hclvf56gxy2hvqh","","506.60000002384186","","<p>How familiar did this sound to you?</p><p>1&nbsp;&nbsp;&nbsp;&nbsp;&nbsp;&nbsp;&nbsp;&nbsp;&nbsp;&nbsp;&nbsp;&nbsp;&nbsp;&nbsp;&nbsp;&nbsp;&nbsp;&nbsp;&nbsp;2&nbsp;&nbsp;&nbsp;&nbsp;&nbsp;&nbsp;&nbsp;&nbsp;&nbsp;&nbsp;&nbsp;&nbsp;&nbsp;&nbsp;&nbsp;&nbsp;&nbsp;&nbsp;&nbsp;3&nbsp;&nbsp;&nbsp;&nbsp;&nbsp;&nbsp;&nbsp;&nbsp;&nbsp;&nbsp;&nbsp;&nbsp;&nbsp;&nbsp;&nbsp;&nbsp;&nbsp;&nbsp;&nbsp;4</p><p style=""font-size:14px"">Not at all familiar&nbsp;&nbsp;&nbsp;&nbsp;A little familiar&nbsp;&nbsp;&nbsp;Moderately familiar&nbsp;&nbsp;&nbsp;Extremely familiar</p><p>(press the corresponding number on your keyboard)</p>","","50","","","FAM-RESPONSE","","","","","","","","","","","","","","","","","","","sounds/B/FAM/W002.mp3","word","","","","","","","","","","","","","","","",""
"html-keyboard-response","246","1225135","0.0-7.0-1.0-0.2","2","1","hclvf56gxy2hvqh","","null","","","","null","","","","","","","","","","","","","","","","","","","","","","","","","","","","","","","","","","","","","","",""
"audio-keyboard-response","247","1226073","0.0-7.0-1.0-1.2","2","1","hclvf56gxy2hvqh","","null","","sounds/B/FAM/P003.mp3","","null","","","","","","","","","","","","","","","","","","","","","","","","","","","","","","","","","","","","","","",""
"html-keyboard-response","248","1226899","0.0-7.0-1.0-2.2","2","1","hclvf56gxy2hvqh","","309.7000000476837","","<p>How familiar did this sound to you?</p><p>1&nbsp;&nbsp;&nbsp;&nbsp;&nbsp;&nbsp;&nbsp;&nbsp;&nbsp;&nbsp;&nbsp;&nbsp;&nbsp;&nbsp;&nbsp;&nbsp;&nbsp;&nbsp;&nbsp;2&nbsp;&nbsp;&nbsp;&nbsp;&nbsp;&nbsp;&nbsp;&nbsp;&nbsp;&nbsp;&nbsp;&nbsp;&nbsp;&nbsp;&nbsp;&nbsp;&nbsp;&nbsp;&nbsp;3&nbsp;&nbsp;&nbsp;&nbsp;&nbsp;&nbsp;&nbsp;&nbsp;&nbsp;&nbsp;&nbsp;&nbsp;&nbsp;&nbsp;&nbsp;&nbsp;&nbsp;&nbsp;&nbsp;4</p><p style=""font-size:14px"">Not at all familiar&nbsp;&nbsp;&nbsp;&nbsp;A little familiar&nbsp;&nbsp;&nbsp;Moderately familiar&nbsp;&nbsp;&nbsp;Extremely familiar</p><p>(press the corresponding number on your keyboard)</p>","","52","","","FAM-RESPONSE","","","","","","","","","","","","","","","","","","","sounds/B/FAM/P003.mp3","partword","","","","","","","","","","","","","","","",""
"html-keyboard-response","249","1228910","0.0-7.0-1.0-0.3","2","1","hclvf56gxy2hvqh","","null","","","","null","","","","","","","","","","","","","","","","","","","","","","","","","","","","","","","","","","","","","","",""
"audio-keyboard-response","250","1229853","0.0-7.0-1.0-1.3","2","1","hclvf56gxy2hvqh","","null","","sounds/B/FAM/N004.mp3","","null","","","","","","","","","","","","","","","","","","","","","","","","","","","","","","","","","","","","","","",""
"html-keyboard-response","251","1230610","0.0-7.0-1.0-2.3","2","1","hclvf56gxy2hvqh","","245.70000004768372","","<p>How familiar did this sound to you?</p><p>1&nbsp;&nbsp;&nbsp;&nbsp;&nbsp;&nbsp;&nbsp;&nbsp;&nbsp;&nbsp;&nbsp;&nbsp;&nbsp;&nbsp;&nbsp;&nbsp;&nbsp;&nbsp;&nbsp;2&nbsp;&nbsp;&nbsp;&nbsp;&nbsp;&nbsp;&nbsp;&nbsp;&nbsp;&nbsp;&nbsp;&nbsp;&nbsp;&nbsp;&nbsp;&nbsp;&nbsp;&nbsp;&nbsp;3&nbsp;&nbsp;&nbsp;&nbsp;&nbsp;&nbsp;&nbsp;&nbsp;&nbsp;&nbsp;&nbsp;&nbsp;&nbsp;&nbsp;&nbsp;&nbsp;&nbsp;&nbsp;&nbsp;4</p><p style=""font-size:14px"">Not at all familiar&nbsp;&nbsp;&nbsp;&nbsp;A little familiar&nbsp;&nbsp;&nbsp;Moderately familiar&nbsp;&nbsp;&nbsp;Extremely familiar</p><p>(press the corresponding number on your keyboard)</p>","","49","","","FAM-RESPONSE","","","","","","","","","","","","","","","","","","","sounds/B/FAM/N004.mp3","nonword","","","","","","","","","","","","","","","",""
"html-keyboard-response","252","1232617","0.0-7.0-1.0-0.4","2","1","hclvf56gxy2hvqh","","null","","","","null","","","","","","","","","","","","","","","","","","","","","","","","","","","","","","","","","","","","","","",""
"audio-keyboard-response","253","1233554","0.0-7.0-1.0-1.4","2","1","hclvf56gxy2hvqh","","null","","sounds/B/FAM/N001.mp3","","null","","","","","","","","","","","","","","","","","","","","","","","","","","","","","","","","","","","","","","",""
"html-keyboard-response","254","1234378","0.0-7.0-1.0-2.4","2","1","hclvf56gxy2hvqh","","309.10000002384186","","<p>How familiar did this sound to you?</p><p>1&nbsp;&nbsp;&nbsp;&nbsp;&nbsp;&nbsp;&nbsp;&nbsp;&nbsp;&nbsp;&nbsp;&nbsp;&nbsp;&nbsp;&nbsp;&nbsp;&nbsp;&nbsp;&nbsp;2&nbsp;&nbsp;&nbsp;&nbsp;&nbsp;&nbsp;&nbsp;&nbsp;&nbsp;&nbsp;&nbsp;&nbsp;&nbsp;&nbsp;&nbsp;&nbsp;&nbsp;&nbsp;&nbsp;3&nbsp;&nbsp;&nbsp;&nbsp;&nbsp;&nbsp;&nbsp;&nbsp;&nbsp;&nbsp;&nbsp;&nbsp;&nbsp;&nbsp;&nbsp;&nbsp;&nbsp;&nbsp;&nbsp;4</p><p style=""font-size:14px"">Not at all familiar&nbsp;&nbsp;&nbsp;&nbsp;A little familiar&nbsp;&nbsp;&nbsp;Moderately familiar&nbsp;&nbsp;&nbsp;Extremely familiar</p><p>(press the corresponding number on your keyboard)</p>","","49","","","FAM-RESPONSE","","","","","","","","","","","","","","","","","","","sounds/B/FAM/N001.mp3","nonword","","","","","","","","","","","","","","","",""
"html-keyboard-response","255","1236408","0.0-7.0-1.0-0.5","2","1","hclvf56gxy2hvqh","","null","","","","null","","","","","","","","","","","","","","","","","","","","","","","","","","","","","","","","","","","","","","",""
"audio-keyboard-response","256","1237344","0.0-7.0-1.0-1.5","2","1","hclvf56gxy2hvqh","","null","","sounds/B/FAM/N003.mp3","","null","","","","","","","","","","","","","","","","","","","","","","","","","","","","","","","","","","","","","","",""
"html-keyboard-response","257","1238412","0.0-7.0-1.0-2.5","2","1","hclvf56gxy2hvqh","","562.8999999761581","","<p>How familiar did this sound to you?</p><p>1&nbsp;&nbsp;&nbsp;&nbsp;&nbsp;&nbsp;&nbsp;&nbsp;&nbsp;&nbsp;&nbsp;&nbsp;&nbsp;&nbsp;&nbsp;&nbsp;&nbsp;&nbsp;&nbsp;2&nbsp;&nbsp;&nbsp;&nbsp;&nbsp;&nbsp;&nbsp;&nbsp;&nbsp;&nbsp;&nbsp;&nbsp;&nbsp;&nbsp;&nbsp;&nbsp;&nbsp;&nbsp;&nbsp;3&nbsp;&nbsp;&nbsp;&nbsp;&nbsp;&nbsp;&nbsp;&nbsp;&nbsp;&nbsp;&nbsp;&nbsp;&nbsp;&nbsp;&nbsp;&nbsp;&nbsp;&nbsp;&nbsp;4</p><p style=""font-size:14px"">Not at all familiar&nbsp;&nbsp;&nbsp;&nbsp;A little familiar&nbsp;&nbsp;&nbsp;Moderately familiar&nbsp;&nbsp;&nbsp;Extremely familiar</p><p>(press the corresponding number on your keyboard)</p>","","50","","","FAM-RESPONSE","","","","","","","","","","","","","","","","","","","sounds/B/FAM/N003.mp3","nonword","","","","","","","","","","","","","","","",""
"html-keyboard-response","258","1240441","0.0-7.0-1.0-0.6","2","1","hclvf56gxy2hvqh","","null","","","","null","","","","","","","","","","","","","","","","","","","","","","","","","","","","","","","","","","","","","","",""
"audio-keyboard-response","259","1241383","0.0-7.0-1.0-1.6","2","1","hclvf56gxy2hvqh","","null","","sounds/B/FAM/N002.mp3","","null","","","","","","","","","","","","","","","","","","","","","","","","","","","","","","","","","","","","","","",""
"html-keyboard-response","260","1242363","0.0-7.0-1.0-2.6","2","1","hclvf56gxy2hvqh","","463.90000009536743","","<p>How familiar did this sound to you?</p><p>1&nbsp;&nbsp;&nbsp;&nbsp;&nbsp;&nbsp;&nbsp;&nbsp;&nbsp;&nbsp;&nbsp;&nbsp;&nbsp;&nbsp;&nbsp;&nbsp;&nbsp;&nbsp;&nbsp;2&nbsp;&nbsp;&nbsp;&nbsp;&nbsp;&nbsp;&nbsp;&nbsp;&nbsp;&nbsp;&nbsp;&nbsp;&nbsp;&nbsp;&nbsp;&nbsp;&nbsp;&nbsp;&nbsp;3&nbsp;&nbsp;&nbsp;&nbsp;&nbsp;&nbsp;&nbsp;&nbsp;&nbsp;&nbsp;&nbsp;&nbsp;&nbsp;&nbsp;&nbsp;&nbsp;&nbsp;&nbsp;&nbsp;4</p><p style=""font-size:14px"">Not at all familiar&nbsp;&nbsp;&nbsp;&nbsp;A little familiar&nbsp;&nbsp;&nbsp;Moderately familiar&nbsp;&nbsp;&nbsp;Extremely familiar</p><p>(press the corresponding number on your keyboard)</p>","","50","","","FAM-RESPONSE","","","","","","","","","","","","","","","","","","","sounds/B/FAM/N002.mp3","nonword","","","","","","","","","","","","","","","",""
"html-keyboard-response","261","1244368","0.0-7.0-1.0-0.7","2","1","hclvf56gxy2hvqh","","null","","","","null","","","","","","","","","","","","","","","","","","","","","","","","","","","","","","","","","","","","","","",""
"audio-keyboard-response","262","1245304","0.0-7.0-1.0-1.7","2","1","hclvf56gxy2hvqh","","null","","sounds/B/FAM/W004.mp3","","null","","","","","","","","","","","","","","","","","","","","","","","","","","","","","","","","","","","","","","",""
"html-keyboard-response","263","1246122","0.0-7.0-1.0-2.7","2","1","hclvf56gxy2hvqh","","305","","<p>How familiar did this sound to you?</p><p>1&nbsp;&nbsp;&nbsp;&nbsp;&nbsp;&nbsp;&nbsp;&nbsp;&nbsp;&nbsp;&nbsp;&nbsp;&nbsp;&nbsp;&nbsp;&nbsp;&nbsp;&nbsp;&nbsp;2&nbsp;&nbsp;&nbsp;&nbsp;&nbsp;&nbsp;&nbsp;&nbsp;&nbsp;&nbsp;&nbsp;&nbsp;&nbsp;&nbsp;&nbsp;&nbsp;&nbsp;&nbsp;&nbsp;3&nbsp;&nbsp;&nbsp;&nbsp;&nbsp;&nbsp;&nbsp;&nbsp;&nbsp;&nbsp;&nbsp;&nbsp;&nbsp;&nbsp;&nbsp;&nbsp;&nbsp;&nbsp;&nbsp;4</p><p style=""font-size:14px"">Not at all familiar&nbsp;&nbsp;&nbsp;&nbsp;A little familiar&nbsp;&nbsp;&nbsp;Moderately familiar&nbsp;&nbsp;&nbsp;Extremely familiar</p><p>(press the corresponding number on your keyboard)</p>","","51","","","FAM-RESPONSE","","","","","","","","","","","","","","","","","","","sounds/B/FAM/W004.mp3","word","","","","","","","","","","","","","","","",""
"html-keyboard-response","264","1248131","0.0-7.0-1.0-0.8","2","1","hclvf56gxy2hvqh","","null","","","","null","","","","","","","","","","","","","","","","","","","","","","","","","","","","","","","","","","","","","","",""
"audio-keyboard-response","265","1249062","0.0-7.0-1.0-1.8","2","1","hclvf56gxy2hvqh","","null","","sounds/B/FAM/W001.mp3","","null","","","","","","","","","","","","","","","","","","","","","","","","","","","","","","","","","","","","","","",""
"html-keyboard-response","266","1249867","0.0-7.0-1.0-2.8","2","1","hclvf56gxy2hvqh","","300.5","","<p>How familiar did this sound to you?</p><p>1&nbsp;&nbsp;&nbsp;&nbsp;&nbsp;&nbsp;&nbsp;&nbsp;&nbsp;&nbsp;&nbsp;&nbsp;&nbsp;&nbsp;&nbsp;&nbsp;&nbsp;&nbsp;&nbsp;2&nbsp;&nbsp;&nbsp;&nbsp;&nbsp;&nbsp;&nbsp;&nbsp;&nbsp;&nbsp;&nbsp;&nbsp;&nbsp;&nbsp;&nbsp;&nbsp;&nbsp;&nbsp;&nbsp;3&nbsp;&nbsp;&nbsp;&nbsp;&nbsp;&nbsp;&nbsp;&nbsp;&nbsp;&nbsp;&nbsp;&nbsp;&nbsp;&nbsp;&nbsp;&nbsp;&nbsp;&nbsp;&nbsp;4</p><p style=""font-size:14px"">Not at all familiar&nbsp;&nbsp;&nbsp;&nbsp;A little familiar&nbsp;&nbsp;&nbsp;Moderately familiar&nbsp;&nbsp;&nbsp;Extremely familiar</p><p>(press the corresponding number on your keyboard)</p>","","52","","","FAM-RESPONSE","","","","","","","","","","","","","","","","","","","sounds/B/FAM/W001.mp3","word","","","","","","","","","","","","","","","",""
"html-keyboard-response","267","1251877","0.0-7.0-1.0-0.9","2","1","hclvf56gxy2hvqh","","null","","","","null","","","","","","","","","","","","","","","","","","","","","","","","","","","","","","","","","","","","","","",""
"audio-keyboard-response","268","1252824","0.0-7.0-1.0-1.9","2","1","hclvf56gxy2hvqh","","null","","sounds/B/FAM/W003.mp3","","null","","","","","","","","","","","","","","","","","","","","","","","","","","","","","","","","","","","","","","",""
"html-keyboard-response","269","1254026","0.0-7.0-1.0-2.9","2","1","hclvf56gxy2hvqh","","698.6000000238419","","<p>How familiar did this sound to you?</p><p>1&nbsp;&nbsp;&nbsp;&nbsp;&nbsp;&nbsp;&nbsp;&nbsp;&nbsp;&nbsp;&nbsp;&nbsp;&nbsp;&nbsp;&nbsp;&nbsp;&nbsp;&nbsp;&nbsp;2&nbsp;&nbsp;&nbsp;&nbsp;&nbsp;&nbsp;&nbsp;&nbsp;&nbsp;&nbsp;&nbsp;&nbsp;&nbsp;&nbsp;&nbsp;&nbsp;&nbsp;&nbsp;&nbsp;3&nbsp;&nbsp;&nbsp;&nbsp;&nbsp;&nbsp;&nbsp;&nbsp;&nbsp;&nbsp;&nbsp;&nbsp;&nbsp;&nbsp;&nbsp;&nbsp;&nbsp;&nbsp;&nbsp;4</p><p style=""font-size:14px"">Not at all familiar&nbsp;&nbsp;&nbsp;&nbsp;A little familiar&nbsp;&nbsp;&nbsp;Moderately familiar&nbsp;&nbsp;&nbsp;Extremely familiar</p><p>(press the corresponding number on your keyboard)</p>","","50","","","FAM-RESPONSE","","","","","","","","","","","","","","","","","","","sounds/B/FAM/W003.mp3","word","","","","","","","","","","","","","","","",""
"html-keyboard-response","270","1256044","0.0-7.0-1.0-0.10","2","1","hclvf56gxy2hvqh","","null","","","","null","","","","","","","","","","","","","","","","","","","","","","","","","","","","","","","","","","","","","","",""
"audio-keyboard-response","271","1256983","0.0-7.0-1.0-1.10","2","1","hclvf56gxy2hvqh","","null","","sounds/B/FAM/P001.mp3","","null","","","","","","","","","","","","","","","","","","","","","","","","","","","","","","","","","","","","","","",""
"html-keyboard-response","272","1258295","0.0-7.0-1.0-2.10","2","1","hclvf56gxy2hvqh","","796.2000000476837","","<p>How familiar did this sound to you?</p><p>1&nbsp;&nbsp;&nbsp;&nbsp;&nbsp;&nbsp;&nbsp;&nbsp;&nbsp;&nbsp;&nbsp;&nbsp;&nbsp;&nbsp;&nbsp;&nbsp;&nbsp;&nbsp;&nbsp;2&nbsp;&nbsp;&nbsp;&nbsp;&nbsp;&nbsp;&nbsp;&nbsp;&nbsp;&nbsp;&nbsp;&nbsp;&nbsp;&nbsp;&nbsp;&nbsp;&nbsp;&nbsp;&nbsp;3&nbsp;&nbsp;&nbsp;&nbsp;&nbsp;&nbsp;&nbsp;&nbsp;&nbsp;&nbsp;&nbsp;&nbsp;&nbsp;&nbsp;&nbsp;&nbsp;&nbsp;&nbsp;&nbsp;4</p><p style=""font-size:14px"">Not at all familiar&nbsp;&nbsp;&nbsp;&nbsp;A little familiar&nbsp;&nbsp;&nbsp;Moderately familiar&nbsp;&nbsp;&nbsp;Extremely familiar</p><p>(press the corresponding number on your keyboard)</p>","","50","","","FAM-RESPONSE","","","","","","","","","","","","","","","","","","","sounds/B/FAM/P001.mp3","partword","","","","","","","","","","","","","","","",""
"html-keyboard-response","273","1260316","0.0-7.0-1.0-0.11","2","1","hclvf56gxy2hvqh","","null","","","","null","","","","","","","","","","","","","","","","","","","","","","","","","","","","","","","","","","","","","","",""
"audio-keyboard-response","274","1261263","0.0-7.0-1.0-1.11","2","1","hclvf56gxy2hvqh","","null","","sounds/B/FAM/P002.mp3","","null","","","","","","","","","","","","","","","","","","","","","","","","","","","","","","","","","","","","","","",""
"html-keyboard-response","275","1262164","0.0-7.0-1.0-2.11","2","1","hclvf56gxy2hvqh","","391.5","","<p>How familiar did this sound to you?</p><p>1&nbsp;&nbsp;&nbsp;&nbsp;&nbsp;&nbsp;&nbsp;&nbsp;&nbsp;&nbsp;&nbsp;&nbsp;&nbsp;&nbsp;&nbsp;&nbsp;&nbsp;&nbsp;&nbsp;2&nbsp;&nbsp;&nbsp;&nbsp;&nbsp;&nbsp;&nbsp;&nbsp;&nbsp;&nbsp;&nbsp;&nbsp;&nbsp;&nbsp;&nbsp;&nbsp;&nbsp;&nbsp;&nbsp;3&nbsp;&nbsp;&nbsp;&nbsp;&nbsp;&nbsp;&nbsp;&nbsp;&nbsp;&nbsp;&nbsp;&nbsp;&nbsp;&nbsp;&nbsp;&nbsp;&nbsp;&nbsp;&nbsp;4</p><p style=""font-size:14px"">Not at all familiar&nbsp;&nbsp;&nbsp;&nbsp;A little familiar&nbsp;&nbsp;&nbsp;Moderately familiar&nbsp;&nbsp;&nbsp;Extremely familiar</p><p>(press the corresponding number on your keyboard)</p>","","51","","","FAM-RESPONSE","","","","","","","","","","","","","","","","","","","sounds/B/FAM/P002.mp3","partword","","","","","","","","","","","","","","","",""
"html-button-response","276","1265021","0.0-8.0-0.0","2","1","hclvf56gxy2hvqh","","1847.1999999284744","","<p>You will now listen to longer sound sequences.</p><p>Each sound sequence will last about 16 seconds.</p><p>On each trial, you will be given a <u>TARGET SOUND</u>. Your task is to listen very carefully for this sound.</p><p>Every time you hear the <u>TARGET SOUND</u>, you will press the <b>SPACEBAR</b> as quickly and accurately as you can.</p>","0","","","","","","","","","","","","","","","","","","","","","","","","","","","","","","","","","","","","","","","",""
"html-button-response","277","1268011","0.0-8.0-1.0","2","1","hclvf56gxy2hvqh","","2735.6999999284744","","<p>It is very important that you make your responses as quickly and accurately as possible.</p><p>To help you make your responses, you will be able to listen to the <u>TARGET SOUND</u> at the beginning of each trial.</p><p>There will be 36 total trials.</p><p><b>Note: This is meant to be a difficult task. We simply want you to try your best.</p>","0","","","","","","","","","","","","","","","","","","","","","","","","","","","","","","","","","","","","","","","",""
"html-button-response","278","1269796","0.0-8.0-2.0-0.0","2","1","hclvf56gxy2hvqh","","1532.2000000476837","","<p>Trial 1 of 36</p>","0","","","","","","","","","","","","","","","","","","","","","","","","","GE","sounds/syllables/ge_SWS.wav","3600,8100,9900,12600","1","","","","","","","","","","","",""
"html-keyboard-response","279","1271497","0.0-8.0-2.0-1.0","2","1","hclvf56gxy2hvqh","","1700","","","","80","","","","","","","","","","","","","","","","","","","","","","","","GE","","3600,8100,9900,12600","1","","","","","","","","","","","",""
"audio-keyboard-response","280","1271793","0.0-8.0-2.0-2.0-0.0","2","1","hclvf56gxy2hvqh","","null","","sounds/syllables/ge_SWS.wav","","null","","","","","","","","","","","","","","","","","","","","","","","","","","","","","","","","","","","","","","",""
"html-keyboard-response","281","1272596","0.0-8.0-2.0-2.0-1.0","2","1","hclvf56gxy2hvqh","","801","","<p>To replay the <u>TARGET SOUND</u>, press P.</p> When you are ready to begin, press SPACEBAR.","","80","","","","","","","","","","","","","","","","","","","","","","","","","","","","","","","","","","","","","","",""
"audio-keyboard-response","282","1273393","0.0-8.0-2.0-2.1-0.1","2","1","hclvf56gxy2hvqh","","null","","sounds/syllables/ge_SWS.wav","","null","","","","","","","","","","","","","","","","","","","","","","","","","","","","","","","","","","","","","","",""
"html-keyboard-response","283","1273778","0.0-8.0-2.0-2.1-1.1","2","1","hclvf56gxy2hvqh","","384.40000009536743","","<p>To replay the <u>TARGET SOUND</u>, press P.</p> When you are ready to begin, press SPACEBAR.","","32","","","","","","","","","","","","","","","","","","","","","","","","","","","","","","","","","","","","","","",""
"audio-keyboard-response","284","1288733","0.0-8.0-2.0-3.0","2","1","hclvf56gxy2hvqh","","4691","","sounds/B/TD/GE_02_TD.mp3","","32","","","TD_SUMMARY","","","","","","","","","","","","","","","","","","","","","GE","","3600,8100,9900,12600","1","3600","8100","9900","12600","1090.7999999523163","464.10000002384186","null","null","4690.799999952316_8564.100000023842_11523.600000023842","2","",""
"html-button-response","285","1290844","0.0-8.0-2.0-0.1","2","1","hclvf56gxy2hvqh","","2107.7000000476837","","<p>Trial 2 of 36</p>","0","","","","","","","","","","","","","","","","","","","","","","","","","FU","sounds/syllables/fu_SWS.wav","3600,5400,9000,11700","1","","","","","","","","","","","",""
"html-keyboard-response","286","1292080","0.0-8.0-2.0-1.1","2","1","hclvf56gxy2hvqh","","1235.6000000238419","","","","80","","","","","","","","","","","","","","","","","","","","","","","","FU","","3600,5400,9000,11700","1","","","","","","","","","","","",""
"audio-keyboard-response","287","1292383","0.0-8.0-2.0-2.2-0.2","2","1","hclvf56gxy2hvqh","","null","","sounds/syllables/fu_SWS.wav","","null","","","","","","","","","","","","","","","","","","","","","","","","","","","","","","","","","","","","","","",""
"html-keyboard-response","288","1292730","0.0-8.0-2.0-2.2-1.2","2","1","hclvf56gxy2hvqh","","346.2000000476837","","<p>To replay the <u>TARGET SOUND</u>, press P.</p> When you are ready to begin, press SPACEBAR.","","32","","","","","","","","","","","","","","","","","","","","","","","","","","","","","","","","","","","","","","",""
"audio-keyboard-response","289","1307693","0.0-8.0-2.0-3.1","2","1","hclvf56gxy2hvqh","","null","","sounds/B/TD/FU_03_TD.mp3","","null","","","TD_SUMMARY","","","","","","","","","","","","","","","","","","","","","FU","","3600,5400,9000,11700","1","3600","5400","9000","11700","null","null","null","null","","1","",""
"html-button-response","290","1310276","0.0-8.0-2.0-0.2","2","1","hclvf56gxy2hvqh","","2580.9000000953674","","<p>Trial 3 of 36</p>","0","","","","","","","","","","","","","","","","","","","","","","","","","KO","sounds/syllables/ko_SWS.wav","3000,7500,10200,12000","2","","","","","","","","","","","",""
"html-keyboard-response","291","1311382","0.0-8.0-2.0-1.2","2","1","hclvf56gxy2hvqh","","1105.1000000238419","","","","80","","","","","","","","","","","","","","","","","","","","","","","","KO","","3000,7500,10200,12000","2","","","","","","","","","","","",""
"audio-keyboard-response","292","1311692","0.0-8.0-2.0-2.3-0.3","2","1","hclvf56gxy2hvqh","","null","","sounds/syllables/ko_SWS.wav","","null","","","","","","","","","","","","","","","","","","","","","","","","","","","","","","","","","","","","","","",""
"html-keyboard-response","293","1312019","0.0-8.0-2.0-2.3-1.3","2","1","hclvf56gxy2hvqh","","326.7000000476837","","<p>To replay the <u>TARGET SOUND</u>, press P.</p> When you are ready to begin, press SPACEBAR.","","32","","","","","","","","","","","","","","","","","","","","","","","","","","","","","","","","","","","","","","",""
"audio-keyboard-response","294","1326962","0.0-8.0-2.0-3.2","2","1","hclvf56gxy2hvqh","","6648","","sounds/B/TD/KO_01_TD.mp3","","32","","","TD_SUMMARY","","","","","","","","","","","","","","","","","","","","","KO","","3000,7500,10200,12000","2","3000","7500","10200","12000","null","null","null","null","___6643.199999928474","1","",""
"html-button-response","295","1328686","0.0-8.0-2.0-0.3","2","1","hclvf56gxy2hvqh","","1721.5","","<p>Trial 4 of 36</p>","0","","","","","","","","","","","","","","","","","","","","","","","","","SU","sounds/syllables/su_SWS.wav","2100,4800,9300,12900","2","","","","","","","","","","","",""
"html-keyboard-response","296","1329721","0.0-8.0-2.0-1.3","2","1","hclvf56gxy2hvqh","","1034.3999999761581","","","","80","","","","","","","","","","","","","","","","","","","","","","","","SU","","2100,4800,9300,12900","2","","","","","","","","","","","",""
"audio-keyboard-response","297","1330021","0.0-8.0-2.0-2.4-0.4","2","1","hclvf56gxy2hvqh","","null","","sounds/syllables/su_SWS.wav","","null","","","","","","","","","","","","","","","","","","","","","","","","","","","","","","","","","","","","","","",""
"html-keyboard-response","298","1330311","0.0-8.0-2.0-2.4-1.4","2","1","hclvf56gxy2hvqh","","288.89999997615814","","<p>To replay the <u>TARGET SOUND</u>, press P.</p> When you are ready to begin, press SPACEBAR.","","32","","","","","","","","","","","","","","","","","","","","","","","","","","","","","","","","","","","","","","",""
"audio-keyboard-response","299","1345264","0.0-8.0-2.0-3.3","2","1","hclvf56gxy2hvqh","","2541","","sounds/B/TD/SU_03_TD.mp3","","32","","","TD_SUMMARY","","","","","","","","","","","","","","","","","","","","","SU","","2100,4800,9300,12900","2","2100","4800","9300","12900","439.5","435.09999990463257","null","null","____2539.5_5235.099999904633_12266.899999976158","1","",""
"html-button-response","300","1346269","0.0-8.0-2.0-0.4","2","1","hclvf56gxy2hvqh","","1000.4000000953674","","<p>Trial 5 of 36</p>","0","","","","","","","","","","","","","","","","","","","","","","","","","GE","sounds/syllables/ge_SWS.wav","900,4500,6300,10800","1","","","","","","","","","","","",""
"html-keyboard-response","301","1346853","0.0-8.0-2.0-1.4","2","1","hclvf56gxy2hvqh","","583.1999999284744","","","","80","","","","","","","","","","","","","","","","","","","","","","","","GE","","900,4500,6300,10800","1","","","","","","","","","","","",""
"audio-keyboard-response","302","1347152","0.0-8.0-2.0-2.5-0.5","2","1","hclvf56gxy2hvqh","","null","","sounds/syllables/ge_SWS.wav","","null","","","","","","","","","","","","","","","","","","","","","","","","","","","","","","","","","","","","","","",""
"html-keyboard-response","303","1347521","0.0-8.0-2.0-2.5-1.5","2","1","hclvf56gxy2hvqh","","368.89999997615814","","<p>To replay the <u>TARGET SOUND</u>, press P.</p> When you are ready to begin, press SPACEBAR.","","32","","","","","","","","","","","","","","","","","","","","","","","","","","","","","","","","","","","","","","",""
"audio-keyboard-response","304","1362471","0.0-8.0-2.0-3.4","2","1","hclvf56gxy2hvqh","","null","","sounds/B/TD/GE_07_TD.mp3","","null","","","TD_SUMMARY","","","","","","","","","","","","","","","","","","","","","GE","","900,4500,6300,10800","1","900","4500","6300","10800","null","null","null","null","","1","",""
"html-button-response","305","1363753","0.0-8.0-2.0-0.5","2","1","hclvf56gxy2hvqh","","1281.0999999046326","","<p>Trial 6 of 36</p>","0","","","","","","","","","","","","","","","","","","","","","","","","","NI","sounds/syllables/ni_SWS.wav","3000,6600,10200,12000","2","","","","","","","","","","","",""
"html-keyboard-response","306","1364260","0.0-8.0-2.0-1.5","2","1","hclvf56gxy2hvqh","","505.60000002384186","","","","80","","","","","","","","","","","","","","","","","","","","","","","","NI","","3000,6600,10200,12000","2","","","","","","","","","","","",""
"audio-keyboard-response","307","1364551","0.0-8.0-2.0-2.6-0.6","2","1","hclvf56gxy2hvqh","","null","","sounds/syllables/ni_SWS.wav","","null","","","","","","","","","","","","","","","","","","","","","","","","","","","","","","","","","","","","","","",""
"html-keyboard-response","308","1364890","0.0-8.0-2.0-2.6-1.6","2","1","hclvf56gxy2hvqh","","338","","<p>To replay the <u>TARGET SOUND</u>, press P.</p> When you are ready to begin, press SPACEBAR.","","32","","","","","","","","","","","","","","","","","","","","","","","","","","","","","","","","","","","","","","",""
"audio-keyboard-response","309","1379833","0.0-8.0-2.0-3.5","2","1","hclvf56gxy2hvqh","","691","","sounds/B/TD/NI_05_TD.mp3","","32","","","TD_SUMMARY","","","","","","","","","","","","","","","","","","","","","NI","","3000,6600,10200,12000","2","3000","6600","10200","12000","920.8000000715256","1032.3999999761581","1031.1000000238419","null","_______680.8000000715256_3920.8000000715256_7632.399999976158_11231.100000023842","1","",""
"html-button-response","310","1380779","0.0-8.0-2.0-0.6","2","1","hclvf56gxy2hvqh","","941.5","","<p>Trial 7 of 36</p>","0","","","","","","","","","","","","","","","","","","","","","","","","","SU","sounds/syllables/su_SWS.wav","3900,5700,7500,9300","2","","","","","","","","","","","",""
"html-keyboard-response","311","1381386","0.0-8.0-2.0-1.6","2","1","hclvf56gxy2hvqh","","605.6000000238419","","","","80","","","","","","","","","","","","","","","","","","","","","","","","SU","","3900,5700,7500,9300","2","","","","","","","","","","","",""
"audio-keyboard-response","312","1381693","0.0-8.0-2.0-2.7-0.7","2","1","hclvf56gxy2hvqh","","null","","sounds/syllables/su_SWS.wav","","null","","","","","","","","","","","","","","","","","","","","","","","","","","","","","","","","","","","","","","",""
"html-keyboard-response","313","1382391","0.0-8.0-2.0-2.7-1.7","2","1","hclvf56gxy2hvqh","","696.6999999284744","","<p>To replay the <u>TARGET SOUND</u>, press P.</p> When you are ready to begin, press SPACEBAR.","","32","","","","","","","","","","","","","","","","","","","","","","","","","","","","","","","","","","","","","","",""
"audio-keyboard-response","314","1397353","0.0-8.0-2.0-3.6","2","1","hclvf56gxy2hvqh","","4331","","sounds/B/TD/SU_02_TD.mp3","","32","","","TD_SUMMARY","","","","","","","","","","","","","","","","","","","","","SU","","3900,5700,7500,9300","2","3900","5700","7500","9300","429.2000000476837","775.8000000715256","716.2000000476837","null","___________4329.200000047684_6475.800000071526_8216.200000047684","1","",""
"html-button-response","315","1398145","0.0-8.0-2.0-0.7","2","1","hclvf56gxy2hvqh","","788.3000000715256","","<p>Trial 8 of 36</p>","0","","","","","","","","","","","","","","","","","","","","","","","","","NI","sounds/syllables/ni_SWS.wav","2100,5700,11100,12900","2","","","","","","","","","","","",""
"html-keyboard-response","316","1398941","0.0-8.0-2.0-1.7","2","1","hclvf56gxy2hvqh","","794","","","","80","","","","","","","","","","","","","","","","","","","","","","","","NI","","2100,5700,11100,12900","2","","","","","","","","","","","",""
"audio-keyboard-response","317","1399234","0.0-8.0-2.0-2.8-0.8","2","1","hclvf56gxy2hvqh","","null","","sounds/syllables/ni_SWS.wav","","null","","","","","","","","","","","","","","","","","","","","","","","","","","","","","","","","","","","","","","",""
"html-keyboard-response","318","1399588","0.0-8.0-2.0-2.8-1.8","2","1","hclvf56gxy2hvqh","","352.60000002384186","","<p>To replay the <u>TARGET SOUND</u>, press P.</p> When you are ready to begin, press SPACEBAR.","","32","","","","","","","","","","","","","","","","","","","","","","","","","","","","","","","","","","","","","","",""
"audio-keyboard-response","319","1414543","0.0-8.0-2.0-3.7","2","1","hclvf56gxy2hvqh","","null","","sounds/B/TD/NI_09_TD.mp3","","null","","","TD_SUMMARY","","","","","","","","","","","","","","","","","","","","","NI","","2100,5700,11100,12900","2","2100","5700","11100","12900","null","null","null","null","","1","",""
"html-button-response","320","1418690","0.0-8.0-2.0-0.8","2","1","hclvf56gxy2hvqh","","4143.100000023842","","<p>Trial 9 of 36</p>","0","","","","","","","","","","","","","","","","","","","","","","","","","FU","sounds/syllables/fu_SWS.wav","3600,6300,9900,12600","1","","","","","","","","","","","",""
"html-keyboard-response","321","1419392","0.0-8.0-2.0-1.8","2","1","hclvf56gxy2hvqh","","699.9000000953674","","","","80","","","","","","","","","","","","","","","","","","","","","","","","FU","","3600,6300,9900,12600","1","","","","","","","","","","","",""
"audio-keyboard-response","322","1419693","0.0-8.0-2.0-2.9-0.9","2","1","hclvf56gxy2hvqh","","null","","sounds/syllables/fu_SWS.wav","","null","","","","","","","","","","","","","","","","","","","","","","","","","","","","","","","","","","","","","","",""
"html-keyboard-response","323","1420076","0.0-8.0-2.0-2.9-1.9","2","1","hclvf56gxy2hvqh","","381.7999999523163","","<p>To replay the <u>TARGET SOUND</u>, press P.</p> When you are ready to begin, press SPACEBAR.","","32","","","","","","","","","","","","","","","","","","","","","","","","","","","","","","","","","","","","","","",""
"audio-keyboard-response","324","1435033","0.0-8.0-2.0-3.8","2","1","hclvf56gxy2hvqh","","null","","sounds/B/TD/FU_01_TD.mp3","","null","","","TD_SUMMARY","","","","","","","","","","","","","","","","","","","","","FU","","3600,6300,9900,12600","1","3600","6300","9900","12600","null","null","null","null","","1","",""
