"trial_type","trial_index","time_elapsed","internal_node_id","counterbalance","lang_instruct","ParticipantID","view_history","rt","url","stimulus","button_pressed","key_press","correctRESP","correct","designation","location","correctanswer","timeouts","pause_rt01","pause_rt02","train_file","numKeyPress","sound","fam_type","SYLLABLE","EXEMPLAR","TD_LOCS","TD_TYPE","TDLOC_01","TDLOC_02","TDLOC_03","TDLOC_04","TD_RT_01","TD_RT_02","TD_RT_03","TD_RT_04","TD_SUBJ_RTs","number_of_plays","responses","slider_start","response","question_order","syllable","syllable_type"
"pavlovia","0","5","0.0-0.0","2","0","04qflnx7t99wpfd","","","","","","","","","","","","","","","","","","","","","","","","","","","","","","","","","","","","","",""
"instructions","1","400792","0.0-1.0","2","0","04qflnx7t99wpfd","[{""page_index"":0,""viewing_time"":190120.40000009537},{""page_index"":1,""viewing_time"":210648.89999997616}]","400774","","","","","","","","","","","","","","","","","","","","","","","","","","","","","","","","","","","",""
"external-html","2","404671","0.0-2.0","2","0","04qflnx7t99wpfd","","3538.6999999284744","consent/consent.html","","","","","","","","","","","","","","","","","","","","","","","","","","","","","","","","","","",""
"html-button-response","3","407268","0.0-3.0-0.0-0.0","2","0","04qflnx7t99wpfd","","2594.2000000476837","","<p>Welcome to the study. You will first complete a short volume calibration and headphone check.</p><p>Please make sure you are in a quiet listening environment, that you are wearing headphones, and that your computer's volume is turned on.<p></p>","0","","","","","","","","","","","","","","","","","","","","","","","","","","","","","","","","",""
"html-button-response","4","409636","0.0-3.0-0.0-1.0","2","0","04qflnx7t99wpfd","","2111.1999999284744","","<p>The volume calibration will be first.</p><p>You will hear a thirty-second noise. Please adjust your computer's volume so that this noise is being presented at a comfortable level.<p></p>","0","","","","","","","","","","","","","","","","","","","","","","","","","","","","","","","","",""
"audio-button-response","5","418047","0.0-3.0-0.0-2.0","2","0","04qflnx7t99wpfd","","7616","","audCalib/volumetest.mp3","0","","","","","","","","","","","","","","","","","","","","","","","","","","","","","","","","",""
"html-button-response","6","426335","0.0-3.0-1.0-0.0","2","0","04qflnx7t99wpfd","","8286.299999952316","","<p>You will now complete a short headphone check.</p><p>On each trial, you will hear three tones. One of these tones will be quieter than the others. Your task is to identify whether the quiet tone occured first, second, or third.</p><p>There are six trials in total.<p></p>","0","","","","","","","","","","","","","","","","","","","","","","","","","","","","","","","","",""
"html-keyboard-response","7","427091","0.0-3.0-1.0-1.0-0.0","2","0","04qflnx7t99wpfd","","null","","<div style=""font-size:60px;"">+</div>","","null","","","","","","","","","","","","","","","","","","","","","","","","","","","","","","","",""
"audio-button-response","8","432295","0.0-3.0-1.0-1.0-1.0","2","0","04qflnx7t99wpfd","","5201","","audCalib/t1_2.mp3","0","","0","1","headphone-test","","","","","","","","","","","","","","","","","","","","","","","","","","","","",""
"html-keyboard-response","9","433054","0.0-3.0-1.0-1.0-0.1","2","0","04qflnx7t99wpfd","","null","","<div style=""font-size:60px;"">+</div>","","null","","","","","","","","","","","","","","","","","","","","","","","","","","","","","","","",""
"audio-button-response","10","437783","0.0-3.0-1.0-1.0-1.1","2","0","04qflnx7t99wpfd","","4725","","audCalib/t3_2.mp3","2","","2","1","headphone-test","","","","","","","","","","","","","","","","","","","","","","","","","","","","",""
"html-keyboard-response","11","438539","0.0-3.0-1.0-1.0-0.2","2","0","04qflnx7t99wpfd","","null","","<div style=""font-size:60px;"">+</div>","","null","","","","","","","","","","","","","","","","","","","","","","","","","","","","","","","",""
"audio-button-response","12","443020","0.0-3.0-1.0-1.0-1.2","2","0","04qflnx7t99wpfd","","4476","","audCalib/t2_2.mp3","1","","1","1","headphone-test","","","","","","","","","","","","","","","","","","","","","","","","","","","","",""
"html-keyboard-response","13","443775","0.0-3.0-1.0-1.0-0.3","2","0","04qflnx7t99wpfd","","null","","<div style=""font-size:60px;"">+</div>","","null","","","","","","","","","","","","","","","","","","","","","","","","","","","","","","","",""
"audio-button-response","14","448313","0.0-3.0-1.0-1.0-1.3","2","0","04qflnx7t99wpfd","","4534","","audCalib/t3_1.mp3","2","","2","1","headphone-test","","","","","","","","","","","","","","","","","","","","","","","","","","","","",""
"html-keyboard-response","15","449073","0.0-3.0-1.0-1.0-0.4","2","0","04qflnx7t99wpfd","","null","","<div style=""font-size:60px;"">+</div>","","null","","","","","","","","","","","","","","","","","","","","","","","","","","","","","","","",""
"audio-button-response","16","453638","0.0-3.0-1.0-1.0-1.4","2","0","04qflnx7t99wpfd","","4563","","audCalib/t1_1.mp3","0","","0","1","headphone-test","","","","","","","","","","","","","","","","","","","","","","","","","","","","",""
"html-keyboard-response","17","454398","0.0-3.0-1.0-1.0-0.5","2","0","04qflnx7t99wpfd","","null","","<div style=""font-size:60px;"">+</div>","","null","","","","","","","","","","","","","","","","","","","","","","","","","","","","","","","",""
"audio-button-response","18","458823","0.0-3.0-1.0-1.0-1.5","2","0","04qflnx7t99wpfd","","4423","","audCalib/t2_1.mp3","1","","1","1","headphone-test","","","","","","","","","","","","","","","","","","","","","","","","","","","","",""
"html-button-response","19","460771","0.0-3.0-2.0","2","0","04qflnx7t99wpfd","","1692.1999999284744","","<p>The volume calibration and headphone check are now complete.</p>","0","","","","","","","","","","","","","","","","","","","","","","","","","","","","","","","","",""
"instructions","20","476182","0.0-4.0-0.0","2","0","04qflnx7t99wpfd","[{""page_index"":0,""viewing_time"":1727.5},{""page_index"":1,""viewing_time"":10747},{""page_index"":2,""viewing_time"":2934.5}]","15409.299999952316","","","","","","","","","","","","","","","","","","","","","","","","","","","","","","","","","","","",""
"audio-keyboard-response","21","476482","0.0-4.0-1.0-0.0","2","0","04qflnx7t99wpfd","","null","","sounds/induction/right_rev/pu_SWS.wav","","null","","","","","","","","","","","","","","","","","","","","","","","","","","","","","","","",""
"html-button-response","22","481948","0.0-4.0-1.0-1.0","2","0","04qflnx7t99wpfd","","5464.5","","Was the sound coming from the left or the right?","1","","","1","INDUCTION-JUDGMENT","right","1","","","","","","","","","","","","","","","","","","","","","","","","","","",""
"html-keyboard-response","23","482951","0.0-4.0-1.0-2.0","2","0","04qflnx7t99wpfd","","null","","<p style=""color:#054d00;""><b>Correct!</b></p>","","null","","","","","","","","","","","","","","","","","","","","","","","","","","","","","","","",""
"audio-keyboard-response","24","483755","0.0-4.0-1.0-0.1","2","0","04qflnx7t99wpfd","","null","","sounds/induction/right_rev/su_SWS.wav","","null","","","","","","","","","","","","","","","","","","","","","","","","","","","","","","","",""
"html-button-response","25","485022","0.0-4.0-1.0-1.1","2","0","04qflnx7t99wpfd","","1265.7000000476837","","Was the sound coming from the left or the right?","1","","","1","INDUCTION-JUDGMENT","right","1","","","","","","","","","","","","","","","","","","","","","","","","","","",""
"html-keyboard-response","26","486024","0.0-4.0-1.0-2.1","2","0","04qflnx7t99wpfd","","null","","<p style=""color:#054d00;""><b>Correct!</b></p>","","null","","","","","","","","","","","","","","","","","","","","","","","","","","","","","","","",""
"audio-keyboard-response","27","486826","0.0-4.0-1.0-0.2","2","0","04qflnx7t99wpfd","","null","","sounds/induction/right_rev/ge_SWS.wav","","null","","","","","","","","","","","","","","","","","","","","","","","","","","","","","","","",""
"html-button-response","28","487566","0.0-4.0-1.0-1.2","2","0","04qflnx7t99wpfd","","739.1000000238419","","Was the sound coming from the left or the right?","1","","","1","INDUCTION-JUDGMENT","right","1","","","","","","","","","","","","","","","","","","","","","","","","","","",""
"html-keyboard-response","29","488568","0.0-4.0-1.0-2.2","2","0","04qflnx7t99wpfd","","null","","<p style=""color:#054d00;""><b>Correct!</b></p>","","null","","","","","","","","","","","","","","","","","","","","","","","","","","","","","","","",""
"audio-keyboard-response","30","489370","0.0-4.0-1.0-0.3","2","0","04qflnx7t99wpfd","","null","","sounds/induction/left_rev/ru_SWS.wav","","null","","","","","","","","","","","","","","","","","","","","","","","","","","","","","","","",""
"html-button-response","31","490339","0.0-4.0-1.0-1.3","2","0","04qflnx7t99wpfd","","968","","Was the sound coming from the left or the right?","0","","","1","INDUCTION-JUDGMENT","left","0","","","","","","","","","","","","","","","","","","","","","","","","","","",""
"html-keyboard-response","32","491341","0.0-4.0-1.0-2.3","2","0","04qflnx7t99wpfd","","null","","<p style=""color:#054d00;""><b>Correct!</b></p>","","null","","","","","","","","","","","","","","","","","","","","","","","","","","","","","","","",""
"audio-keyboard-response","33","492144","0.0-4.0-1.0-0.4","2","0","04qflnx7t99wpfd","","null","","sounds/induction/right_rev/ti_SWS.wav","","null","","","","","","","","","","","","","","","","","","","","","","","","","","","","","","","",""
"html-button-response","34","493073","0.0-4.0-1.0-1.4","2","0","04qflnx7t99wpfd","","928","","Was the sound coming from the left or the right?","1","","","1","INDUCTION-JUDGMENT","right","1","","","","","","","","","","","","","","","","","","","","","","","","","","",""
"html-keyboard-response","35","494074","0.0-4.0-1.0-2.4","2","0","04qflnx7t99wpfd","","null","","<p style=""color:#054d00;""><b>Correct!</b></p>","","null","","","","","","","","","","","","","","","","","","","","","","","","","","","","","","","",""
"audio-keyboard-response","36","494878","0.0-4.0-1.0-0.5","2","0","04qflnx7t99wpfd","","null","","sounds/induction/right_rev/ta_SWS.wav","","null","","","","","","","","","","","","","","","","","","","","","","","","","","","","","","","",""
"html-button-response","37","495594","0.0-4.0-1.0-1.5","2","0","04qflnx7t99wpfd","","714.1000000238419","","Was the sound coming from the left or the right?","1","","","1","INDUCTION-JUDGMENT","right","1","","","","","","","","","","","","","","","","","","","","","","","","","","",""
"html-keyboard-response","38","496597","0.0-4.0-1.0-2.5","2","0","04qflnx7t99wpfd","","null","","<p style=""color:#054d00;""><b>Correct!</b></p>","","null","","","","","","","","","","","","","","","","","","","","","","","","","","","","","","","",""
"audio-keyboard-response","39","497403","0.0-4.0-1.0-0.6","2","0","04qflnx7t99wpfd","","null","","sounds/induction/left_rev/ni_SWS.wav","","null","","","","","","","","","","","","","","","","","","","","","","","","","","","","","","","",""
"html-button-response","40","498390","0.0-4.0-1.0-1.6","2","0","04qflnx7t99wpfd","","985.6000000238419","","Was the sound coming from the left or the right?","0","","","1","INDUCTION-JUDGMENT","left","0","","","","","","","","","","","","","","","","","","","","","","","","","","",""
"html-keyboard-response","41","499394","0.0-4.0-1.0-2.6","2","0","04qflnx7t99wpfd","","null","","<p style=""color:#054d00;""><b>Correct!</b></p>","","null","","","","","","","","","","","","","","","","","","","","","","","","","","","","","","","",""
"audio-keyboard-response","42","500201","0.0-4.0-1.0-0.7","2","0","04qflnx7t99wpfd","","null","","sounds/induction/right_rev/fe_SWS.wav","","null","","","","","","","","","","","","","","","","","","","","","","","","","","","","","","","",""
"html-button-response","43","501263","0.0-4.0-1.0-1.7","2","0","04qflnx7t99wpfd","","1060.2999999523163","","Was the sound coming from the left or the right?","1","","","1","INDUCTION-JUDGMENT","right","1","","","","","","","","","","","","","","","","","","","","","","","","","","",""
"html-keyboard-response","44","502268","0.0-4.0-1.0-2.7","2","0","04qflnx7t99wpfd","","null","","<p style=""color:#054d00;""><b>Correct!</b></p>","","null","","","","","","","","","","","","","","","","","","","","","","","","","","","","","","","",""
"audio-keyboard-response","45","503075","0.0-4.0-1.0-0.8","2","0","04qflnx7t99wpfd","","null","","sounds/induction/right_rev/ko_SWS.wav","","null","","","","","","","","","","","","","","","","","","","","","","","","","","","","","","","",""
"html-button-response","46","503742","0.0-4.0-1.0-1.8","2","0","04qflnx7t99wpfd","","666.1000000238419","","Was the sound coming from the left or the right?","1","","","1","INDUCTION-JUDGMENT","right","1","","","","","","","","","","","","","","","","","","","","","","","","","","",""
"html-keyboard-response","47","504747","0.0-4.0-1.0-2.8","2","0","04qflnx7t99wpfd","","null","","<p style=""color:#054d00;""><b>Correct!</b></p>","","null","","","","","","","","","","","","","","","","","","","","","","","","","","","","","","","",""
"audio-keyboard-response","48","505554","0.0-4.0-1.0-0.9","2","0","04qflnx7t99wpfd","","null","","sounds/induction/right_rev/re_SWS.wav","","null","","","","","","","","","","","","","","","","","","","","","","","","","","","","","","","",""
"html-button-response","49","506301","0.0-4.0-1.0-1.9","2","0","04qflnx7t99wpfd","","746.5","","Was the sound coming from the left or the right?","1","","","1","INDUCTION-JUDGMENT","right","1","","","","","","","","","","","","","","","","","","","","","","","","","","",""
"html-keyboard-response","50","507307","0.0-4.0-1.0-2.9","2","0","04qflnx7t99wpfd","","null","","<p style=""color:#054d00;""><b>Correct!</b></p>","","null","","","","","","","","","","","","","","","","","","","","","","","","","","","","","","","",""
"audio-keyboard-response","51","508114","0.0-4.0-1.0-0.10","2","0","04qflnx7t99wpfd","","null","","sounds/induction/right_rev/ni_SWS.wav","","null","","","","","","","","","","","","","","","","","","","","","","","","","","","","","","","",""
"html-button-response","52","508667","0.0-4.0-1.0-1.10","2","0","04qflnx7t99wpfd","","551.7000000476837","","Was the sound coming from the left or the right?","1","","","1","INDUCTION-JUDGMENT","right","1","","","","","","","","","","","","","","","","","","","","","","","","","","",""
"html-keyboard-response","53","509670","0.0-4.0-1.0-2.10","2","0","04qflnx7t99wpfd","","null","","<p style=""color:#054d00;""><b>Correct!</b></p>","","null","","","","","","","","","","","","","","","","","","","","","","","","","","","","","","","",""
"audio-keyboard-response","54","510476","0.0-4.0-1.0-0.11","2","0","04qflnx7t99wpfd","","null","","sounds/induction/left_rev/ni_SWS.wav","","null","","","","","","","","","","","","","","","","","","","","","","","","","","","","","","","",""
"html-button-response","55","511417","0.0-4.0-1.0-1.11","2","0","04qflnx7t99wpfd","","939","","Was the sound coming from the left or the right?","0","","","1","INDUCTION-JUDGMENT","left","0","","","","","","","","","","","","","","","","","","","","","","","","","","",""
"html-keyboard-response","56","512421","0.0-4.0-1.0-2.11","2","0","04qflnx7t99wpfd","","null","","<p style=""color:#054d00;""><b>Correct!</b></p>","","null","","","","","","","","","","","","","","","","","","","","","","","","","","","","","","","",""
"audio-keyboard-response","57","513223","0.0-4.0-1.0-0.12","2","0","04qflnx7t99wpfd","","null","","sounds/induction/left_rev/fe_SWS.wav","","null","","","","","","","","","","","","","","","","","","","","","","","","","","","","","","","",""
"html-button-response","58","513896","0.0-4.0-1.0-1.12","2","0","04qflnx7t99wpfd","","672.1999999284744","","Was the sound coming from the left or the right?","0","","","1","INDUCTION-JUDGMENT","left","0","","","","","","","","","","","","","","","","","","","","","","","","","","",""
"html-keyboard-response","59","514899","0.0-4.0-1.0-2.12","2","0","04qflnx7t99wpfd","","null","","<p style=""color:#054d00;""><b>Correct!</b></p>","","null","","","","","","","","","","","","","","","","","","","","","","","","","","","","","","","",""
"audio-keyboard-response","60","515707","0.0-4.0-1.0-0.13","2","0","04qflnx7t99wpfd","","null","","sounds/induction/right_rev/ko_SWS.wav","","null","","","","","","","","","","","","","","","","","","","","","","","","","","","","","","","",""
"html-button-response","61","516529","0.0-4.0-1.0-1.13","2","0","04qflnx7t99wpfd","","820.8999999761581","","Was the sound coming from the left or the right?","1","","","1","INDUCTION-JUDGMENT","right","1","","","","","","","","","","","","","","","","","","","","","","","","","","",""
"html-keyboard-response","62","517535","0.0-4.0-1.0-2.13","2","0","04qflnx7t99wpfd","","null","","<p style=""color:#054d00;""><b>Correct!</b></p>","","null","","","","","","","","","","","","","","","","","","","","","","","","","","","","","","","",""
"audio-keyboard-response","63","518342","0.0-4.0-1.0-0.14","2","0","04qflnx7t99wpfd","","null","","sounds/induction/left_rev/pu_SWS.wav","","null","","","","","","","","","","","","","","","","","","","","","","","","","","","","","","","",""
"html-button-response","64","519239","0.0-4.0-1.0-1.14","2","0","04qflnx7t99wpfd","","895.1999999284744","","Was the sound coming from the left or the right?","0","","","1","INDUCTION-JUDGMENT","left","0","","","","","","","","","","","","","","","","","","","","","","","","","","",""
"html-keyboard-response","65","520240","0.0-4.0-1.0-2.14","2","0","04qflnx7t99wpfd","","null","","<p style=""color:#054d00;""><b>Correct!</b></p>","","null","","","","","","","","","","","","","","","","","","","","","","","","","","","","","","","",""
"audio-keyboard-response","66","521042","0.0-4.0-1.0-0.15","2","0","04qflnx7t99wpfd","","null","","sounds/induction/left_rev/ru_SWS.wav","","null","","","","","","","","","","","","","","","","","","","","","","","","","","","","","","","",""
"html-button-response","67","521571","0.0-4.0-1.0-1.15","2","0","04qflnx7t99wpfd","","528.2000000476837","","Was the sound coming from the left or the right?","0","","","1","INDUCTION-JUDGMENT","left","0","","","","","","","","","","","","","","","","","","","","","","","","","","",""
"html-keyboard-response","68","522574","0.0-4.0-1.0-2.15","2","0","04qflnx7t99wpfd","","null","","<p style=""color:#054d00;""><b>Correct!</b></p>","","null","","","","","","","","","","","","","","","","","","","","","","","","","","","","","","","",""
"audio-keyboard-response","69","523381","0.0-4.0-1.0-0.16","2","0","04qflnx7t99wpfd","","null","","sounds/induction/right_rev/ta_SWS.wav","","null","","","","","","","","","","","","","","","","","","","","","","","","","","","","","","","",""
"html-button-response","70","524199","0.0-4.0-1.0-1.16","2","0","04qflnx7t99wpfd","","814.2999999523163","","Was the sound coming from the left or the right?","1","","","1","INDUCTION-JUDGMENT","right","1","","","","","","","","","","","","","","","","","","","","","","","","","","",""
"html-keyboard-response","71","525205","0.0-4.0-1.0-2.16","2","0","04qflnx7t99wpfd","","null","","<p style=""color:#054d00;""><b>Correct!</b></p>","","null","","","","","","","","","","","","","","","","","","","","","","","","","","","","","","","",""
"audio-keyboard-response","72","526011","0.0-4.0-1.0-0.17","2","0","04qflnx7t99wpfd","","null","","sounds/induction/left_rev/me_SWS.wav","","null","","","","","","","","","","","","","","","","","","","","","","","","","","","","","","","",""
"html-button-response","73","526948","0.0-4.0-1.0-1.17","2","0","04qflnx7t99wpfd","","935.7999999523163","","Was the sound coming from the left or the right?","0","","","1","INDUCTION-JUDGMENT","left","0","","","","","","","","","","","","","","","","","","","","","","","","","","",""
"html-keyboard-response","74","527950","0.0-4.0-1.0-2.17","2","0","04qflnx7t99wpfd","","null","","<p style=""color:#054d00;""><b>Correct!</b></p>","","null","","","","","","","","","","","","","","","","","","","","","","","","","","","","","","","",""
"audio-keyboard-response","75","528752","0.0-4.0-1.0-0.18","2","0","04qflnx7t99wpfd","","null","","sounds/induction/left_rev/ti_SWS.wav","","null","","","","","","","","","","","","","","","","","","","","","","","","","","","","","","","",""
"html-button-response","76","530999","0.0-4.0-1.0-1.18","2","0","04qflnx7t99wpfd","","2245.899999976158","","Was the sound coming from the left or the right?","0","","","1","INDUCTION-JUDGMENT","left","0","","","","","","","","","","","","","","","","","","","","","","","","","","",""
"html-keyboard-response","77","532001","0.0-4.0-1.0-2.18","2","0","04qflnx7t99wpfd","","null","","<p style=""color:#054d00;""><b>Correct!</b></p>","","null","","","","","","","","","","","","","","","","","","","","","","","","","","","","","","","",""
"audio-keyboard-response","78","532804","0.0-4.0-1.0-0.19","2","0","04qflnx7t99wpfd","","null","","sounds/induction/left_rev/fu_SWS.wav","","null","","","","","","","","","","","","","","","","","","","","","","","","","","","","","","","",""
"html-button-response","79","533763","0.0-4.0-1.0-1.19","2","0","04qflnx7t99wpfd","","957.5","","Was the sound coming from the left or the right?","0","","","1","INDUCTION-JUDGMENT","left","0","","","","","","","","","","","","","","","","","","","","","","","","","","",""
"html-keyboard-response","80","534766","0.0-4.0-1.0-2.19","2","0","04qflnx7t99wpfd","","null","","<p style=""color:#054d00;""><b>Correct!</b></p>","","null","","","","","","","","","","","","","","","","","","","","","","","","","","","","","","","",""
"audio-keyboard-response","81","535573","0.0-4.0-1.0-0.20","2","0","04qflnx7t99wpfd","","null","","sounds/induction/right_rev/me_SWS.wav","","null","","","","","","","","","","","","","","","","","","","","","","","","","","","","","","","",""
"html-button-response","82","536391","0.0-4.0-1.0-1.20","2","0","04qflnx7t99wpfd","","816.6999999284744","","Was the sound coming from the left or the right?","1","","","1","INDUCTION-JUDGMENT","right","1","","","","","","","","","","","","","","","","","","","","","","","","","","",""
"html-keyboard-response","83","537397","0.0-4.0-1.0-2.20","2","0","04qflnx7t99wpfd","","null","","<p style=""color:#054d00;""><b>Correct!</b></p>","","null","","","","","","","","","","","","","","","","","","","","","","","","","","","","","","","",""
"audio-keyboard-response","84","538203","0.0-4.0-1.0-0.21","2","0","04qflnx7t99wpfd","","null","","sounds/induction/left_rev/ge_SWS.wav","","null","","","","","","","","","","","","","","","","","","","","","","","","","","","","","","","",""
"html-button-response","85","539124","0.0-4.0-1.0-1.21","2","0","04qflnx7t99wpfd","","919.7999999523163","","Was the sound coming from the left or the right?","0","","","1","INDUCTION-JUDGMENT","left","0","","","","","","","","","","","","","","","","","","","","","","","","","","",""
"html-keyboard-response","86","540131","0.0-4.0-1.0-2.21","2","0","04qflnx7t99wpfd","","null","","<p style=""color:#054d00;""><b>Correct!</b></p>","","null","","","","","","","","","","","","","","","","","","","","","","","","","","","","","","","",""
"audio-keyboard-response","87","540938","0.0-4.0-1.0-0.22","2","0","04qflnx7t99wpfd","","null","","sounds/induction/right_rev/ru_SWS.wav","","null","","","","","","","","","","","","","","","","","","","","","","","","","","","","","","","",""
"html-button-response","88","541729","0.0-4.0-1.0-1.22","2","0","04qflnx7t99wpfd","","790.2999999523163","","Was the sound coming from the left or the right?","1","","","1","INDUCTION-JUDGMENT","right","1","","","","","","","","","","","","","","","","","","","","","","","","","","",""
"html-keyboard-response","89","542732","0.0-4.0-1.0-2.22","2","0","04qflnx7t99wpfd","","null","","<p style=""color:#054d00;""><b>Correct!</b></p>","","null","","","","","","","","","","","","","","","","","","","","","","","","","","","","","","","",""
"audio-keyboard-response","90","543538","0.0-4.0-1.0-0.23","2","0","04qflnx7t99wpfd","","null","","sounds/induction/left_rev/ge_SWS.wav","","null","","","","","","","","","","","","","","","","","","","","","","","","","","","","","","","",""
"html-button-response","91","544430","0.0-4.0-1.0-1.23","2","0","04qflnx7t99wpfd","","890.1999999284744","","Was the sound coming from the left or the right?","0","","","1","INDUCTION-JUDGMENT","left","0","","","","","","","","","","","","","","","","","","","","","","","","","","",""
"html-keyboard-response","92","545431","0.0-4.0-1.0-2.23","2","0","04qflnx7t99wpfd","","null","","<p style=""color:#054d00;""><b>Correct!</b></p>","","null","","","","","","","","","","","","","","","","","","","","","","","","","","","","","","","",""
"audio-keyboard-response","93","546232","0.0-4.0-1.0-0.24","2","0","04qflnx7t99wpfd","","null","","sounds/induction/left_rev/ta_SWS.wav","","null","","","","","","","","","","","","","","","","","","","","","","","","","","","","","","","",""
"html-button-response","94","548526","0.0-4.0-1.0-1.24","2","0","04qflnx7t99wpfd","","2292.3000000715256","","Was the sound coming from the left or the right?","0","","","1","INDUCTION-JUDGMENT","left","0","","","","","","","","","","","","","","","","","","","","","","","","","","",""
"html-keyboard-response","95","549527","0.0-4.0-1.0-2.24","2","0","04qflnx7t99wpfd","","null","","<p style=""color:#054d00;""><b>Correct!</b></p>","","null","","","","","","","","","","","","","","","","","","","","","","","","","","","","","","","",""
"audio-keyboard-response","96","550331","0.0-4.0-1.0-0.25","2","0","04qflnx7t99wpfd","","null","","sounds/induction/right_rev/ni_SWS.wav","","null","","","","","","","","","","","","","","","","","","","","","","","","","","","","","","","",""
"html-button-response","97","551170","0.0-4.0-1.0-1.25","2","0","04qflnx7t99wpfd","","838.1999999284744","","Was the sound coming from the left or the right?","1","","","1","INDUCTION-JUDGMENT","right","1","","","","","","","","","","","","","","","","","","","","","","","","","","",""
"html-keyboard-response","98","552171","0.0-4.0-1.0-2.25","2","0","04qflnx7t99wpfd","","null","","<p style=""color:#054d00;""><b>Correct!</b></p>","","null","","","","","","","","","","","","","","","","","","","","","","","","","","","","","","","",""
"audio-keyboard-response","99","552978","0.0-4.0-1.0-0.26","2","0","04qflnx7t99wpfd","","null","","sounds/induction/left_rev/pu_SWS.wav","","null","","","","","","","","","","","","","","","","","","","","","","","","","","","","","","","",""
"html-button-response","100","553839","0.0-4.0-1.0-1.26","2","0","04qflnx7t99wpfd","","860.5","","Was the sound coming from the left or the right?","0","","","1","INDUCTION-JUDGMENT","left","0","","","","","","","","","","","","","","","","","","","","","","","","","","",""
"html-keyboard-response","101","554841","0.0-4.0-1.0-2.26","2","0","04qflnx7t99wpfd","","null","","<p style=""color:#054d00;""><b>Correct!</b></p>","","null","","","","","","","","","","","","","","","","","","","","","","","","","","","","","","","",""
"audio-keyboard-response","102","555648","0.0-4.0-1.0-0.27","2","0","04qflnx7t99wpfd","","null","","sounds/induction/right_rev/fe_SWS.wav","","null","","","","","","","","","","","","","","","","","","","","","","","","","","","","","","","",""
"html-button-response","103","556445","0.0-4.0-1.0-1.27","2","0","04qflnx7t99wpfd","","795.7000000476837","","Was the sound coming from the left or the right?","1","","","1","INDUCTION-JUDGMENT","right","1","","","","","","","","","","","","","","","","","","","","","","","","","","",""
"html-keyboard-response","104","557448","0.0-4.0-1.0-2.27","2","0","04qflnx7t99wpfd","","null","","<p style=""color:#054d00;""><b>Correct!</b></p>","","null","","","","","","","","","","","","","","","","","","","","","","","","","","","","","","","",""
"audio-keyboard-response","105","558249","0.0-4.0-1.0-0.28","2","0","04qflnx7t99wpfd","","null","","sounds/induction/right_rev/re_SWS.wav","","null","","","","","","","","","","","","","","","","","","","","","","","","","","","","","","","",""
"html-button-response","106","559077","0.0-4.0-1.0-1.28","2","0","04qflnx7t99wpfd","","826.3999999761581","","Was the sound coming from the left or the right?","1","","","1","INDUCTION-JUDGMENT","right","1","","","","","","","","","","","","","","","","","","","","","","","","","","",""
"html-keyboard-response","107","560078","0.0-4.0-1.0-2.28","2","0","04qflnx7t99wpfd","","null","","<p style=""color:#054d00;""><b>Correct!</b></p>","","null","","","","","","","","","","","","","","","","","","","","","","","","","","","","","","","",""
"audio-keyboard-response","108","560885","0.0-4.0-1.0-0.29","2","0","04qflnx7t99wpfd","","null","","sounds/induction/right_rev/su_SWS.wav","","null","","","","","","","","","","","","","","","","","","","","","","","","","","","","","","","",""
"html-button-response","109","561800","0.0-4.0-1.0-1.29","2","0","04qflnx7t99wpfd","","914.5","","Was the sound coming from the left or the right?","1","","","1","INDUCTION-JUDGMENT","right","1","","","","","","","","","","","","","","","","","","","","","","","","","","",""
"html-keyboard-response","110","562807","0.0-4.0-1.0-2.29","2","0","04qflnx7t99wpfd","","null","","<p style=""color:#054d00;""><b>Correct!</b></p>","","null","","","","","","","","","","","","","","","","","","","","","","","","","","","","","","","",""
"audio-keyboard-response","111","563613","0.0-4.0-1.0-0.30","2","0","04qflnx7t99wpfd","","null","","sounds/induction/right_rev/ge_SWS.wav","","null","","","","","","","","","","","","","","","","","","","","","","","","","","","","","","","",""
"html-button-response","112","564140","0.0-4.0-1.0-1.30","2","0","04qflnx7t99wpfd","","525.6000000238419","","Was the sound coming from the left or the right?","1","","","1","INDUCTION-JUDGMENT","right","1","","","","","","","","","","","","","","","","","","","","","","","","","","",""
"html-keyboard-response","113","565141","0.0-4.0-1.0-2.30","2","0","04qflnx7t99wpfd","","null","","<p style=""color:#054d00;""><b>Correct!</b></p>","","null","","","","","","","","","","","","","","","","","","","","","","","","","","","","","","","",""
"audio-keyboard-response","114","565947","0.0-4.0-1.0-0.31","2","0","04qflnx7t99wpfd","","null","","sounds/induction/left_rev/fu_SWS.wav","","null","","","","","","","","","","","","","","","","","","","","","","","","","","","","","","","",""
"html-button-response","115","566818","0.0-4.0-1.0-1.31","2","0","04qflnx7t99wpfd","","870.5","","Was the sound coming from the left or the right?","0","","","1","INDUCTION-JUDGMENT","left","0","","","","","","","","","","","","","","","","","","","","","","","","","","",""
"html-keyboard-response","116","567822","0.0-4.0-1.0-2.31","2","0","04qflnx7t99wpfd","","null","","<p style=""color:#054d00;""><b>Correct!</b></p>","","null","","","","","","","","","","","","","","","","","","","","","","","","","","","","","","","",""
"audio-keyboard-response","117","568629","0.0-4.0-1.0-0.32","2","0","04qflnx7t99wpfd","","null","","sounds/induction/left_rev/fe_SWS.wav","","null","","","","","","","","","","","","","","","","","","","","","","","","","","","","","","","",""
"html-button-response","118","569545","0.0-4.0-1.0-1.32","2","0","04qflnx7t99wpfd","","914.7000000476837","","Was the sound coming from the left or the right?","0","","","1","INDUCTION-JUDGMENT","left","0","","","","","","","","","","","","","","","","","","","","","","","","","","",""
"html-keyboard-response","119","570548","0.0-4.0-1.0-2.32","2","0","04qflnx7t99wpfd","","null","","<p style=""color:#054d00;""><b>Correct!</b></p>","","null","","","","","","","","","","","","","","","","","","","","","","","","","","","","","","","",""
"audio-keyboard-response","120","571351","0.0-4.0-1.0-0.33","2","0","04qflnx7t99wpfd","","null","","sounds/induction/right_rev/pu_SWS.wav","","null","","","","","","","","","","","","","","","","","","","","","","","","","","","","","","","",""
"html-button-response","121","572181","0.0-4.0-1.0-1.33","2","0","04qflnx7t99wpfd","","828.5","","Was the sound coming from the left or the right?","1","","","1","INDUCTION-JUDGMENT","right","1","","","","","","","","","","","","","","","","","","","","","","","","","","",""
"html-keyboard-response","122","573186","0.0-4.0-1.0-2.33","2","0","04qflnx7t99wpfd","","null","","<p style=""color:#054d00;""><b>Correct!</b></p>","","null","","","","","","","","","","","","","","","","","","","","","","","","","","","","","","","",""
"audio-keyboard-response","123","573993","0.0-4.0-1.0-0.34","2","0","04qflnx7t99wpfd","","null","","sounds/induction/left_rev/ko_SWS.wav","","null","","","","","","","","","","","","","","","","","","","","","","","","","","","","","","","",""
"html-button-response","124","574874","0.0-4.0-1.0-1.34","2","0","04qflnx7t99wpfd","","880.2999999523163","","Was the sound coming from the left or the right?","0","","","1","INDUCTION-JUDGMENT","left","0","","","","","","","","","","","","","","","","","","","","","","","","","","",""
"html-keyboard-response","125","575879","0.0-4.0-1.0-2.34","2","0","04qflnx7t99wpfd","","null","","<p style=""color:#054d00;""><b>Correct!</b></p>","","null","","","","","","","","","","","","","","","","","","","","","","","","","","","","","","","",""
"audio-keyboard-response","126","576686","0.0-4.0-1.0-0.35","2","0","04qflnx7t99wpfd","","null","","sounds/induction/left_rev/su_SWS.wav","","null","","","","","","","","","","","","","","","","","","","","","","","","","","","","","","","",""
"html-button-response","127","577230","0.0-4.0-1.0-1.35","2","0","04qflnx7t99wpfd","","542.8999999761581","","Was the sound coming from the left or the right?","0","","","1","INDUCTION-JUDGMENT","left","0","","","","","","","","","","","","","","","","","","","","","","","","","","",""
"html-keyboard-response","128","578236","0.0-4.0-1.0-2.35","2","0","04qflnx7t99wpfd","","null","","<p style=""color:#054d00;""><b>Correct!</b></p>","","null","","","","","","","","","","","","","","","","","","","","","","","","","","","","","","","",""
"audio-keyboard-response","129","579043","0.0-4.0-1.0-0.36","2","0","04qflnx7t99wpfd","","null","","sounds/induction/left_rev/re_SWS.wav","","null","","","","","","","","","","","","","","","","","","","","","","","","","","","","","","","",""
"html-button-response","130","579562","0.0-4.0-1.0-1.36","2","0","04qflnx7t99wpfd","","517.7999999523163","","Was the sound coming from the left or the right?","0","","","1","INDUCTION-JUDGMENT","left","0","","","","","","","","","","","","","","","","","","","","","","","","","","",""
"html-keyboard-response","131","580565","0.0-4.0-1.0-2.36","2","0","04qflnx7t99wpfd","","null","","<p style=""color:#054d00;""><b>Correct!</b></p>","","null","","","","","","","","","","","","","","","","","","","","","","","","","","","","","","","",""
"audio-keyboard-response","132","581365","0.0-4.0-1.0-0.37","2","0","04qflnx7t99wpfd","","null","","sounds/induction/right_rev/fu_SWS.wav","","null","","","","","","","","","","","","","","","","","","","","","","","","","","","","","","","",""
"html-button-response","133","582236","0.0-4.0-1.0-1.37","2","0","04qflnx7t99wpfd","","869.7999999523163","","Was the sound coming from the left or the right?","1","","","1","INDUCTION-JUDGMENT","right","1","","","","","","","","","","","","","","","","","","","","","","","","","","",""
"html-keyboard-response","134","583240","0.0-4.0-1.0-2.37","2","0","04qflnx7t99wpfd","","null","","<p style=""color:#054d00;""><b>Correct!</b></p>","","null","","","","","","","","","","","","","","","","","","","","","","","","","","","","","","","",""
"audio-keyboard-response","135","584041","0.0-4.0-1.0-0.38","2","0","04qflnx7t99wpfd","","null","","sounds/induction/right_rev/me_SWS.wav","","null","","","","","","","","","","","","","","","","","","","","","","","","","","","","","","","",""
"html-button-response","136","584698","0.0-4.0-1.0-1.38","2","0","04qflnx7t99wpfd","","654.8999999761581","","Was the sound coming from the left or the right?","1","","","1","INDUCTION-JUDGMENT","right","1","","","","","","","","","","","","","","","","","","","","","","","","","","",""
"html-keyboard-response","137","585701","0.0-4.0-1.0-2.38","2","0","04qflnx7t99wpfd","","null","","<p style=""color:#054d00;""><b>Correct!</b></p>","","null","","","","","","","","","","","","","","","","","","","","","","","","","","","","","","","",""
"audio-keyboard-response","138","586503","0.0-4.0-1.0-0.39","2","0","04qflnx7t99wpfd","","null","","sounds/induction/left_rev/ti_SWS.wav","","null","","","","","","","","","","","","","","","","","","","","","","","","","","","","","","","",""
"html-button-response","139","587276","0.0-4.0-1.0-1.39","2","0","04qflnx7t99wpfd","","772","","Was the sound coming from the left or the right?","0","","","1","INDUCTION-JUDGMENT","left","0","","","","","","","","","","","","","","","","","","","","","","","","","","",""
"html-keyboard-response","140","588279","0.0-4.0-1.0-2.39","2","0","04qflnx7t99wpfd","","null","","<p style=""color:#054d00;""><b>Correct!</b></p>","","null","","","","","","","","","","","","","","","","","","","","","","","","","","","","","","","",""
"audio-keyboard-response","141","589086","0.0-4.0-1.0-0.40","2","0","04qflnx7t99wpfd","","null","","sounds/induction/right_rev/fu_SWS.wav","","null","","","","","","","","","","","","","","","","","","","","","","","","","","","","","","","",""
"html-button-response","142","589871","0.0-4.0-1.0-1.40","2","0","04qflnx7t99wpfd","","783.5999999046326","","Was the sound coming from the left or the right?","1","","","1","INDUCTION-JUDGMENT","right","1","","","","","","","","","","","","","","","","","","","","","","","","","","",""
"html-keyboard-response","143","590875","0.0-4.0-1.0-2.40","2","0","04qflnx7t99wpfd","","null","","<p style=""color:#054d00;""><b>Correct!</b></p>","","null","","","","","","","","","","","","","","","","","","","","","","","","","","","","","","","",""
"audio-keyboard-response","144","591681","0.0-4.0-1.0-0.41","2","0","04qflnx7t99wpfd","","null","","sounds/induction/left_rev/ko_SWS.wav","","null","","","","","","","","","","","","","","","","","","","","","","","","","","","","","","","",""
"html-button-response","145","592405","0.0-4.0-1.0-1.41","2","0","04qflnx7t99wpfd","","722.6000000238419","","Was the sound coming from the left or the right?","0","","","1","INDUCTION-JUDGMENT","left","0","","","","","","","","","","","","","","","","","","","","","","","","","","",""
"html-keyboard-response","146","593406","0.0-4.0-1.0-2.41","2","0","04qflnx7t99wpfd","","null","","<p style=""color:#054d00;""><b>Correct!</b></p>","","null","","","","","","","","","","","","","","","","","","","","","","","","","","","","","","","",""
"audio-keyboard-response","147","594212","0.0-4.0-1.0-0.42","2","0","04qflnx7t99wpfd","","null","","sounds/induction/left_rev/ta_SWS.wav","","null","","","","","","","","","","","","","","","","","","","","","","","","","","","","","","","",""
"html-button-response","148","595079","0.0-4.0-1.0-1.42","2","0","04qflnx7t99wpfd","","865.7000000476837","","Was the sound coming from the left or the right?","0","","","1","INDUCTION-JUDGMENT","left","0","","","","","","","","","","","","","","","","","","","","","","","","","","",""
"html-keyboard-response","149","596081","0.0-4.0-1.0-2.42","2","0","04qflnx7t99wpfd","","null","","<p style=""color:#054d00;""><b>Correct!</b></p>","","null","","","","","","","","","","","","","","","","","","","","","","","","","","","","","","","",""
"audio-keyboard-response","150","596883","0.0-4.0-1.0-0.43","2","0","04qflnx7t99wpfd","","null","","sounds/induction/right_rev/ru_SWS.wav","","null","","","","","","","","","","","","","","","","","","","","","","","","","","","","","","","",""
"html-button-response","151","597568","0.0-4.0-1.0-1.43","2","0","04qflnx7t99wpfd","","684.1999999284744","","Was the sound coming from the left or the right?","1","","","1","INDUCTION-JUDGMENT","right","1","","","","","","","","","","","","","","","","","","","","","","","","","","",""
"html-keyboard-response","152","598572","0.0-4.0-1.0-2.43","2","0","04qflnx7t99wpfd","","null","","<p style=""color:#054d00;""><b>Correct!</b></p>","","null","","","","","","","","","","","","","","","","","","","","","","","","","","","","","","","",""
"audio-keyboard-response","153","599379","0.0-4.0-1.0-0.44","2","0","04qflnx7t99wpfd","","null","","sounds/induction/left_rev/su_SWS.wav","","null","","","","","","","","","","","","","","","","","","","","","","","","","","","","","","","",""
"html-button-response","154","600170","0.0-4.0-1.0-1.44","2","0","04qflnx7t99wpfd","","790.2000000476837","","Was the sound coming from the left or the right?","0","","","1","INDUCTION-JUDGMENT","left","0","","","","","","","","","","","","","","","","","","","","","","","","","","",""
"html-keyboard-response","155","601173","0.0-4.0-1.0-2.44","2","0","04qflnx7t99wpfd","","null","","<p style=""color:#054d00;""><b>Correct!</b></p>","","null","","","","","","","","","","","","","","","","","","","","","","","","","","","","","","","",""
"audio-keyboard-response","156","601974","0.0-4.0-1.0-0.45","2","0","04qflnx7t99wpfd","","null","","sounds/induction/left_rev/re_SWS.wav","","null","","","","","","","","","","","","","","","","","","","","","","","","","","","","","","","",""
"html-button-response","157","602966","0.0-4.0-1.0-1.45","2","0","04qflnx7t99wpfd","","991.5","","Was the sound coming from the left or the right?","0","","","1","INDUCTION-JUDGMENT","left","0","","","","","","","","","","","","","","","","","","","","","","","","","","",""
"html-keyboard-response","158","603968","0.0-4.0-1.0-2.45","2","0","04qflnx7t99wpfd","","null","","<p style=""color:#054d00;""><b>Correct!</b></p>","","null","","","","","","","","","","","","","","","","","","","","","","","","","","","","","","","",""
"audio-keyboard-response","159","604772","0.0-4.0-1.0-0.46","2","0","04qflnx7t99wpfd","","null","","sounds/induction/left_rev/me_SWS.wav","","null","","","","","","","","","","","","","","","","","","","","","","","","","","","","","","","",""
"html-button-response","160","605315","0.0-4.0-1.0-1.46","2","0","04qflnx7t99wpfd","","541.9000000953674","","Was the sound coming from the left or the right?","0","","","1","INDUCTION-JUDGMENT","left","0","","","","","","","","","","","","","","","","","","","","","","","","","","",""
"html-keyboard-response","161","606316","0.0-4.0-1.0-2.46","2","0","04qflnx7t99wpfd","","null","","<p style=""color:#054d00;""><b>Correct!</b></p>","","null","","","","","","","","","","","","","","","","","","","","","","","","","","","","","","","",""
"audio-keyboard-response","162","607123","0.0-4.0-1.0-0.47","2","0","04qflnx7t99wpfd","","null","","sounds/induction/right_rev/ti_SWS.wav","","null","","","","","","","","","","","","","","","","","","","","","","","","","","","","","","","",""
"html-button-response","163","607911","0.0-4.0-1.0-1.47","2","0","04qflnx7t99wpfd","","786.5999999046326","","Was the sound coming from the left or the right?","1","","","1","INDUCTION-JUDGMENT","right","1","","","","","","","","","","","","","","","","","","","","","","","","","","",""
"html-keyboard-response","164","608916","0.0-4.0-1.0-2.47","2","0","04qflnx7t99wpfd","","null","","<p style=""color:#054d00;""><b>Correct!</b></p>","","null","","","","","","","","","","","","","","","","","","","","","","","","","","","","","","","",""
"html-button-response","165","620543","0.0-5.0-0.0","2","0","04qflnx7t99wpfd","","11124.5","","<p>Thank you for your answers.</p><p>You will now listen to similar sounds. The main difference is that the sounds will be longer.</p><p>Just as before, you will be asked to judge whether the sound was coming from the left or the right.</p><p>There are 10 of these longer sounds in total.","0","","","","","","","","","","","","","","","","","","","","","","","","","","","","","","","","",""
"audio-keyboard-response","166","623099","0.0-5.0-1.0-0.0","2","0","04qflnx7t99wpfd","","null","","sounds/sentences/left_rev/14_04_cfSWS.wav","","null","","","","","","","","","","","","","","","","","","","","","","","","","","","","","","","",""
"html-button-response","167","624451","0.0-5.0-1.0-1.0","2","0","04qflnx7t99wpfd","","1350.7000000476837","","Was the sound coming from the left or the right?","0","","","1","INDUCTION-JUDGMENT","left","0","","","","","","","","","","","","","","","","","","","","","","","","","","",""
"html-keyboard-response","168","625456","0.0-5.0-1.0-2.0","2","0","04qflnx7t99wpfd","","null","","<p style=""color:#054d00;""><b>Correct!</b></p>","","null","","","","","","","","","","","","","","","","","","","","","","","","","","","","","","","",""
"html-button-response","169","627516","0.0-5.0-1.0-3.0","2","0","04qflnx7t99wpfd","","1553.8999999761581","","<p>Press the button below when you are ready to continue.</p>","0","","","","","","","","","","","","","","","","","","","","","","","","","","","","","","","","",""
"audio-keyboard-response","170","630506","0.0-5.0-1.0-0.1","2","0","04qflnx7t99wpfd","","null","","sounds/sentences/left_rev/14_05_cfSWS.wav","","null","","","","","","","","","","","","","","","","","","","","","","","","","","","","","","","",""
"html-button-response","171","631311","0.0-5.0-1.0-1.1","2","0","04qflnx7t99wpfd","","803.5","","Was the sound coming from the left or the right?","0","","","1","INDUCTION-JUDGMENT","left","0","","","","","","","","","","","","","","","","","","","","","","","","","","",""
"html-keyboard-response","172","632317","0.0-5.0-1.0-2.1","2","0","04qflnx7t99wpfd","","null","","<p style=""color:#054d00;""><b>Correct!</b></p>","","null","","","","","","","","","","","","","","","","","","","","","","","","","","","","","","","",""
"html-button-response","173","633757","0.0-5.0-1.0-3.1","2","0","04qflnx7t99wpfd","","933.3999999761581","","<p>Press the button below when you are ready to continue.</p>","0","","","","","","","","","","","","","","","","","","","","","","","","","","","","","","","","",""
"audio-keyboard-response","174","636514","0.0-5.0-1.0-0.2","2","0","04qflnx7t99wpfd","","null","","sounds/sentences/right_rev/14_08_cfSWS.wav","","null","","","","","","","","","","","","","","","","","","","","","","","","","","","","","","","",""
"html-button-response","175","637209","0.0-5.0-1.0-1.2","2","0","04qflnx7t99wpfd","","693.1000000238419","","Was the sound coming from the left or the right?","1","","","1","INDUCTION-JUDGMENT","right","1","","","","","","","","","","","","","","","","","","","","","","","","","","",""
"html-keyboard-response","176","638213","0.0-5.0-1.0-2.2","2","0","04qflnx7t99wpfd","","null","","<p style=""color:#054d00;""><b>Correct!</b></p>","","null","","","","","","","","","","","","","","","","","","","","","","","","","","","","","","","",""
"html-button-response","177","640083","0.0-5.0-1.0-3.2","2","0","04qflnx7t99wpfd","","1367.8999999761581","","<p>Press the button below when you are ready to continue.</p>","0","","","","","","","","","","","","","","","","","","","","","","","","","","","","","","","","",""
"audio-keyboard-response","178","642900","0.0-5.0-1.0-0.3","2","0","04qflnx7t99wpfd","","null","","sounds/sentences/left_rev/14_02_cfSWS.wav","","null","","","","","","","","","","","","","","","","","","","","","","","","","","","","","","","",""
"html-button-response","179","643768","0.0-5.0-1.0-1.3","2","0","04qflnx7t99wpfd","","867.1000000238419","","Was the sound coming from the left or the right?","0","","","1","INDUCTION-JUDGMENT","left","0","","","","","","","","","","","","","","","","","","","","","","","","","","",""
"html-keyboard-response","180","644770","0.0-5.0-1.0-2.3","2","0","04qflnx7t99wpfd","","null","","<p style=""color:#054d00;""><b>Correct!</b></p>","","null","","","","","","","","","","","","","","","","","","","","","","","","","","","","","","","",""
"html-button-response","181","646095","0.0-5.0-1.0-3.3","2","0","04qflnx7t99wpfd","","824.1999999284744","","<p>Press the button below when you are ready to continue.</p>","0","","","","","","","","","","","","","","","","","","","","","","","","","","","","","","","","",""
"audio-keyboard-response","182","648821","0.0-5.0-1.0-0.4","2","0","04qflnx7t99wpfd","","null","","sounds/sentences/right_rev/14_09_cfSWS.wav","","null","","","","","","","","","","","","","","","","","","","","","","","","","","","","","","","",""
"html-button-response","183","649667","0.0-5.0-1.0-1.4","2","0","04qflnx7t99wpfd","","844","","Was the sound coming from the left or the right?","1","","","1","INDUCTION-JUDGMENT","right","1","","","","","","","","","","","","","","","","","","","","","","","","","","",""
"html-keyboard-response","184","650668","0.0-5.0-1.0-2.4","2","0","04qflnx7t99wpfd","","null","","<p style=""color:#054d00;""><b>Correct!</b></p>","","null","","","","","","","","","","","","","","","","","","","","","","","","","","","","","","","",""
"html-button-response","185","652334","0.0-5.0-1.0-3.4","2","0","04qflnx7t99wpfd","","1160.7999999523163","","<p>Press the button below when you are ready to continue.</p>","0","","","","","","","","","","","","","","","","","","","","","","","","","","","","","","","","",""
"audio-keyboard-response","186","655451","0.0-5.0-1.0-0.5","2","0","04qflnx7t99wpfd","","null","","sounds/sentences/left_rev/14_01_cfSWS.wav","","null","","","","","","","","","","","","","","","","","","","","","","","","","","","","","","","",""
"html-button-response","187","656086","0.0-5.0-1.0-1.5","2","0","04qflnx7t99wpfd","","633.2999999523163","","Was the sound coming from the left or the right?","0","","","1","INDUCTION-JUDGMENT","left","0","","","","","","","","","","","","","","","","","","","","","","","","","","",""
"html-keyboard-response","188","657088","0.0-5.0-1.0-2.5","2","0","04qflnx7t99wpfd","","null","","<p style=""color:#054d00;""><b>Correct!</b></p>","","null","","","","","","","","","","","","","","","","","","","","","","","","","","","","","","","",""
"html-button-response","189","658793","0.0-5.0-1.0-3.5","2","0","04qflnx7t99wpfd","","1199.9000000953674","","<p>Press the button below when you are ready to continue.</p>","0","","","","","","","","","","","","","","","","","","","","","","","","","","","","","","","","",""
"audio-keyboard-response","190","661378","0.0-5.0-1.0-0.6","2","0","04qflnx7t99wpfd","","null","","sounds/sentences/left_rev/14_03_cfSWS.wav","","null","","","","","","","","","","","","","","","","","","","","","","","","","","","","","","","",""
"html-button-response","191","662194","0.0-5.0-1.0-1.6","2","0","04qflnx7t99wpfd","","814.2000000476837","","Was the sound coming from the left or the right?","0","","","1","INDUCTION-JUDGMENT","left","0","","","","","","","","","","","","","","","","","","","","","","","","","","",""
"html-keyboard-response","192","663195","0.0-5.0-1.0-2.6","2","0","04qflnx7t99wpfd","","null","","<p style=""color:#054d00;""><b>Correct!</b></p>","","null","","","","","","","","","","","","","","","","","","","","","","","","","","","","","","","",""
"html-button-response","193","664688","0.0-5.0-1.0-3.6","2","0","04qflnx7t99wpfd","","987","","<p>Press the button below when you are ready to continue.</p>","0","","","","","","","","","","","","","","","","","","","","","","","","","","","","","","","","",""
"audio-keyboard-response","194","667578","0.0-5.0-1.0-0.7","2","0","04qflnx7t99wpfd","","null","","sounds/sentences/right_rev/14_07_cfSWS.wav","","null","","","","","","","","","","","","","","","","","","","","","","","","","","","","","","","",""
"html-button-response","195","668304","0.0-5.0-1.0-1.7","2","0","04qflnx7t99wpfd","","724.2999999523163","","Was the sound coming from the left or the right?","1","","","1","INDUCTION-JUDGMENT","right","1","","","","","","","","","","","","","","","","","","","","","","","","","","",""
"html-keyboard-response","196","669308","0.0-5.0-1.0-2.7","2","0","04qflnx7t99wpfd","","null","","<p style=""color:#054d00;""><b>Correct!</b></p>","","null","","","","","","","","","","","","","","","","","","","","","","","","","","","","","","","",""
"html-button-response","197","670740","0.0-5.0-1.0-3.7","2","0","04qflnx7t99wpfd","","926.5","","<p>Press the button below when you are ready to continue.</p>","0","","","","","","","","","","","","","","","","","","","","","","","","","","","","","","","","",""
"audio-keyboard-response","198","673488","0.0-5.0-1.0-0.8","2","0","04qflnx7t99wpfd","","null","","sounds/sentences/right_rev/14_06_cfSWS.wav","","null","","","","","","","","","","","","","","","","","","","","","","","","","","","","","","","",""
"html-button-response","199","674272","0.0-5.0-1.0-1.8","2","0","04qflnx7t99wpfd","","783.2999999523163","","Was the sound coming from the left or the right?","1","","","1","INDUCTION-JUDGMENT","right","1","","","","","","","","","","","","","","","","","","","","","","","","","","",""
"html-keyboard-response","200","675276","0.0-5.0-1.0-2.8","2","0","04qflnx7t99wpfd","","null","","<p style=""color:#054d00;""><b>Correct!</b></p>","","null","","","","","","","","","","","","","","","","","","","","","","","","","","","","","","","",""
"html-button-response","201","676835","0.0-5.0-1.0-3.8","2","0","04qflnx7t99wpfd","","1057.6000000238419","","<p>Press the button below when you are ready to continue.</p>","0","","","","","","","","","","","","","","","","","","","","","","","","","","","","","","","","",""
"audio-keyboard-response","202","679856","0.0-5.0-1.0-0.9","2","0","04qflnx7t99wpfd","","null","","sounds/sentences/right_rev/14_10_cfSWS.wav","","null","","","","","","","","","","","","","","","","","","","","","","","","","","","","","","","",""
"html-button-response","203","680659","0.0-5.0-1.0-1.9","2","0","04qflnx7t99wpfd","","802.5","","Was the sound coming from the left or the right?","1","","","1","INDUCTION-JUDGMENT","right","1","","","","","","","","","","","","","","","","","","","","","","","","","","",""
"html-keyboard-response","204","681661","0.0-5.0-1.0-2.9","2","0","04qflnx7t99wpfd","","null","","<p style=""color:#054d00;""><b>Correct!</b></p>","","null","","","","","","","","","","","","","","","","","","","","","","","","","","","","","","","",""
"html-button-response","205","683138","0.0-5.0-1.0-3.9","2","0","04qflnx7t99wpfd","","971.6000000238419","","<p>Press the button below when you are ready to continue.</p>","0","","","","","","","","","","","","","","","","","","","","","","","","","","","","","","","","",""
"html-keyboard-response","206","701916","0.0-6.0-0.0","2","0","04qflnx7t99wpfd","","18275.300000071526","","<p>In this part of the study, you will hear sounds similar to those you just heard.</p><p>Please focus on these sounds, as you may be asked questions about them later.</p><p>Occasionally, the sounds will pause for up to two seconds. When this happens, please press SPACEBAR as quickly as you can.</br>This helps ensure that you are paying attention to the sounds.</p><p>This part of the study will take about 12 minutes to complete, and you will be given the opportunity to take a couple of short breaks every few minutes.</p><p><strong>Press SPACEBAR to begin</strong></p>","","32","","","","","","","","","","","","","","","","","","","","","","","","","","","","","","","",""
"html-keyboard-response","207","702920","0.0-6.0-1.0-0.0","2","0","04qflnx7t99wpfd","","null","","<p style=""font-size: 40px;"">+</p>","","null","","","","","","","","","","","","","","","","","","","","","","","","","","","","","","","",""
"html-keyboard-response","208","887931","0.0-6.0-1.0-1.0","2","0","04qflnx7t99wpfd","","null","","","","null","","","SL-TRAIN","","","1","1953.2000000476837","null","sounds/B/TRAIN/SEQ__08.mp3","14","","","","","","","","","","","","","","","","","","","","","",""
"html-button-response","209","890617","0.0-6.0-1.0-2.0","2","0","04qflnx7t99wpfd","","2684.100000023842","","<p>You may take a short break if you wish.</p>","0","","","","","","","","","","","","","","","","","","","","","","","","","","","","","","","","",""
"html-keyboard-response","210","891619","0.0-6.0-1.0-3.0","2","0","04qflnx7t99wpfd","","null","","<p style=""font-size: 40px;"">+</p>","","null","","","","","","","","","","","","","","","","","","","","","","","","","","","","","","","",""
"html-keyboard-response","211","1076629","0.0-6.0-1.0-4.0","2","0","04qflnx7t99wpfd","","null","","","","null","","","SL-TRAIN","","","0","1902.5","1941","sounds/B/TRAIN/SEQ__10.mp3","32","","","","","","","","","","","","","","","","","","","","","",""
"html-button-response","212","1078868","0.0-6.0-1.0-5.0","2","0","04qflnx7t99wpfd","","2237.100000023842","","<p>You may take a short break if you wish.</p>","0","","","","","","","","","","","","","","","","","","","","","","","","","","","","","","","","",""
"html-keyboard-response","213","1079873","0.0-6.0-1.0-6.0","2","0","04qflnx7t99wpfd","","null","","<p style=""font-size: 40px;"">+</p>","","null","","","","","","","","","","","","","","","","","","","","","","","","","","","","","","","",""
"html-keyboard-response","214","1264884","0.0-6.0-1.0-7.0","2","0","04qflnx7t99wpfd","","null","","","","null","","","SL-TRAIN","","","0","1835.2000000476837","1907.8000000715256","sounds/B/TRAIN/SEQ__05.mp3","39","","","","","","","","","","","","","","","","","","","","","",""
"html-button-response","215","1472116","0.0-6.0-1.0-8.0","2","0","04qflnx7t99wpfd","","207221.80000007153","","<p>You may take a short break if you wish.</p>","0","","","","","","","","","","","","","","","","","","","","","","","","","","","","","","","","",""
"html-keyboard-response","216","1473117","0.0-6.0-1.0-9.0","2","0","04qflnx7t99wpfd","","null","","<p style=""font-size: 40px;"">+</p>","","null","","","","","","","","","","","","","","","","","","","","","","","","","","","","","","","",""
"html-keyboard-response","217","1658128","0.0-6.0-1.0-10.0","2","0","04qflnx7t99wpfd","","null","","","","null","","","SL-TRAIN","","","1","1943.3999999761581","null","sounds/B/TRAIN/SEQ__03.mp3","64","","","","","","","","","","","","","","","","","","","","","",""
"html-button-response","218","1662026","0.0-6.0-1.0-11.0","2","0","04qflnx7t99wpfd","","3897.2999999523163","","<p>You may take a short break if you wish.</p>","0","","","","","","","","","","","","","","","","","","","","","","","","","","","","","","","","",""
"html-button-response","219","1668643","0.0-7.0-0.0","2","0","04qflnx7t99wpfd","","6614.400000095367","","<p>Welcome to the second part of the study. This is a <u>familiarity task</u>.</p><p>You will now hear short sounds and will be asked to rate how familiar they sound to you <b>based on what you heard in the previous part of the study</b>.</p><p>You will rate 12 sounds in total.</p>","0","","","","","","","","","","","","","","","","","","","","","","","","","","","","","","","","",""
"html-keyboard-response","220","1669645","0.0-7.0-1.0-0.0","2","0","04qflnx7t99wpfd","","null","","","","null","","","","","","","","","","","","","","","","","","","","","","","","","","","","","","","",""
"audio-keyboard-response","221","1671085","0.0-7.0-1.0-1.0","2","0","04qflnx7t99wpfd","","null","","sounds/B/FAM/N004.mp3","","null","","","","","","","","","","","","","","","","","","","","","","","","","","","","","","","",""
"html-keyboard-response","222","1675974","0.0-7.0-1.0-2.0","2","0","04qflnx7t99wpfd","","4383.400000095367","","<p>How familiar did this sound to you?</p><p>1&nbsp;&nbsp;&nbsp;&nbsp;&nbsp;&nbsp;&nbsp;&nbsp;&nbsp;&nbsp;&nbsp;&nbsp;&nbsp;&nbsp;&nbsp;&nbsp;&nbsp;&nbsp;&nbsp;2&nbsp;&nbsp;&nbsp;&nbsp;&nbsp;&nbsp;&nbsp;&nbsp;&nbsp;&nbsp;&nbsp;&nbsp;&nbsp;&nbsp;&nbsp;&nbsp;&nbsp;&nbsp;&nbsp;3&nbsp;&nbsp;&nbsp;&nbsp;&nbsp;&nbsp;&nbsp;&nbsp;&nbsp;&nbsp;&nbsp;&nbsp;&nbsp;&nbsp;&nbsp;&nbsp;&nbsp;&nbsp;&nbsp;4</p><p style=""font-size:14px"">Not at all familiar&nbsp;&nbsp;&nbsp;&nbsp;A little familiar&nbsp;&nbsp;&nbsp;Moderately familiar&nbsp;&nbsp;&nbsp;Extremely familiar</p><p>(press the corresponding number on your keyboard)</p>","","52","","","FAM-RESPONSE","","","","","","","","sounds/B/FAM/N004.mp3","nonword","","","","","","","","","","","","","","","","","","","",""
"html-keyboard-response","223","1677981","0.0-7.0-1.0-0.1","2","0","04qflnx7t99wpfd","","null","","","","null","","","","","","","","","","","","","","","","","","","","","","","","","","","","","","","",""
"audio-keyboard-response","224","1678922","0.0-7.0-1.0-1.1","2","0","04qflnx7t99wpfd","","null","","sounds/B/FAM/W001.mp3","","null","","","","","","","","","","","","","","","","","","","","","","","","","","","","","","","",""
"html-keyboard-response","225","1680132","0.0-7.0-1.0-2.1","2","0","04qflnx7t99wpfd","","705.1000000238419","","<p>How familiar did this sound to you?</p><p>1&nbsp;&nbsp;&nbsp;&nbsp;&nbsp;&nbsp;&nbsp;&nbsp;&nbsp;&nbsp;&nbsp;&nbsp;&nbsp;&nbsp;&nbsp;&nbsp;&nbsp;&nbsp;&nbsp;2&nbsp;&nbsp;&nbsp;&nbsp;&nbsp;&nbsp;&nbsp;&nbsp;&nbsp;&nbsp;&nbsp;&nbsp;&nbsp;&nbsp;&nbsp;&nbsp;&nbsp;&nbsp;&nbsp;3&nbsp;&nbsp;&nbsp;&nbsp;&nbsp;&nbsp;&nbsp;&nbsp;&nbsp;&nbsp;&nbsp;&nbsp;&nbsp;&nbsp;&nbsp;&nbsp;&nbsp;&nbsp;&nbsp;4</p><p style=""font-size:14px"">Not at all familiar&nbsp;&nbsp;&nbsp;&nbsp;A little familiar&nbsp;&nbsp;&nbsp;Moderately familiar&nbsp;&nbsp;&nbsp;Extremely familiar</p><p>(press the corresponding number on your keyboard)</p>","","52","","","FAM-RESPONSE","","","","","","","","sounds/B/FAM/W001.mp3","word","","","","","","","","","","","","","","","","","","","",""
"html-keyboard-response","226","1682137","0.0-7.0-1.0-0.2","2","0","04qflnx7t99wpfd","","null","","","","null","","","","","","","","","","","","","","","","","","","","","","","","","","","","","","","",""
"audio-keyboard-response","227","1683078","0.0-7.0-1.0-1.2","2","0","04qflnx7t99wpfd","","null","","sounds/B/FAM/W004.mp3","","null","","","","","","","","","","","","","","","","","","","","","","","","","","","","","","","",""
"html-keyboard-response","228","1684144","0.0-7.0-1.0-2.2","2","0","04qflnx7t99wpfd","","560","","<p>How familiar did this sound to you?</p><p>1&nbsp;&nbsp;&nbsp;&nbsp;&nbsp;&nbsp;&nbsp;&nbsp;&nbsp;&nbsp;&nbsp;&nbsp;&nbsp;&nbsp;&nbsp;&nbsp;&nbsp;&nbsp;&nbsp;2&nbsp;&nbsp;&nbsp;&nbsp;&nbsp;&nbsp;&nbsp;&nbsp;&nbsp;&nbsp;&nbsp;&nbsp;&nbsp;&nbsp;&nbsp;&nbsp;&nbsp;&nbsp;&nbsp;3&nbsp;&nbsp;&nbsp;&nbsp;&nbsp;&nbsp;&nbsp;&nbsp;&nbsp;&nbsp;&nbsp;&nbsp;&nbsp;&nbsp;&nbsp;&nbsp;&nbsp;&nbsp;&nbsp;4</p><p style=""font-size:14px"">Not at all familiar&nbsp;&nbsp;&nbsp;&nbsp;A little familiar&nbsp;&nbsp;&nbsp;Moderately familiar&nbsp;&nbsp;&nbsp;Extremely familiar</p><p>(press the corresponding number on your keyboard)</p>","","52","","","FAM-RESPONSE","","","","","","","","sounds/B/FAM/W004.mp3","word","","","","","","","","","","","","","","","","","","","",""
"html-keyboard-response","229","1686149","0.0-7.0-1.0-0.3","2","0","04qflnx7t99wpfd","","null","","","","null","","","","","","","","","","","","","","","","","","","","","","","","","","","","","","","",""
"audio-keyboard-response","230","1687089","0.0-7.0-1.0-1.3","2","0","04qflnx7t99wpfd","","null","","sounds/B/FAM/N001.mp3","","null","","","","","","","","","","","","","","","","","","","","","","","","","","","","","","","",""
"html-keyboard-response","231","1690326","0.0-7.0-1.0-2.3","2","0","04qflnx7t99wpfd","","2731.100000023842","","<p>How familiar did this sound to you?</p><p>1&nbsp;&nbsp;&nbsp;&nbsp;&nbsp;&nbsp;&nbsp;&nbsp;&nbsp;&nbsp;&nbsp;&nbsp;&nbsp;&nbsp;&nbsp;&nbsp;&nbsp;&nbsp;&nbsp;2&nbsp;&nbsp;&nbsp;&nbsp;&nbsp;&nbsp;&nbsp;&nbsp;&nbsp;&nbsp;&nbsp;&nbsp;&nbsp;&nbsp;&nbsp;&nbsp;&nbsp;&nbsp;&nbsp;3&nbsp;&nbsp;&nbsp;&nbsp;&nbsp;&nbsp;&nbsp;&nbsp;&nbsp;&nbsp;&nbsp;&nbsp;&nbsp;&nbsp;&nbsp;&nbsp;&nbsp;&nbsp;&nbsp;4</p><p style=""font-size:14px"">Not at all familiar&nbsp;&nbsp;&nbsp;&nbsp;A little familiar&nbsp;&nbsp;&nbsp;Moderately familiar&nbsp;&nbsp;&nbsp;Extremely familiar</p><p>(press the corresponding number on your keyboard)</p>","","49","","","FAM-RESPONSE","","","","","","","","sounds/B/FAM/N001.mp3","nonword","","","","","","","","","","","","","","","","","","","",""
"html-keyboard-response","232","1692331","0.0-7.0-1.0-0.4","2","0","04qflnx7t99wpfd","","null","","","","null","","","","","","","","","","","","","","","","","","","","","","","","","","","","","","","",""
"audio-keyboard-response","233","1693272","0.0-7.0-1.0-1.4","2","0","04qflnx7t99wpfd","","null","","sounds/B/FAM/W003.mp3","","null","","","","","","","","","","","","","","","","","","","","","","","","","","","","","","","",""
"html-keyboard-response","234","1694176","0.0-7.0-1.0-2.4","2","0","04qflnx7t99wpfd","","399.2000000476837","","<p>How familiar did this sound to you?</p><p>1&nbsp;&nbsp;&nbsp;&nbsp;&nbsp;&nbsp;&nbsp;&nbsp;&nbsp;&nbsp;&nbsp;&nbsp;&nbsp;&nbsp;&nbsp;&nbsp;&nbsp;&nbsp;&nbsp;2&nbsp;&nbsp;&nbsp;&nbsp;&nbsp;&nbsp;&nbsp;&nbsp;&nbsp;&nbsp;&nbsp;&nbsp;&nbsp;&nbsp;&nbsp;&nbsp;&nbsp;&nbsp;&nbsp;3&nbsp;&nbsp;&nbsp;&nbsp;&nbsp;&nbsp;&nbsp;&nbsp;&nbsp;&nbsp;&nbsp;&nbsp;&nbsp;&nbsp;&nbsp;&nbsp;&nbsp;&nbsp;&nbsp;4</p><p style=""font-size:14px"">Not at all familiar&nbsp;&nbsp;&nbsp;&nbsp;A little familiar&nbsp;&nbsp;&nbsp;Moderately familiar&nbsp;&nbsp;&nbsp;Extremely familiar</p><p>(press the corresponding number on your keyboard)</p>","","52","","","FAM-RESPONSE","","","","","","","","sounds/B/FAM/W003.mp3","word","","","","","","","","","","","","","","","","","","","",""
"html-keyboard-response","235","1696179","0.0-7.0-1.0-0.5","2","0","04qflnx7t99wpfd","","null","","","","null","","","","","","","","","","","","","","","","","","","","","","","","","","","","","","","",""
"audio-keyboard-response","236","1697121","0.0-7.0-1.0-1.5","2","0","04qflnx7t99wpfd","","null","","sounds/B/FAM/P003.mp3","","null","","","","","","","","","","","","","","","","","","","","","","","","","","","","","","","",""
"html-keyboard-response","237","1697983","0.0-7.0-1.0-2.5","2","0","04qflnx7t99wpfd","","356.7000000476837","","<p>How familiar did this sound to you?</p><p>1&nbsp;&nbsp;&nbsp;&nbsp;&nbsp;&nbsp;&nbsp;&nbsp;&nbsp;&nbsp;&nbsp;&nbsp;&nbsp;&nbsp;&nbsp;&nbsp;&nbsp;&nbsp;&nbsp;2&nbsp;&nbsp;&nbsp;&nbsp;&nbsp;&nbsp;&nbsp;&nbsp;&nbsp;&nbsp;&nbsp;&nbsp;&nbsp;&nbsp;&nbsp;&nbsp;&nbsp;&nbsp;&nbsp;3&nbsp;&nbsp;&nbsp;&nbsp;&nbsp;&nbsp;&nbsp;&nbsp;&nbsp;&nbsp;&nbsp;&nbsp;&nbsp;&nbsp;&nbsp;&nbsp;&nbsp;&nbsp;&nbsp;4</p><p style=""font-size:14px"">Not at all familiar&nbsp;&nbsp;&nbsp;&nbsp;A little familiar&nbsp;&nbsp;&nbsp;Moderately familiar&nbsp;&nbsp;&nbsp;Extremely familiar</p><p>(press the corresponding number on your keyboard)</p>","","52","","","FAM-RESPONSE","","","","","","","","sounds/B/FAM/P003.mp3","partword","","","","","","","","","","","","","","","","","","","",""
"html-keyboard-response","238","1699988","0.0-7.0-1.0-0.6","2","0","04qflnx7t99wpfd","","null","","","","null","","","","","","","","","","","","","","","","","","","","","","","","","","","","","","","",""
"audio-keyboard-response","239","1700929","0.0-7.0-1.0-1.6","2","0","04qflnx7t99wpfd","","null","","sounds/B/FAM/P002.mp3","","null","","","","","","","","","","","","","","","","","","","","","","","","","","","","","","","",""
"html-keyboard-response","240","1702116","0.0-7.0-1.0-2.6","2","0","04qflnx7t99wpfd","","681.8999999761581","","<p>How familiar did this sound to you?</p><p>1&nbsp;&nbsp;&nbsp;&nbsp;&nbsp;&nbsp;&nbsp;&nbsp;&nbsp;&nbsp;&nbsp;&nbsp;&nbsp;&nbsp;&nbsp;&nbsp;&nbsp;&nbsp;&nbsp;2&nbsp;&nbsp;&nbsp;&nbsp;&nbsp;&nbsp;&nbsp;&nbsp;&nbsp;&nbsp;&nbsp;&nbsp;&nbsp;&nbsp;&nbsp;&nbsp;&nbsp;&nbsp;&nbsp;3&nbsp;&nbsp;&nbsp;&nbsp;&nbsp;&nbsp;&nbsp;&nbsp;&nbsp;&nbsp;&nbsp;&nbsp;&nbsp;&nbsp;&nbsp;&nbsp;&nbsp;&nbsp;&nbsp;4</p><p style=""font-size:14px"">Not at all familiar&nbsp;&nbsp;&nbsp;&nbsp;A little familiar&nbsp;&nbsp;&nbsp;Moderately familiar&nbsp;&nbsp;&nbsp;Extremely familiar</p><p>(press the corresponding number on your keyboard)</p>","","52","","","FAM-RESPONSE","","","","","","","","sounds/B/FAM/P002.mp3","partword","","","","","","","","","","","","","","","","","","","",""
"html-keyboard-response","241","1704122","0.0-7.0-1.0-0.7","2","0","04qflnx7t99wpfd","","null","","","","null","","","","","","","","","","","","","","","","","","","","","","","","","","","","","","","",""
"audio-keyboard-response","242","1705062","0.0-7.0-1.0-1.7","2","0","04qflnx7t99wpfd","","null","","sounds/B/FAM/W002.mp3","","null","","","","","","","","","","","","","","","","","","","","","","","","","","","","","","","",""
"html-keyboard-response","243","1706203","0.0-7.0-1.0-2.7","2","0","04qflnx7t99wpfd","","635.5","","<p>How familiar did this sound to you?</p><p>1&nbsp;&nbsp;&nbsp;&nbsp;&nbsp;&nbsp;&nbsp;&nbsp;&nbsp;&nbsp;&nbsp;&nbsp;&nbsp;&nbsp;&nbsp;&nbsp;&nbsp;&nbsp;&nbsp;2&nbsp;&nbsp;&nbsp;&nbsp;&nbsp;&nbsp;&nbsp;&nbsp;&nbsp;&nbsp;&nbsp;&nbsp;&nbsp;&nbsp;&nbsp;&nbsp;&nbsp;&nbsp;&nbsp;3&nbsp;&nbsp;&nbsp;&nbsp;&nbsp;&nbsp;&nbsp;&nbsp;&nbsp;&nbsp;&nbsp;&nbsp;&nbsp;&nbsp;&nbsp;&nbsp;&nbsp;&nbsp;&nbsp;4</p><p style=""font-size:14px"">Not at all familiar&nbsp;&nbsp;&nbsp;&nbsp;A little familiar&nbsp;&nbsp;&nbsp;Moderately familiar&nbsp;&nbsp;&nbsp;Extremely familiar</p><p>(press the corresponding number on your keyboard)</p>","","52","","","FAM-RESPONSE","","","","","","","","sounds/B/FAM/W002.mp3","word","","","","","","","","","","","","","","","","","","","",""
"html-keyboard-response","244","1708209","0.0-7.0-1.0-0.8","2","0","04qflnx7t99wpfd","","null","","","","null","","","","","","","","","","","","","","","","","","","","","","","","","","","","","","","",""
"audio-keyboard-response","245","1709149","0.0-7.0-1.0-1.8","2","0","04qflnx7t99wpfd","","null","","sounds/B/FAM/N003.mp3","","null","","","","","","","","","","","","","","","","","","","","","","","","","","","","","","","",""
"html-keyboard-response","246","1710563","0.0-7.0-1.0-2.8","2","0","04qflnx7t99wpfd","","908.2999999523163","","<p>How familiar did this sound to you?</p><p>1&nbsp;&nbsp;&nbsp;&nbsp;&nbsp;&nbsp;&nbsp;&nbsp;&nbsp;&nbsp;&nbsp;&nbsp;&nbsp;&nbsp;&nbsp;&nbsp;&nbsp;&nbsp;&nbsp;2&nbsp;&nbsp;&nbsp;&nbsp;&nbsp;&nbsp;&nbsp;&nbsp;&nbsp;&nbsp;&nbsp;&nbsp;&nbsp;&nbsp;&nbsp;&nbsp;&nbsp;&nbsp;&nbsp;3&nbsp;&nbsp;&nbsp;&nbsp;&nbsp;&nbsp;&nbsp;&nbsp;&nbsp;&nbsp;&nbsp;&nbsp;&nbsp;&nbsp;&nbsp;&nbsp;&nbsp;&nbsp;&nbsp;4</p><p style=""font-size:14px"">Not at all familiar&nbsp;&nbsp;&nbsp;&nbsp;A little familiar&nbsp;&nbsp;&nbsp;Moderately familiar&nbsp;&nbsp;&nbsp;Extremely familiar</p><p>(press the corresponding number on your keyboard)</p>","","49","","","FAM-RESPONSE","","","","","","","","sounds/B/FAM/N003.mp3","nonword","","","","","","","","","","","","","","","","","","","",""
"html-keyboard-response","247","1712568","0.0-7.0-1.0-0.9","2","0","04qflnx7t99wpfd","","null","","","","null","","","","","","","","","","","","","","","","","","","","","","","","","","","","","","","",""
"audio-keyboard-response","248","1713509","0.0-7.0-1.0-1.9","2","0","04qflnx7t99wpfd","","null","","sounds/B/FAM/P001.mp3","","null","","","","","","","","","","","","","","","","","","","","","","","","","","","","","","","",""
"html-keyboard-response","249","1714418","0.0-7.0-1.0-2.9","2","0","04qflnx7t99wpfd","","404","","<p>How familiar did this sound to you?</p><p>1&nbsp;&nbsp;&nbsp;&nbsp;&nbsp;&nbsp;&nbsp;&nbsp;&nbsp;&nbsp;&nbsp;&nbsp;&nbsp;&nbsp;&nbsp;&nbsp;&nbsp;&nbsp;&nbsp;2&nbsp;&nbsp;&nbsp;&nbsp;&nbsp;&nbsp;&nbsp;&nbsp;&nbsp;&nbsp;&nbsp;&nbsp;&nbsp;&nbsp;&nbsp;&nbsp;&nbsp;&nbsp;&nbsp;3&nbsp;&nbsp;&nbsp;&nbsp;&nbsp;&nbsp;&nbsp;&nbsp;&nbsp;&nbsp;&nbsp;&nbsp;&nbsp;&nbsp;&nbsp;&nbsp;&nbsp;&nbsp;&nbsp;4</p><p style=""font-size:14px"">Not at all familiar&nbsp;&nbsp;&nbsp;&nbsp;A little familiar&nbsp;&nbsp;&nbsp;Moderately familiar&nbsp;&nbsp;&nbsp;Extremely familiar</p><p>(press the corresponding number on your keyboard)</p>","","52","","","FAM-RESPONSE","","","","","","","","sounds/B/FAM/P001.mp3","partword","","","","","","","","","","","","","","","","","","","",""
"html-keyboard-response","250","1716429","0.0-7.0-1.0-0.10","2","0","04qflnx7t99wpfd","","null","","","","null","","","","","","","","","","","","","","","","","","","","","","","","","","","","","","","",""
"audio-keyboard-response","251","1717369","0.0-7.0-1.0-1.10","2","0","04qflnx7t99wpfd","","null","","sounds/B/FAM/P004.mp3","","null","","","","","","","","","","","","","","","","","","","","","","","","","","","","","","","",""
"html-keyboard-response","252","1718249","0.0-7.0-1.0-2.10","2","0","04qflnx7t99wpfd","","373.60000002384186","","<p>How familiar did this sound to you?</p><p>1&nbsp;&nbsp;&nbsp;&nbsp;&nbsp;&nbsp;&nbsp;&nbsp;&nbsp;&nbsp;&nbsp;&nbsp;&nbsp;&nbsp;&nbsp;&nbsp;&nbsp;&nbsp;&nbsp;2&nbsp;&nbsp;&nbsp;&nbsp;&nbsp;&nbsp;&nbsp;&nbsp;&nbsp;&nbsp;&nbsp;&nbsp;&nbsp;&nbsp;&nbsp;&nbsp;&nbsp;&nbsp;&nbsp;3&nbsp;&nbsp;&nbsp;&nbsp;&nbsp;&nbsp;&nbsp;&nbsp;&nbsp;&nbsp;&nbsp;&nbsp;&nbsp;&nbsp;&nbsp;&nbsp;&nbsp;&nbsp;&nbsp;4</p><p style=""font-size:14px"">Not at all familiar&nbsp;&nbsp;&nbsp;&nbsp;A little familiar&nbsp;&nbsp;&nbsp;Moderately familiar&nbsp;&nbsp;&nbsp;Extremely familiar</p><p>(press the corresponding number on your keyboard)</p>","","52","","","FAM-RESPONSE","","","","","","","","sounds/B/FAM/P004.mp3","partword","","","","","","","","","","","","","","","","","","","",""
"html-keyboard-response","253","1720255","0.0-7.0-1.0-0.11","2","0","04qflnx7t99wpfd","","null","","","","null","","","","","","","","","","","","","","","","","","","","","","","","","","","","","","","",""
"audio-keyboard-response","254","1721195","0.0-7.0-1.0-1.11","2","0","04qflnx7t99wpfd","","null","","sounds/B/FAM/N002.mp3","","null","","","","","","","","","","","","","","","","","","","","","","","","","","","","","","","",""
"html-keyboard-response","255","1722013","0.0-7.0-1.0-2.11","2","0","04qflnx7t99wpfd","","313","","<p>How familiar did this sound to you?</p><p>1&nbsp;&nbsp;&nbsp;&nbsp;&nbsp;&nbsp;&nbsp;&nbsp;&nbsp;&nbsp;&nbsp;&nbsp;&nbsp;&nbsp;&nbsp;&nbsp;&nbsp;&nbsp;&nbsp;2&nbsp;&nbsp;&nbsp;&nbsp;&nbsp;&nbsp;&nbsp;&nbsp;&nbsp;&nbsp;&nbsp;&nbsp;&nbsp;&nbsp;&nbsp;&nbsp;&nbsp;&nbsp;&nbsp;3&nbsp;&nbsp;&nbsp;&nbsp;&nbsp;&nbsp;&nbsp;&nbsp;&nbsp;&nbsp;&nbsp;&nbsp;&nbsp;&nbsp;&nbsp;&nbsp;&nbsp;&nbsp;&nbsp;4</p><p style=""font-size:14px"">Not at all familiar&nbsp;&nbsp;&nbsp;&nbsp;A little familiar&nbsp;&nbsp;&nbsp;Moderately familiar&nbsp;&nbsp;&nbsp;Extremely familiar</p><p>(press the corresponding number on your keyboard)</p>","","52","","","FAM-RESPONSE","","","","","","","","sounds/B/FAM/N002.mp3","nonword","","","","","","","","","","","","","","","","","","","",""
"html-button-response","256","1731799","0.0-8.0-0.0","2","0","04qflnx7t99wpfd","","8780.200000047684","","<p>You will now listen to longer sound sequences.</p><p>Each sound sequence will last about 16 seconds.</p><p>On each trial, you will be given a <u>TARGET SOUND</u>. Your task is to listen very carefully for this sound.</p><p>Every time you hear the <u>TARGET SOUND</u>, you will press the <b>SPACEBAR</b> as quickly and accurately as you can.</p>","0","","","","","","","","","","","","","","","","","","","","","","","","","","","","","","","","",""
"html-button-response","257","1743520","0.0-8.0-1.0","2","0","04qflnx7t99wpfd","","11467.600000023842","","<p>It is very important that you make your responses as quickly and accurately as possible.</p><p>To help you make your responses, you will be able to listen to the <u>TARGET SOUND</u> at the beginning of each trial.</p><p>There will be 36 total trials.</p><p><b>Note: This is meant to be a difficult task. We simply want you to try your best.</p>","0","","","","","","","","","","","","","","","","","","","","","","","","","","","","","","","","",""
"html-button-response","258","1745599","0.0-8.0-2.0-0.0","2","0","04qflnx7t99wpfd","","1825.6000000238419","","<p>Trial 1 of 36</p>","0","","","","","","","","","","","","","","PU","sounds/syllables/pu_SWS.wav","1800,3600,7200,9900","1","","","","","","","","","","","","","","","",""
"html-keyboard-response","259","1749718","0.0-8.0-2.0-1.0","2","0","04qflnx7t99wpfd","","4117.899999976158","","","","80","","","","","","","","","","","","","PU","","1800,3600,7200,9900","1","","","","","","","","","","","","","","","",""
"audio-keyboard-response","260","1750017","0.0-8.0-2.0-2.0-0.0","2","0","04qflnx7t99wpfd","","null","","sounds/syllables/pu_SWS.wav","","null","","","","","","","","","","","","","","","","","","","","","","","","","","","","","","","",""
"html-keyboard-response","261","1752418","0.0-8.0-2.0-2.0-1.0","2","0","04qflnx7t99wpfd","","2399.4000000953674","","<p>To replay the <u>TARGET SOUND</u>, press P.</p> When you are ready to begin, press SPACEBAR.","","80","","","","","","","","","","","","","","","","","","","","","","","","","","","","","","","",""
"audio-keyboard-response","262","1753222","0.0-8.0-2.0-2.1-0.1","2","0","04qflnx7t99wpfd","","null","","sounds/syllables/pu_SWS.wav","","null","","","","","","","","","","","","","","","","","","","","","","","","","","","","","","","",""
"html-keyboard-response","263","1754804","0.0-8.0-2.0-2.1-1.1","2","0","04qflnx7t99wpfd","","1581.3999999761581","","<p>To replay the <u>TARGET SOUND</u>, press P.</p> When you are ready to begin, press SPACEBAR.","","32","","","","","","","","","","","","","","","","","","","","","","","","","","","","","","","",""
"audio-keyboard-response","264","1769755","0.0-8.0-2.0-3.0","2","0","04qflnx7t99wpfd","","1527","","sounds/B/TD/PU_09_TD.mp3","","32","","","TD_SUMMARY","","","","","","","","","","PU","","1800,3600,7200,9900","1","1800","3600","7200","9900","695.3999999761581","675.1000000238419","771.3000000715256","1048.1000000238419","1527_2495.399999976158_3087.2000000476837_4275.100000023842_4856.899999976158_5296.100000023842_5989.600000023842_6562.899999976158_7971.300000071526_8551_9121.100000023842_10447.100000023842_10948.100000023842_11490.800000071526_12560.800000071526_13244.899999976158_14178.5","2","","","","","",""
"html-button-response","265","1771399","0.0-8.0-2.0-0.1","2","0","04qflnx7t99wpfd","","1641.6000000238419","","<p>Trial 2 of 36</p>","0","","","","","","","","","","","","","","KO","sounds/syllables/ko_SWS.wav","3900,5700,8400,12900","2","","","","","","","","","","","","","","","",""
"html-keyboard-response","266","1775040","0.0-8.0-2.0-1.1","2","0","04qflnx7t99wpfd","","3639.899999976158","","","","80","","","","","","","","","","","","","KO","","3900,5700,8400,12900","2","","","","","","","","","","","","","","","",""
"audio-keyboard-response","267","1775339","0.0-8.0-2.0-2.2-0.2","2","0","04qflnx7t99wpfd","","null","","sounds/syllables/ko_SWS.wav","","null","","","","","","","","","","","","","","","","","","","","","","","","","","","","","","","",""
"html-keyboard-response","268","1778331","0.0-8.0-2.0-2.2-1.2","2","0","04qflnx7t99wpfd","","2991.0999999046326","","<p>To replay the <u>TARGET SOUND</u>, press P.</p> When you are ready to begin, press SPACEBAR.","","32","","","","","","","","","","","","","","","","","","","","","","","","","","","","","","","",""
"audio-keyboard-response","269","1793283","0.0-8.0-2.0-3.1","2","0","04qflnx7t99wpfd","","2833","","sounds/B/TD/KO_05_TD.mp3","","32","","","TD_SUMMARY","","","","","","","","","","KO","","3900,5700,8400,12900","2","3900","5700","8400","12900","852.2000000476837","991.1000000238419","null","null","_________________2832.5_4752.200000047684_6691.100000023842_11142.399999976158_12054.399999976158","1","","","","","",""
"html-button-response","270","1794211","0.0-8.0-2.0-0.2","2","0","04qflnx7t99wpfd","","925.5","","<p>Trial 3 of 36</p>","0","","","","","","","","","","","","","","FE","sounds/syllables/fe_SWS.wav","2400,5100,8700,12300","3","","","","","","","","","","","","","","","",""
"html-keyboard-response","271","1795194","0.0-8.0-2.0-1.2","2","0","04qflnx7t99wpfd","","980.8999999761581","","","","80","","","","","","","","","","","","","FE","","2400,5100,8700,12300","3","","","","","","","","","","","","","","","",""
"audio-keyboard-response","272","1795495","0.0-8.0-2.0-2.3-0.3","2","0","04qflnx7t99wpfd","","null","","sounds/syllables/fe_SWS.wav","","null","","","","","","","","","","","","","","","","","","","","","","","","","","","","","","","",""
"html-keyboard-response","273","1797934","0.0-8.0-2.0-2.3-1.3","2","0","04qflnx7t99wpfd","","2438.399999976158","","<p>To replay the <u>TARGET SOUND</u>, press P.</p> When you are ready to begin, press SPACEBAR.","","32","","","","","","","","","","","","","","","","","","","","","","","","","","","","","","","",""
"audio-keyboard-response","274","1812887","0.0-8.0-2.0-3.2","2","0","04qflnx7t99wpfd","","517","","sounds/B/TD/FE_06_TD.mp3","","32","","","TD_SUMMARY","","","","","","","","","","FE","","2400,5100,8700,12300","3","2400","5100","8700","12300","null","723.8000000715256","null","null","______________________516.7000000476837_2161.8000000715256_5823.800000071526","1","","","","","",""
"html-button-response","275","1813725","0.0-8.0-2.0-0.3","2","0","04qflnx7t99wpfd","","835.8000000715256","","<p>Trial 4 of 36</p>","0","","","","","","","","","","","","","","NI","sounds/syllables/ni_SWS.wav","2100,5700,9300,11100","2","","","","","","","","","","","","","","","",""
"html-keyboard-response","276","1814903","0.0-8.0-2.0-1.3","2","0","04qflnx7t99wpfd","","1177","","","","80","","","","","","","","","","","","","NI","","2100,5700,9300,11100","2","","","","","","","","","","","","","","","",""
"audio-keyboard-response","277","1815204","0.0-8.0-2.0-2.4-0.4","2","0","04qflnx7t99wpfd","","null","","sounds/syllables/ni_SWS.wav","","null","","","","","","","","","","","","","","","","","","","","","","","","","","","","","","","",""
"html-keyboard-response","278","1817623","0.0-8.0-2.0-2.4-1.4","2","0","04qflnx7t99wpfd","","2418.6999999284744","","<p>To replay the <u>TARGET SOUND</u>, press P.</p> When you are ready to begin, press SPACEBAR.","","32","","","","","","","","","","","","","","","","","","","","","","","","","","","","","","","",""
"audio-keyboard-response","279","1832573","0.0-8.0-2.0-3.3","2","0","04qflnx7t99wpfd","","2397","","sounds/B/TD/NI_08_TD.mp3","","32","","","TD_SUMMARY","","","","","","","","","","NI","","2100,5700,9300,11100","2","2100","5700","9300","11100","857","743.7000000476837","942.2999999523163","1094.1000000238419","_________________________2400.7000000476837_2957_4397.200000047684_5962.100000023842_6443.700000047684_9913.399999976158_10242.299999952316_11733.799999952316_12194.100000023842","1","","","","","",""
"html-button-response","280","1833427","0.0-8.0-2.0-0.4","2","0","04qflnx7t99wpfd","","851.9000000953674","","<p>Trial 5 of 36</p>","0","","","","","","","","","","","","","","PU","sounds/syllables/pu_SWS.wav","4500,6300,8100,12600","1","","","","","","","","","","","","","","","",""
"html-keyboard-response","281","1834221","0.0-8.0-2.0-1.4","2","0","04qflnx7t99wpfd","","792.3999999761581","","","","80","","","","","","","","","","","","","PU","","4500,6300,8100,12600","1","","","","","","","","","","","","","","","",""
"audio-keyboard-response","282","1834523","0.0-8.0-2.0-2.5-0.5","2","0","04qflnx7t99wpfd","","null","","sounds/syllables/pu_SWS.wav","","null","","","","","","","","","","","","","","","","","","","","","","","","","","","","","","","",""
"html-keyboard-response","283","1836470","0.0-8.0-2.0-2.5-1.5","2","0","04qflnx7t99wpfd","","1946","","<p>To replay the <u>TARGET SOUND</u>, press P.</p> When you are ready to begin, press SPACEBAR.","","32","","","","","","","","","","","","","","","","","","","","","","","","","","","","","","","",""
"audio-keyboard-response","284","1851416","0.0-8.0-2.0-3.4","2","0","04qflnx7t99wpfd","","615","","sounds/B/TD/PU_08_TD.mp3","","32","","","TD_SUMMARY","","","","","","","","","","PU","","4500,6300,8100,12600","1","4500","6300","8100","12600","298.6999999284744","881.2999999523163","1180.1999999284744","1050.5999999046326","__________________________________614.5_2489_4798.699999928474_5792.599999904633_7181.299999952316_7637.599999904633_8845.299999952316_9280.199999928474_10657.199999928474_13236.399999976158_13650.599999904633","1","","","","","",""
"html-button-response","285","1852322","0.0-8.0-2.0-0.5","2","0","04qflnx7t99wpfd","","903.4000000953674","","<p>Trial 6 of 36</p>","0","","","","","","","","","","","","","","FU","sounds/syllables/fu_SWS.wav","4500,8100,9900,12600","1","","","","","","","","","","","","","","","",""
"html-keyboard-response","286","1853030","0.0-8.0-2.0-1.5","2","0","04qflnx7t99wpfd","","706.5","","","","80","","","","","","","","","","","","","FU","","4500,8100,9900,12600","1","","","","","","","","","","","","","","","",""
"audio-keyboard-response","287","1853332","0.0-8.0-2.0-2.6-0.6","2","0","04qflnx7t99wpfd","","null","","sounds/syllables/fu_SWS.wav","","null","","","","","","","","","","","","","","","","","","","","","","","","","","","","","","","",""
"html-keyboard-response","288","1855666","0.0-8.0-2.0-2.6-1.6","2","0","04qflnx7t99wpfd","","2332.6999999284744","","<p>To replay the <u>TARGET SOUND</u>, press P.</p> When you are ready to begin, press SPACEBAR.","","32","","","","","","","","","","","","","","","","","","","","","","","","","","","","","","","",""
"audio-keyboard-response","289","1870614","0.0-8.0-2.0-3.5","2","0","04qflnx7t99wpfd","","3379","","sounds/B/TD/FU_07_TD.mp3","","32","","","TD_SUMMARY","","","","","","","","","","FU","","4500,8100,9900,12600","1","4500","8100","9900","12600","null","null","null","null","_____________________________________________3375.2999999523163_9335.099999904633_11546.899999976158","1","","","","","",""
"html-button-response","290","1871427","0.0-8.0-2.0-0.6","2","0","04qflnx7t99wpfd","","811.1999999284744","","<p>Trial 7 of 36</p>","0","","","","","","","","","","","","","","RU","sounds/syllables/ru_SWS.wav","5100,7800,11400,13200","3","","","","","","","","","","","","","","","",""
"html-keyboard-response","291","1872176","0.0-8.0-2.0-1.6","2","0","04qflnx7t99wpfd","","747.3999999761581","","","","80","","","","","","","","","","","","","RU","","5100,7800,11400,13200","3","","","","","","","","","","","","","","","",""
"audio-keyboard-response","292","1872477","0.0-8.0-2.0-2.7-0.7","2","0","04qflnx7t99wpfd","","null","","sounds/syllables/ru_SWS.wav","","null","","","","","","","","","","","","","","","","","","","","","","","","","","","","","","","",""
"html-keyboard-response","293","1875037","0.0-8.0-2.0-2.7-1.7","2","0","04qflnx7t99wpfd","","2558.6999999284744","","<p>To replay the <u>TARGET SOUND</u>, press P.</p> When you are ready to begin, press SPACEBAR.","","32","","","","","","","","","","","","","","","","","","","","","","","","","","","","","","","",""
"audio-keyboard-response","294","1889992","0.0-8.0-2.0-3.6","2","0","04qflnx7t99wpfd","","3460","","sounds/B/TD/RU_09_TD.mp3","","32","","","TD_SUMMARY","","","","","","","","","","RU","","5100,7800,11400,13200","3","5100","7800","11400","13200","298.8000000715256","460","376.39999997615814","420.2000000476837","________________________________________________3462.2000000476837_4855.200000047684_5398.800000071526_7665.800000071526_8260_11211.899999976158_11776.399999976158_13620.200000047684","1","","","","","",""
"html-button-response","295","1891055","0.0-8.0-2.0-0.7","2","0","04qflnx7t99wpfd","","1061","","<p>Trial 8 of 36</p>","0","","","","","","","","","","","","","","NI","sounds/syllables/ni_SWS.wav","3000,4800,11100,12900","2","","","","","","","","","","","","","","","",""
"html-keyboard-response","296","1891885","0.0-8.0-2.0-1.7","2","0","04qflnx7t99wpfd","","829.5","","","","80","","","","","","","","","","","","","NI","","3000,4800,11100,12900","2","","","","","","","","","","","","","","","",""
"audio-keyboard-response","297","1892186","0.0-8.0-2.0-2.8-0.8","2","0","04qflnx7t99wpfd","","null","","sounds/syllables/ni_SWS.wav","","null","","","","","","","","","","","","","","","","","","","","","","","","","","","","","","","",""
"html-keyboard-response","298","1893091","0.0-8.0-2.0-2.8-1.8","2","0","04qflnx7t99wpfd","","904.6000000238419","","<p>To replay the <u>TARGET SOUND</u>, press P.</p> When you are ready to begin, press SPACEBAR.","","32","","","","","","","","","","","","","","","","","","","","","","","","","","","","","","","",""
"audio-keyboard-response","299","1908046","0.0-8.0-2.0-3.7","2","0","04qflnx7t99wpfd","","2583","","sounds/B/TD/NI_07_TD.mp3","","32","","","TD_SUMMARY","","","","","","","","","","NI","","3000,4800,11100,12900","2","3000","4800","11100","12900","951.5","734.7000000476837","1025.5","717.5","________________________________________________________2587_3254.5_3951.5_5534.700000047684_6980.300000071526_11681.200000047684_12125.5_13617.5","1","","","","","",""
"html-button-response","300","1908825","0.0-8.0-2.0-0.8","2","0","04qflnx7t99wpfd","","777.6999999284744","","<p>Trial 9 of 36</p>","0","","","","","","","","","","","","","","RE","sounds/syllables/re_SWS.wav","1500,3300,6000,13200","3","","","","","","","","","","","","","","","",""
"html-keyboard-response","301","1909379","0.0-8.0-2.0-1.8","2","0","04qflnx7t99wpfd","","552.5","","","","80","","","","","","","","","","","","","RE","","1500,3300,6000,13200","3","","","","","","","","","","","","","","","",""
"audio-keyboard-response","302","1909677","0.0-8.0-2.0-2.9-0.9","2","0","04qflnx7t99wpfd","","null","","sounds/syllables/re_SWS.wav","","null","","","","","","","","","","","","","","","","","","","","","","","","","","","","","","","",""
"html-keyboard-response","303","1911310","0.0-8.0-2.0-2.9-1.9","2","0","04qflnx7t99wpfd","","1632.2000000476837","","<p>To replay the <u>TARGET SOUND</u>, press P.</p> When you are ready to begin, press SPACEBAR.","","32","","","","","","","","","","","","","","","","","","","","","","","","","","","","","","","",""
"audio-keyboard-response","304","1926262","0.0-8.0-2.0-3.8","2","0","04qflnx7t99wpfd","","1974","","sounds/B/TD/RE_01_TD.mp3","","32","","","TD_SUMMARY","","","","","","","","","","RE","","1500,3300,6000,13200","3","1500","3300","6000","13200","475.7999999523163","null","null","null","________________________________________________________________1975.7999999523163_10775.799999952316_11294.799999952316_13270.100000023842","1","","","","","",""
"html-button-response","305","1927123","0.0-8.0-2.0-0.9","2","0","04qflnx7t99wpfd","","859.1000000238419","","<p>Trial 10 of 36</p>","0","","","","","","","","","","","","","","FU","sounds/syllables/fu_SWS.wav","900,6300,8100,12600","1","","","","","","","","","","","","","","","",""
"html-keyboard-response","306","1927693","0.0-8.0-2.0-1.9","2","0","04qflnx7t99wpfd","","568","","","","80","","","","","","","","","","","","","FU","","900,6300,8100,12600","1","","","","","","","","","","","","","","","",""
"audio-keyboard-response","307","1927992","0.0-8.0-2.0-2.10-0.10","2","0","04qflnx7t99wpfd","","null","","sounds/syllables/fu_SWS.wav","","null","","","","","","","","","","","","","","","","","","","","","","","","","","","","","","","",""
"html-keyboard-response","308","1929082","0.0-8.0-2.0-2.10-1.10","2","0","04qflnx7t99wpfd","","1089.3000000715256","","<p>To replay the <u>TARGET SOUND</u>, press P.</p> When you are ready to begin, press SPACEBAR.","","32","","","","","","","","","","","","","","","","","","","","","","","","","","","","","","","",""
"audio-keyboard-response","309","1944032","0.0-8.0-2.0-3.9","2","0","04qflnx7t99wpfd","","2380","","sounds/B/TD/FU_04_TD.mp3","","32","","","TD_SUMMARY","","","","","","","","","","FU","","900,6300,8100,12600","1","900","6300","8100","12600","null","854.0999999046326","776.5","518.8999999761581","____________________________________________________________________2384.5_2921.2999999523163_4420_6117.699999928474_7154.099999904633_8876.5_9828.299999952316_11452.399999976158_12600.699999928474_13118.899999976158","1","","","","","",""
"html-button-response","310","1945334","0.0-8.0-2.0-0.10","2","0","04qflnx7t99wpfd","","1300.2000000476837","","<p>Trial 11 of 36</p>","0","","","","","","","","","","","","","","RE","sounds/syllables/re_SWS.wav","2400,7800,9600,13200","3","","","","","","","","","","","","","","","",""
"html-keyboard-response","311","1945793","0.0-8.0-2.0-1.10","2","0","04qflnx7t99wpfd","","457.1999999284744","","","","80","","","","","","","","","","","","","RE","","2400,7800,9600,13200","3","","","","","","","","","","","","","","","",""
"audio-keyboard-response","312","1946093","0.0-8.0-2.0-2.11-0.11","2","0","04qflnx7t99wpfd","","null","","sounds/syllables/re_SWS.wav","","null","","","","","","","","","","","","","","","","","","","","","","","","","","","","","","","",""
"html-keyboard-response","313","1947787","0.0-8.0-2.0-2.11-1.11","2","0","04qflnx7t99wpfd","","1693.3999999761581","","<p>To replay the <u>TARGET SOUND</u>, press P.</p> When you are ready to begin, press SPACEBAR.","","80","","","","","","","","","","","","","","","","","","","","","","","","","","","","","","","",""
"audio-keyboard-response","314","1948589","0.0-8.0-2.0-2.12-0.12","2","0","04qflnx7t99wpfd","","null","","sounds/syllables/re_SWS.wav","","null","","","","","","","","","","","","","","","","","","","","","","","","","","","","","","","",""
"html-keyboard-response","315","1949294","0.0-8.0-2.0-2.12-1.12","2","0","04qflnx7t99wpfd","","704.1000000238419","","<p>To replay the <u>TARGET SOUND</u>, press P.</p> When you are ready to begin, press SPACEBAR.","","32","","","","","","","","","","","","","","","","","","","","","","","","","","","","","","","",""
"audio-keyboard-response","316","1964245","0.0-8.0-2.0-3.10","2","0","04qflnx7t99wpfd","","2972","","sounds/B/TD/RE_10_TD.mp3","","32","","","TD_SUMMARY","","","","","","","","","","RE","","2400,7800,9600,13200","3","2400","7800","9600","13200","942.7000000476837","673.6000000238419","586.9000000953674","718.5","______________________________________________________________________________2975.7000000476837_3342.7000000476837_4387.700000047684_8168.800000071526_8473.600000023842_9944.100000023842_10186.900000095367_11508_13666.900000095367_13918.5","2","","","","","",""
"html-button-response","317","1965052","0.0-8.0-2.0-0.11","2","0","04qflnx7t99wpfd","","804.1999999284744","","<p>Trial 12 of 36</p>","0","","","","","","","","","","","","","","GE","sounds/syllables/ge_SWS.wav","900,4500,6300,8100","1","","","","","","","","","","","","","","","",""
"html-keyboard-response","318","1965647","0.0-8.0-2.0-1.11","2","0","04qflnx7t99wpfd","","594.1999999284744","","","","80","","","","","","","","","","","","","GE","","900,4500,6300,8100","1","","","","","","","","","","","","","","","",""
"audio-keyboard-response","319","1965946","0.0-8.0-2.0-2.13-0.13","2","0","04qflnx7t99wpfd","","null","","sounds/syllables/ge_SWS.wav","","null","","","","","","","","","","","","","","","","","","","","","","","","","","","","","","","",""
"html-keyboard-response","320","1966960","0.0-8.0-2.0-2.13-1.13","2","0","04qflnx7t99wpfd","","1012.5999999046326","","<p>To replay the <u>TARGET SOUND</u>, press P.</p> When you are ready to begin, press SPACEBAR.","","80","","","","","","","","","","","","","","","","","","","","","","","","","","","","","","","",""
"audio-keyboard-response","321","1967763","0.0-8.0-2.0-2.14-0.14","2","0","04qflnx7t99wpfd","","null","","sounds/syllables/ge_SWS.wav","","null","","","","","","","","","","","","","","","","","","","","","","","","","","","","","","","",""
"html-keyboard-response","322","1968202","0.0-8.0-2.0-2.14-1.14","2","0","04qflnx7t99wpfd","","437.7000000476837","","<p>To replay the <u>TARGET SOUND</u>, press P.</p> When you are ready to begin, press SPACEBAR.","","32","","","","","","","","","","","","","","","","","","","","","","","","","","","","","","","",""
"audio-keyboard-response","323","1983153","0.0-8.0-2.0-3.11","2","0","04qflnx7t99wpfd","","1596","","sounds/B/TD/GE_01_TD.mp3","","32","","","TD_SUMMARY","","","","","","","","","","GE","","900,4500,6300,8100","1","900","4500","6300","8100","1181.7000000476837","618.7000000476837","990.8000000715256","945.8000000715256","________________________________________________________________________________________1598.9000000953674_1869.1000000238419_2081.7000000476837_4810.700000047684_5118.700000047684_7078.100000023842_7290.800000071526_8818.800000071526_9045.800000071526_10523_10758.300000071526_12430.400000095367_12673.5_13751.5_14069.200000047684","2","","","","","",""
"html-button-response","324","1985272","0.0-8.0-2.0-0.12","2","0","04qflnx7t99wpfd","","2117.600000023842","","<p>Trial 13 of 36</p>","0","","","","","","","","","","","","","","GE","sounds/syllables/ge_SWS.wav","3600,8100,9900,12600","1","","","","","","","","","","","","","","","",""
"html-keyboard-response","325","1986410","0.0-8.0-2.0-1.12","2","0","04qflnx7t99wpfd","","1136.5999999046326","","","","80","","","","","","","","","","","","","GE","","3600,8100,9900,12600","1","","","","","","","","","","","","","","","",""
"audio-keyboard-response","326","1986711","0.0-8.0-2.0-2.15-0.15","2","0","04qflnx7t99wpfd","","null","","sounds/syllables/ge_SWS.wav","","null","","","","","","","","","","","","","","","","","","","","","","","","","","","","","","","",""
"html-keyboard-response","327","1987817","0.0-8.0-2.0-2.15-1.15","2","0","04qflnx7t99wpfd","","1105.7000000476837","","<p>To replay the <u>TARGET SOUND</u>, press P.</p> When you are ready to begin, press SPACEBAR.","","80","","","","","","","","","","","","","","","","","","","","","","","","","","","","","","","",""
"audio-keyboard-response","328","1988621","0.0-8.0-2.0-2.16-0.16","2","0","04qflnx7t99wpfd","","null","","sounds/syllables/ge_SWS.wav","","null","","","","","","","","","","","","","","","","","","","","","","","","","","","","","","","",""
"html-keyboard-response","329","1988970","0.0-8.0-2.0-2.16-1.16","2","0","04qflnx7t99wpfd","","348.60000002384186","","<p>To replay the <u>TARGET SOUND</u>, press P.</p> When you are ready to begin, press SPACEBAR.","","32","","","","","","","","","","","","","","","","","","","","","","","","","","","","","","","",""
"audio-keyboard-response","330","2003924","0.0-8.0-2.0-3.12","2","0","04qflnx7t99wpfd","","4296","","sounds/B/TD/GE_02_TD.mp3","","32","","","TD_SUMMARY","","","","","","","","","","GE","","3600,8100,9900,12600","1","3600","8100","9900","12600","1152.5","952.2000000476837","1069.1000000238419","1034","_______________________________________________________________________________________________________4297.900000095367_4530.400000095367_4752.5_8131.5_8867.100000023842_9052.200000047684_9302.100000023842_10752.800000071526_10969.100000023842_13205.300000071526_13397.100000023842_13634","2","","","","","",""
"html-button-response","331","2005499","0.0-8.0-2.0-0.13","2","0","04qflnx7t99wpfd","","1573","","<p>Trial 14 of 36</p>","0","","","","","","","","","","","","","","RU","sounds/syllables/ru_SWS.wav","3300,6000,7800,9600","3","","","","","","","","","","","","","","","",""
"html-keyboard-response","332","2006165","0.0-8.0-2.0-1.13","2","0","04qflnx7t99wpfd","","664.8000000715256","","","","80","","","","","","","","","","","","","RU","","3300,6000,7800,9600","3","","","","","","","","","","","","","","","",""
"audio-keyboard-response","333","2006466","0.0-8.0-2.0-2.17-0.17","2","0","04qflnx7t99wpfd","","null","","sounds/syllables/ru_SWS.wav","","null","","","","","","","","","","","","","","","","","","","","","","","","","","","","","","","",""
