"trial_type","trial_index","time_elapsed","internal_node_id","counterbalance","lang_instruct","ParticipantID","view_history","rt","url","stimulus","button_pressed","key_press","correctRESP","correct","designation","location","correctanswer","timeouts","pause_rt01","pause_rt02","train_file","numKeyPress","sound","fam_type","SYLLABLE","EXEMPLAR","TD_LOCS","TD_TYPE","TDLOC_01","TDLOC_02","TDLOC_03","TDLOC_04","TD_RT_01","TD_RT_02","TD_RT_03","TD_RT_04","TD_SUBJ_RTs","number_of_plays","responses","slider_start","response","question_order","syllable","syllable_type"
"pavlovia","0","2","0.0-0.0","1","0","au8rh84bybg3pmm","","","","","","","","","","","","","","","","","","","","","","","","","","","","","","","","","","","","","",""
"instructions","1","117971","0.0-1.0","1","0","au8rh84bybg3pmm","[{""page_index"":0,""viewing_time"":3435.5},{""page_index"":1,""viewing_time"":114532}]","117970.60000000003","","","","","","","","","","","","","","","","","","","","","","","","","","","","","","","","","","","",""
"external-html","2","127332","0.0-2.0","1","0","au8rh84bybg3pmm","","9234.399999999965","consent/consent.html","","","","","","","","","","","","","","","","","","","","","","","","","","","","","","","","","","",""
"html-button-response","3","136643","0.0-3.0-0.0-0.0","1","0","au8rh84bybg3pmm","","9308.799999999988","","<p>Welcome to the study. You will first complete a short volume calibration and headphone check.</p><p>Please make sure you are in a quiet listening environment, that you are wearing headphones, and that your computer's volume is turned on.<p></p>","0","","","","","","","","","","","","","","","","","","","","","","","","","","","","","","","","",""
"html-button-response","4","144238","0.0-3.0-0.0-1.0","1","0","au8rh84bybg3pmm","","7340.600000000035","","<p>The volume calibration will be first.</p><p>You will hear a thirty-second noise. Please adjust your computer's volume so that this noise is being presented at a comfortable level.<p></p>","0","","","","","","","","","","","","","","","","","","","","","","","","","","","","","","","","",""
"audio-button-response","5","155145","0.0-3.0-0.0-2.0","1","0","au8rh84bybg3pmm","","9941","","audCalib/volumetest.mp3","0","","","","","","","","","","","","","","","","","","","","","","","","","","","","","","","","",""
"html-button-response","6","166776","0.0-3.0-1.0-0.0","1","0","au8rh84bybg3pmm","","11630.600000000035","","<p>You will now complete a short headphone check.</p><p>On each trial, you will hear three tones. One of these tones will be quieter than the others. Your task is to identify whether the quiet tone occured first, second, or third.</p><p>There are six trials in total.<p></p>","0","","","","","","","","","","","","","","","","","","","","","","","","","","","","","","","","",""
"html-keyboard-response","7","167536","0.0-3.0-1.0-1.0-0.0","1","0","au8rh84bybg3pmm","","null","","<div style=""font-size:60px;"">+</div>","","null","","","","","","","","","","","","","","","","","","","","","","","","","","","","","","","",""
"audio-button-response","8","172496","0.0-3.0-1.0-1.0-1.0","1","0","au8rh84bybg3pmm","","4955","","audCalib/t1_1.mp3","0","","0","1","headphone-test","","","","","","","","","","","","","","","","","","","","","","","","","","","","",""
"html-keyboard-response","9","173250","0.0-3.0-1.0-1.0-0.1","1","0","au8rh84bybg3pmm","","null","","<div style=""font-size:60px;"">+</div>","","null","","","","","","","","","","","","","","","","","","","","","","","","","","","","","","","",""
"audio-button-response","10","178043","0.0-3.0-1.0-1.0-1.1","1","0","au8rh84bybg3pmm","","4795","","audCalib/t3_1.mp3","2","","2","1","headphone-test","","","","","","","","","","","","","","","","","","","","","","","","","","","","",""
"html-keyboard-response","11","178801","0.0-3.0-1.0-1.0-0.2","1","0","au8rh84bybg3pmm","","null","","<div style=""font-size:60px;"">+</div>","","null","","","","","","","","","","","","","","","","","","","","","","","","","","","","","","","",""
"audio-button-response","12","187155","0.0-3.0-1.0-1.0-1.2","1","0","au8rh84bybg3pmm","","8352","","audCalib/t2_1.mp3","1","","1","1","headphone-test","","","","","","","","","","","","","","","","","","","","","","","","","","","","",""
"html-keyboard-response","13","187917","0.0-3.0-1.0-1.0-0.3","1","0","au8rh84bybg3pmm","","null","","<div style=""font-size:60px;"">+</div>","","null","","","","","","","","","","","","","","","","","","","","","","","","","","","","","","","",""
"audio-button-response","14","192766","0.0-3.0-1.0-1.0-1.3","1","0","au8rh84bybg3pmm","","4848","","audCalib/t2_2.mp3","1","","1","1","headphone-test","","","","","","","","","","","","","","","","","","","","","","","","","","","","",""
"html-keyboard-response","15","193520","0.0-3.0-1.0-1.0-0.4","1","0","au8rh84bybg3pmm","","null","","<div style=""font-size:60px;"">+</div>","","null","","","","","","","","","","","","","","","","","","","","","","","","","","","","","","","",""
"audio-button-response","16","197872","0.0-3.0-1.0-1.0-1.4","1","0","au8rh84bybg3pmm","","4347","","audCalib/t1_2.mp3","0","","0","1","headphone-test","","","","","","","","","","","","","","","","","","","","","","","","","","","","",""
"html-keyboard-response","17","198634","0.0-3.0-1.0-1.0-0.5","1","0","au8rh84bybg3pmm","","null","","<div style=""font-size:60px;"">+</div>","","null","","","","","","","","","","","","","","","","","","","","","","","","","","","","","","","",""
"audio-button-response","18","203112","0.0-3.0-1.0-1.0-1.5","1","0","au8rh84bybg3pmm","","4475","","audCalib/t3_2.mp3","2","","2","1","headphone-test","","","","","","","","","","","","","","","","","","","","","","","","","","","","",""
"html-button-response","19","206342","0.0-3.0-2.0","1","0","au8rh84bybg3pmm","","2976.2000000000116","","<p>The volume calibration and headphone check are now complete.</p>","0","","","","","","","","","","","","","","","","","","","","","","","","","","","","","","","","",""
"instructions","20","230301","0.0-4.0-0.0","1","0","au8rh84bybg3pmm","[{""page_index"":0,""viewing_time"":1937.5999999999767},{""page_index"":1,""viewing_time"":16474.20000000001},{""page_index"":2,""viewing_time"":5547.299999999988}]","23959.29999999999","","","","","","","","","","","","","","","","","","","","","","","","","","","","","","","","","","","",""
"audio-keyboard-response","21","230603","0.0-4.0-1.0-0.0","1","0","au8rh84bybg3pmm","","null","","sounds/induction/right_rev/ru_SWS.wav","","null","","","","","","","","","","","","","","","","","","","","","","","","","","","","","","","",""
"html-button-response","22","233274","0.0-4.0-1.0-1.0","1","0","au8rh84bybg3pmm","","2669.5","","Was the sound coming from the left or the right?","1","","","1","INDUCTION-JUDGMENT","right","1","","","","","","","","","","","","","","","","","","","","","","","","","","",""
"html-keyboard-response","23","234278","0.0-4.0-1.0-2.0","1","0","au8rh84bybg3pmm","","null","","<p style=""color:#054d00;""><b>Correct!</b></p>","","null","","","","","","","","","","","","","","","","","","","","","","","","","","","","","","","",""
"audio-keyboard-response","24","235082","0.0-4.0-1.0-0.1","1","0","au8rh84bybg3pmm","","null","","sounds/induction/left_rev/me_SWS.wav","","null","","","","","","","","","","","","","","","","","","","","","","","","","","","","","","","",""
"html-button-response","25","236080","0.0-4.0-1.0-1.1","1","0","au8rh84bybg3pmm","","996.2000000000116","","Was the sound coming from the left or the right?","0","","","1","INDUCTION-JUDGMENT","left","0","","","","","","","","","","","","","","","","","","","","","","","","","","",""
"html-keyboard-response","26","237086","0.0-4.0-1.0-2.1","1","0","au8rh84bybg3pmm","","null","","<p style=""color:#054d00;""><b>Correct!</b></p>","","null","","","","","","","","","","","","","","","","","","","","","","","","","","","","","","","",""
"audio-keyboard-response","27","237893","0.0-4.0-1.0-0.2","1","0","au8rh84bybg3pmm","","null","","sounds/induction/right_rev/su_SWS.wav","","null","","","","","","","","","","","","","","","","","","","","","","","","","","","","","","","",""
"html-button-response","28","239948","0.0-4.0-1.0-1.2","1","0","au8rh84bybg3pmm","","2053.2999999999884","","Was the sound coming from the left or the right?","1","","","1","INDUCTION-JUDGMENT","right","1","","","","","","","","","","","","","","","","","","","","","","","","","","",""
"html-keyboard-response","29","240953","0.0-4.0-1.0-2.2","1","0","au8rh84bybg3pmm","","null","","<p style=""color:#054d00;""><b>Correct!</b></p>","","null","","","","","","","","","","","","","","","","","","","","","","","","","","","","","","","",""
"audio-keyboard-response","30","241760","0.0-4.0-1.0-0.3","1","0","au8rh84bybg3pmm","","null","","sounds/induction/left_rev/su_SWS.wav","","null","","","","","","","","","","","","","","","","","","","","","","","","","","","","","","","",""
"html-button-response","31","242968","0.0-4.0-1.0-1.3","1","0","au8rh84bybg3pmm","","1206.600000000035","","Was the sound coming from the left or the right?","0","","","1","INDUCTION-JUDGMENT","left","0","","","","","","","","","","","","","","","","","","","","","","","","","","",""
"html-keyboard-response","32","243969","0.0-4.0-1.0-2.3","1","0","au8rh84bybg3pmm","","null","","<p style=""color:#054d00;""><b>Correct!</b></p>","","null","","","","","","","","","","","","","","","","","","","","","","","","","","","","","","","",""
"audio-keyboard-response","33","244773","0.0-4.0-1.0-0.4","1","0","au8rh84bybg3pmm","","null","","sounds/induction/right_rev/ta_SWS.wav","","null","","","","","","","","","","","","","","","","","","","","","","","","","","","","","","","",""
"html-button-response","34","246713","0.0-4.0-1.0-1.4","1","0","au8rh84bybg3pmm","","1938.5","","Was the sound coming from the left or the right?","1","","","1","INDUCTION-JUDGMENT","right","1","","","","","","","","","","","","","","","","","","","","","","","","","","",""
"html-keyboard-response","35","247719","0.0-4.0-1.0-2.4","1","0","au8rh84bybg3pmm","","null","","<p style=""color:#054d00;""><b>Correct!</b></p>","","null","","","","","","","","","","","","","","","","","","","","","","","","","","","","","","","",""
"audio-keyboard-response","36","248522","0.0-4.0-1.0-0.5","1","0","au8rh84bybg3pmm","","null","","sounds/induction/right_rev/ko_SWS.wav","","null","","","","","","","","","","","","","","","","","","","","","","","","","","","","","","","",""
"html-button-response","37","249617","0.0-4.0-1.0-1.5","1","0","au8rh84bybg3pmm","","1093.7999999999884","","Was the sound coming from the left or the right?","1","","","1","INDUCTION-JUDGMENT","right","1","","","","","","","","","","","","","","","","","","","","","","","","","","",""
"html-keyboard-response","38","250619","0.0-4.0-1.0-2.5","1","0","au8rh84bybg3pmm","","null","","<p style=""color:#054d00;""><b>Correct!</b></p>","","null","","","","","","","","","","","","","","","","","","","","","","","","","","","","","","","",""
"audio-keyboard-response","39","251424","0.0-4.0-1.0-0.6","1","0","au8rh84bybg3pmm","","null","","sounds/induction/right_rev/ti_SWS.wav","","null","","","","","","","","","","","","","","","","","","","","","","","","","","","","","","","",""
"html-button-response","40","252490","0.0-4.0-1.0-1.6","1","0","au8rh84bybg3pmm","","1064.7000000000116","","Was the sound coming from the left or the right?","1","","","1","INDUCTION-JUDGMENT","right","1","","","","","","","","","","","","","","","","","","","","","","","","","","",""
"html-keyboard-response","41","253494","0.0-4.0-1.0-2.6","1","0","au8rh84bybg3pmm","","null","","<p style=""color:#054d00;""><b>Correct!</b></p>","","null","","","","","","","","","","","","","","","","","","","","","","","","","","","","","","","",""
"audio-keyboard-response","42","254304","0.0-4.0-1.0-0.7","1","0","au8rh84bybg3pmm","","null","","sounds/induction/left_rev/su_SWS.wav","","null","","","","","","","","","","","","","","","","","","","","","","","","","","","","","","","",""
"html-button-response","43","255156","0.0-4.0-1.0-1.7","1","0","au8rh84bybg3pmm","","851.1000000000349","","Was the sound coming from the left or the right?","0","","","1","INDUCTION-JUDGMENT","left","0","","","","","","","","","","","","","","","","","","","","","","","","","","",""
"html-keyboard-response","44","256161","0.0-4.0-1.0-2.7","1","0","au8rh84bybg3pmm","","null","","<p style=""color:#054d00;""><b>Correct!</b></p>","","null","","","","","","","","","","","","","","","","","","","","","","","","","","","","","","","",""
"audio-keyboard-response","45","256970","0.0-4.0-1.0-0.8","1","0","au8rh84bybg3pmm","","null","","sounds/induction/right_rev/ta_SWS.wav","","null","","","","","","","","","","","","","","","","","","","","","","","","","","","","","","","",""
"html-button-response","46","257904","0.0-4.0-1.0-1.8","1","0","au8rh84bybg3pmm","","933","","Was the sound coming from the left or the right?","1","","","1","INDUCTION-JUDGMENT","right","1","","","","","","","","","","","","","","","","","","","","","","","","","","",""
"html-keyboard-response","47","258910","0.0-4.0-1.0-2.8","1","0","au8rh84bybg3pmm","","null","","<p style=""color:#054d00;""><b>Correct!</b></p>","","null","","","","","","","","","","","","","","","","","","","","","","","","","","","","","","","",""
"audio-keyboard-response","48","259712","0.0-4.0-1.0-0.9","1","0","au8rh84bybg3pmm","","null","","sounds/induction/right_rev/me_SWS.wav","","null","","","","","","","","","","","","","","","","","","","","","","","","","","","","","","","",""
"html-button-response","49","260751","0.0-4.0-1.0-1.9","1","0","au8rh84bybg3pmm","","1038","","Was the sound coming from the left or the right?","1","","","1","INDUCTION-JUDGMENT","right","1","","","","","","","","","","","","","","","","","","","","","","","","","","",""
"html-keyboard-response","50","261752","0.0-4.0-1.0-2.9","1","0","au8rh84bybg3pmm","","null","","<p style=""color:#054d00;""><b>Correct!</b></p>","","null","","","","","","","","","","","","","","","","","","","","","","","","","","","","","","","",""
"audio-keyboard-response","51","262559","0.0-4.0-1.0-0.10","1","0","au8rh84bybg3pmm","","null","","sounds/induction/left_rev/ge_SWS.wav","","null","","","","","","","","","","","","","","","","","","","","","","","","","","","","","","","",""
"html-button-response","52","263410","0.0-4.0-1.0-1.10","1","0","au8rh84bybg3pmm","","849.3000000000466","","Was the sound coming from the left or the right?","0","","","1","INDUCTION-JUDGMENT","left","0","","","","","","","","","","","","","","","","","","","","","","","","","","",""
"html-keyboard-response","53","264417","0.0-4.0-1.0-2.10","1","0","au8rh84bybg3pmm","","null","","<p style=""color:#054d00;""><b>Correct!</b></p>","","null","","","","","","","","","","","","","","","","","","","","","","","","","","","","","","","",""
"audio-keyboard-response","54","265221","0.0-4.0-1.0-0.11","1","0","au8rh84bybg3pmm","","null","","sounds/induction/right_rev/me_SWS.wav","","null","","","","","","","","","","","","","","","","","","","","","","","","","","","","","","","",""
"html-button-response","55","266077","0.0-4.0-1.0-1.11","1","0","au8rh84bybg3pmm","","854.6000000000349","","Was the sound coming from the left or the right?","1","","","1","INDUCTION-JUDGMENT","right","1","","","","","","","","","","","","","","","","","","","","","","","","","","",""
"html-keyboard-response","56","267079","0.0-4.0-1.0-2.11","1","0","au8rh84bybg3pmm","","null","","<p style=""color:#054d00;""><b>Correct!</b></p>","","null","","","","","","","","","","","","","","","","","","","","","","","","","","","","","","","",""
"audio-keyboard-response","57","267882","0.0-4.0-1.0-0.12","1","0","au8rh84bybg3pmm","","null","","sounds/induction/right_rev/fe_SWS.wav","","null","","","","","","","","","","","","","","","","","","","","","","","","","","","","","","","",""
"html-button-response","58","268817","0.0-4.0-1.0-1.12","1","0","au8rh84bybg3pmm","","933.9000000000233","","Was the sound coming from the left or the right?","1","","","1","INDUCTION-JUDGMENT","right","1","","","","","","","","","","","","","","","","","","","","","","","","","","",""
"html-keyboard-response","59","269819","0.0-4.0-1.0-2.12","1","0","au8rh84bybg3pmm","","null","","<p style=""color:#054d00;""><b>Correct!</b></p>","","null","","","","","","","","","","","","","","","","","","","","","","","","","","","","","","","",""
"audio-keyboard-response","60","270623","0.0-4.0-1.0-0.13","1","0","au8rh84bybg3pmm","","null","","sounds/induction/left_rev/ti_SWS.wav","","null","","","","","","","","","","","","","","","","","","","","","","","","","","","","","","","",""
"html-button-response","61","271515","0.0-4.0-1.0-1.13","1","0","au8rh84bybg3pmm","","890.2000000000116","","Was the sound coming from the left or the right?","0","","","1","INDUCTION-JUDGMENT","left","0","","","","","","","","","","","","","","","","","","","","","","","","","","",""
"html-keyboard-response","62","272520","0.0-4.0-1.0-2.13","1","0","au8rh84bybg3pmm","","null","","<p style=""color:#054d00;""><b>Correct!</b></p>","","null","","","","","","","","","","","","","","","","","","","","","","","","","","","","","","","",""
"audio-keyboard-response","63","273322","0.0-4.0-1.0-0.14","1","0","au8rh84bybg3pmm","","null","","sounds/induction/left_rev/re_SWS.wav","","null","","","","","","","","","","","","","","","","","","","","","","","","","","","","","","","",""
"html-button-response","64","274552","0.0-4.0-1.0-1.14","1","0","au8rh84bybg3pmm","","1228.7999999999884","","Was the sound coming from the left or the right?","0","","","1","INDUCTION-JUDGMENT","left","0","","","","","","","","","","","","","","","","","","","","","","","","","","",""
"html-keyboard-response","65","275558","0.0-4.0-1.0-2.14","1","0","au8rh84bybg3pmm","","null","","<p style=""color:#054d00;""><b>Correct!</b></p>","","null","","","","","","","","","","","","","","","","","","","","","","","","","","","","","","","",""
"audio-keyboard-response","66","276362","0.0-4.0-1.0-0.15","1","0","au8rh84bybg3pmm","","null","","sounds/induction/right_rev/fu_SWS.wav","","null","","","","","","","","","","","","","","","","","","","","","","","","","","","","","","","",""
"html-button-response","67","277170","0.0-4.0-1.0-1.15","1","0","au8rh84bybg3pmm","","806.4000000000233","","Was the sound coming from the left or the right?","1","","","1","INDUCTION-JUDGMENT","right","1","","","","","","","","","","","","","","","","","","","","","","","","","","",""
"html-keyboard-response","68","278173","0.0-4.0-1.0-2.15","1","0","au8rh84bybg3pmm","","null","","<p style=""color:#054d00;""><b>Correct!</b></p>","","null","","","","","","","","","","","","","","","","","","","","","","","","","","","","","","","",""
"audio-keyboard-response","69","278981","0.0-4.0-1.0-0.16","1","0","au8rh84bybg3pmm","","null","","sounds/induction/left_rev/fe_SWS.wav","","null","","","","","","","","","","","","","","","","","","","","","","","","","","","","","","","",""
"html-button-response","70","279836","0.0-4.0-1.0-1.16","1","0","au8rh84bybg3pmm","","852.3000000000466","","Was the sound coming from the left or the right?","0","","","1","INDUCTION-JUDGMENT","left","0","","","","","","","","","","","","","","","","","","","","","","","","","","",""
"html-keyboard-response","71","280842","0.0-4.0-1.0-2.16","1","0","au8rh84bybg3pmm","","null","","<p style=""color:#054d00;""><b>Correct!</b></p>","","null","","","","","","","","","","","","","","","","","","","","","","","","","","","","","","","",""
"audio-keyboard-response","72","281647","0.0-4.0-1.0-0.17","1","0","au8rh84bybg3pmm","","null","","sounds/induction/left_rev/re_SWS.wav","","null","","","","","","","","","","","","","","","","","","","","","","","","","","","","","","","",""
"html-button-response","73","282485","0.0-4.0-1.0-1.17","1","0","au8rh84bybg3pmm","","837.0999999999767","","Was the sound coming from the left or the right?","0","","","1","INDUCTION-JUDGMENT","left","0","","","","","","","","","","","","","","","","","","","","","","","","","","",""
"html-keyboard-response","74","283487","0.0-4.0-1.0-2.17","1","0","au8rh84bybg3pmm","","null","","<p style=""color:#054d00;""><b>Correct!</b></p>","","null","","","","","","","","","","","","","","","","","","","","","","","","","","","","","","","",""
"audio-keyboard-response","75","284292","0.0-4.0-1.0-0.18","1","0","au8rh84bybg3pmm","","null","","sounds/induction/left_rev/ni_SWS.wav","","null","","","","","","","","","","","","","","","","","","","","","","","","","","","","","","","",""
"html-button-response","76","285349","0.0-4.0-1.0-1.18","1","0","au8rh84bybg3pmm","","1055.0999999999767","","Was the sound coming from the left or the right?","0","","","1","INDUCTION-JUDGMENT","left","0","","","","","","","","","","","","","","","","","","","","","","","","","","",""
"html-keyboard-response","77","286352","0.0-4.0-1.0-2.18","1","0","au8rh84bybg3pmm","","null","","<p style=""color:#054d00;""><b>Correct!</b></p>","","null","","","","","","","","","","","","","","","","","","","","","","","","","","","","","","","",""
"audio-keyboard-response","78","287156","0.0-4.0-1.0-0.19","1","0","au8rh84bybg3pmm","","null","","sounds/induction/right_rev/ru_SWS.wav","","null","","","","","","","","","","","","","","","","","","","","","","","","","","","","","","","",""
"html-button-response","79","288074","0.0-4.0-1.0-1.19","1","0","au8rh84bybg3pmm","","915.8999999999651","","Was the sound coming from the left or the right?","1","","","1","INDUCTION-JUDGMENT","right","1","","","","","","","","","","","","","","","","","","","","","","","","","","",""
"html-keyboard-response","80","289080","0.0-4.0-1.0-2.19","1","0","au8rh84bybg3pmm","","null","","<p style=""color:#054d00;""><b>Correct!</b></p>","","null","","","","","","","","","","","","","","","","","","","","","","","","","","","","","","","",""
"audio-keyboard-response","81","289887","0.0-4.0-1.0-0.20","1","0","au8rh84bybg3pmm","","null","","sounds/induction/left_rev/pu_SWS.wav","","null","","","","","","","","","","","","","","","","","","","","","","","","","","","","","","","",""
"html-button-response","82","290792","0.0-4.0-1.0-1.20","1","0","au8rh84bybg3pmm","","902.9000000000233","","Was the sound coming from the left or the right?","0","","","1","INDUCTION-JUDGMENT","left","0","","","","","","","","","","","","","","","","","","","","","","","","","","",""
"html-keyboard-response","83","291794","0.0-4.0-1.0-2.20","1","0","au8rh84bybg3pmm","","null","","<p style=""color:#054d00;""><b>Correct!</b></p>","","null","","","","","","","","","","","","","","","","","","","","","","","","","","","","","","","",""
"audio-keyboard-response","84","292602","0.0-4.0-1.0-0.21","1","0","au8rh84bybg3pmm","","null","","sounds/induction/left_rev/ko_SWS.wav","","null","","","","","","","","","","","","","","","","","","","","","","","","","","","","","","","",""
"html-button-response","85","293647","0.0-4.0-1.0-1.21","1","0","au8rh84bybg3pmm","","1044.100000000035","","Was the sound coming from the left or the right?","0","","","1","INDUCTION-JUDGMENT","left","0","","","","","","","","","","","","","","","","","","","","","","","","","","",""
"html-keyboard-response","86","294652","0.0-4.0-1.0-2.21","1","0","au8rh84bybg3pmm","","null","","<p style=""color:#054d00;""><b>Correct!</b></p>","","null","","","","","","","","","","","","","","","","","","","","","","","","","","","","","","","",""
"audio-keyboard-response","87","295460","0.0-4.0-1.0-0.22","1","0","au8rh84bybg3pmm","","null","","sounds/induction/left_rev/pu_SWS.wav","","null","","","","","","","","","","","","","","","","","","","","","","","","","","","","","","","",""
"html-button-response","88","296396","0.0-4.0-1.0-1.22","1","0","au8rh84bybg3pmm","","934.7999999999884","","Was the sound coming from the left or the right?","0","","","1","INDUCTION-JUDGMENT","left","0","","","","","","","","","","","","","","","","","","","","","","","","","","",""
"html-keyboard-response","89","297402","0.0-4.0-1.0-2.22","1","0","au8rh84bybg3pmm","","null","","<p style=""color:#054d00;""><b>Correct!</b></p>","","null","","","","","","","","","","","","","","","","","","","","","","","","","","","","","","","",""
"audio-keyboard-response","90","298207","0.0-4.0-1.0-0.23","1","0","au8rh84bybg3pmm","","null","","sounds/induction/right_rev/ni_SWS.wav","","null","","","","","","","","","","","","","","","","","","","","","","","","","","","","","","","",""
"html-button-response","91","299276","0.0-4.0-1.0-1.23","1","0","au8rh84bybg3pmm","","1067.5","","Was the sound coming from the left or the right?","1","","","1","INDUCTION-JUDGMENT","right","1","","","","","","","","","","","","","","","","","","","","","","","","","","",""
"html-keyboard-response","92","300279","0.0-4.0-1.0-2.23","1","0","au8rh84bybg3pmm","","null","","<p style=""color:#054d00;""><b>Correct!</b></p>","","null","","","","","","","","","","","","","","","","","","","","","","","","","","","","","","","",""
"audio-keyboard-response","93","301087","0.0-4.0-1.0-0.24","1","0","au8rh84bybg3pmm","","null","","sounds/induction/left_rev/ti_SWS.wav","","null","","","","","","","","","","","","","","","","","","","","","","","","","","","","","","","",""
"html-button-response","94","301901","0.0-4.0-1.0-1.24","1","0","au8rh84bybg3pmm","","812.5999999999767","","Was the sound coming from the left or the right?","0","","","1","INDUCTION-JUDGMENT","left","0","","","","","","","","","","","","","","","","","","","","","","","","","","",""
"html-keyboard-response","95","302904","0.0-4.0-1.0-2.24","1","0","au8rh84bybg3pmm","","null","","<p style=""color:#054d00;""><b>Correct!</b></p>","","null","","","","","","","","","","","","","","","","","","","","","","","","","","","","","","","",""
"audio-keyboard-response","96","303711","0.0-4.0-1.0-0.25","1","0","au8rh84bybg3pmm","","null","","sounds/induction/right_rev/ko_SWS.wav","","null","","","","","","","","","","","","","","","","","","","","","","","","","","","","","","","",""
"html-button-response","97","304510","0.0-4.0-1.0-1.25","1","0","au8rh84bybg3pmm","","797.2000000000116","","Was the sound coming from the left or the right?","1","","","1","INDUCTION-JUDGMENT","right","1","","","","","","","","","","","","","","","","","","","","","","","","","","",""
"html-keyboard-response","98","305516","0.0-4.0-1.0-2.25","1","0","au8rh84bybg3pmm","","null","","<p style=""color:#054d00;""><b>Correct!</b></p>","","null","","","","","","","","","","","","","","","","","","","","","","","","","","","","","","","",""
"audio-keyboard-response","99","306319","0.0-4.0-1.0-0.26","1","0","au8rh84bybg3pmm","","null","","sounds/induction/right_rev/ge_SWS.wav","","null","","","","","","","","","","","","","","","","","","","","","","","","","","","","","","","",""
"html-button-response","100","307134","0.0-4.0-1.0-1.26","1","0","au8rh84bybg3pmm","","813.4000000000233","","Was the sound coming from the left or the right?","1","","","1","INDUCTION-JUDGMENT","right","1","","","","","","","","","","","","","","","","","","","","","","","","","","",""
"html-keyboard-response","101","308135","0.0-4.0-1.0-2.26","1","0","au8rh84bybg3pmm","","null","","<p style=""color:#054d00;""><b>Correct!</b></p>","","null","","","","","","","","","","","","","","","","","","","","","","","","","","","","","","","",""
"audio-keyboard-response","102","308943","0.0-4.0-1.0-0.27","1","0","au8rh84bybg3pmm","","null","","sounds/induction/right_rev/re_SWS.wav","","null","","","","","","","","","","","","","","","","","","","","","","","","","","","","","","","",""
"html-button-response","103","309776","0.0-4.0-1.0-1.27","1","0","au8rh84bybg3pmm","","832.2999999999884","","Was the sound coming from the left or the right?","1","","","1","INDUCTION-JUDGMENT","right","1","","","","","","","","","","","","","","","","","","","","","","","","","","",""
"html-keyboard-response","104","310777","0.0-4.0-1.0-2.27","1","0","au8rh84bybg3pmm","","null","","<p style=""color:#054d00;""><b>Correct!</b></p>","","null","","","","","","","","","","","","","","","","","","","","","","","","","","","","","","","",""
"audio-keyboard-response","105","311583","0.0-4.0-1.0-0.28","1","0","au8rh84bybg3pmm","","null","","sounds/induction/right_rev/pu_SWS.wav","","null","","","","","","","","","","","","","","","","","","","","","","","","","","","","","","","",""
"html-button-response","106","312501","0.0-4.0-1.0-1.28","1","0","au8rh84bybg3pmm","","916.0999999999767","","Was the sound coming from the left or the right?","1","","","1","INDUCTION-JUDGMENT","right","1","","","","","","","","","","","","","","","","","","","","","","","","","","",""
"html-keyboard-response","107","313503","0.0-4.0-1.0-2.28","1","0","au8rh84bybg3pmm","","null","","<p style=""color:#054d00;""><b>Correct!</b></p>","","null","","","","","","","","","","","","","","","","","","","","","","","","","","","","","","","",""
"audio-keyboard-response","108","314308","0.0-4.0-1.0-0.29","1","0","au8rh84bybg3pmm","","null","","sounds/induction/left_rev/me_SWS.wav","","null","","","","","","","","","","","","","","","","","","","","","","","","","","","","","","","",""
"html-button-response","109","315093","0.0-4.0-1.0-1.29","1","0","au8rh84bybg3pmm","","783.5999999999767","","Was the sound coming from the left or the right?","0","","","1","INDUCTION-JUDGMENT","left","0","","","","","","","","","","","","","","","","","","","","","","","","","","",""
"html-keyboard-response","110","316099","0.0-4.0-1.0-2.29","1","0","au8rh84bybg3pmm","","null","","<p style=""color:#054d00;""><b>Correct!</b></p>","","null","","","","","","","","","","","","","","","","","","","","","","","","","","","","","","","",""
"audio-keyboard-response","111","316905","0.0-4.0-1.0-0.30","1","0","au8rh84bybg3pmm","","null","","sounds/induction/right_rev/fe_SWS.wav","","null","","","","","","","","","","","","","","","","","","","","","","","","","","","","","","","",""
"html-button-response","112","317759","0.0-4.0-1.0-1.30","1","0","au8rh84bybg3pmm","","853","","Was the sound coming from the left or the right?","1","","","1","INDUCTION-JUDGMENT","right","1","","","","","","","","","","","","","","","","","","","","","","","","","","",""
"html-keyboard-response","113","318766","0.0-4.0-1.0-2.30","1","0","au8rh84bybg3pmm","","null","","<p style=""color:#054d00;""><b>Correct!</b></p>","","null","","","","","","","","","","","","","","","","","","","","","","","","","","","","","","","",""
"audio-keyboard-response","114","319572","0.0-4.0-1.0-0.31","1","0","au8rh84bybg3pmm","","null","","sounds/induction/left_rev/ko_SWS.wav","","null","","","","","","","","","","","","","","","","","","","","","","","","","","","","","","","",""
"html-button-response","115","320508","0.0-4.0-1.0-1.31","1","0","au8rh84bybg3pmm","","934.6000000000349","","Was the sound coming from the left or the right?","0","","","1","INDUCTION-JUDGMENT","left","0","","","","","","","","","","","","","","","","","","","","","","","","","","",""
"html-keyboard-response","116","321510","0.0-4.0-1.0-2.31","1","0","au8rh84bybg3pmm","","null","","<p style=""color:#054d00;""><b>Correct!</b></p>","","null","","","","","","","","","","","","","","","","","","","","","","","","","","","","","","","",""
"audio-keyboard-response","117","322319","0.0-4.0-1.0-0.32","1","0","au8rh84bybg3pmm","","null","","sounds/induction/right_rev/ti_SWS.wav","","null","","","","","","","","","","","","","","","","","","","","","","","","","","","","","","","",""
"html-button-response","118","323100","0.0-4.0-1.0-1.32","1","0","au8rh84bybg3pmm","","779.5999999999767","","Was the sound coming from the left or the right?","1","","","1","INDUCTION-JUDGMENT","right","1","","","","","","","","","","","","","","","","","","","","","","","","","","",""
"html-keyboard-response","119","324102","0.0-4.0-1.0-2.32","1","0","au8rh84bybg3pmm","","null","","<p style=""color:#054d00;""><b>Correct!</b></p>","","null","","","","","","","","","","","","","","","","","","","","","","","","","","","","","","","",""
"audio-keyboard-response","120","324905","0.0-4.0-1.0-0.33","1","0","au8rh84bybg3pmm","","null","","sounds/induction/right_rev/ge_SWS.wav","","null","","","","","","","","","","","","","","","","","","","","","","","","","","","","","","","",""
"html-button-response","121","325742","0.0-4.0-1.0-1.33","1","0","au8rh84bybg3pmm","","834.9000000000233","","Was the sound coming from the left or the right?","1","","","1","INDUCTION-JUDGMENT","right","1","","","","","","","","","","","","","","","","","","","","","","","","","","",""
"html-keyboard-response","122","326748","0.0-4.0-1.0-2.33","1","0","au8rh84bybg3pmm","","null","","<p style=""color:#054d00;""><b>Correct!</b></p>","","null","","","","","","","","","","","","","","","","","","","","","","","","","","","","","","","",""
"audio-keyboard-response","123","327556","0.0-4.0-1.0-0.34","1","0","au8rh84bybg3pmm","","null","","sounds/induction/left_rev/ru_SWS.wav","","null","","","","","","","","","","","","","","","","","","","","","","","","","","","","","","","",""
"html-button-response","124","328385","0.0-4.0-1.0-1.34","1","0","au8rh84bybg3pmm","","826.4999999999418","","Was the sound coming from the left or the right?","0","","","1","INDUCTION-JUDGMENT","left","0","","","","","","","","","","","","","","","","","","","","","","","","","","",""
"html-keyboard-response","125","329387","0.0-4.0-1.0-2.34","1","0","au8rh84bybg3pmm","","null","","<p style=""color:#054d00;""><b>Correct!</b></p>","","null","","","","","","","","","","","","","","","","","","","","","","","","","","","","","","","",""
"audio-keyboard-response","126","330196","0.0-4.0-1.0-0.35","1","0","au8rh84bybg3pmm","","null","","sounds/induction/left_rev/ge_SWS.wav","","null","","","","","","","","","","","","","","","","","","","","","","","","","","","","","","","",""
"html-button-response","127","330976","0.0-4.0-1.0-1.35","1","0","au8rh84bybg3pmm","","778.5","","Was the sound coming from the left or the right?","0","","","1","INDUCTION-JUDGMENT","left","0","","","","","","","","","","","","","","","","","","","","","","","","","","",""
"html-keyboard-response","128","331982","0.0-4.0-1.0-2.35","1","0","au8rh84bybg3pmm","","null","","<p style=""color:#054d00;""><b>Correct!</b></p>","","null","","","","","","","","","","","","","","","","","","","","","","","","","","","","","","","",""
"audio-keyboard-response","129","332788","0.0-4.0-1.0-0.36","1","0","au8rh84bybg3pmm","","null","","sounds/induction/right_rev/ni_SWS.wav","","null","","","","","","","","","","","","","","","","","","","","","","","","","","","","","","","",""
"html-button-response","130","333576","0.0-4.0-1.0-1.36","1","0","au8rh84bybg3pmm","","786.5999999999767","","Was the sound coming from the left or the right?","1","","","1","INDUCTION-JUDGMENT","right","1","","","","","","","","","","","","","","","","","","","","","","","","","","",""
"html-keyboard-response","131","334582","0.0-4.0-1.0-2.36","1","0","au8rh84bybg3pmm","","null","","<p style=""color:#054d00;""><b>Correct!</b></p>","","null","","","","","","","","","","","","","","","","","","","","","","","","","","","","","","","",""
"audio-keyboard-response","132","335390","0.0-4.0-1.0-0.37","1","0","au8rh84bybg3pmm","","null","","sounds/induction/right_rev/su_SWS.wav","","null","","","","","","","","","","","","","","","","","","","","","","","","","","","","","","","",""
"html-button-response","133","336697","0.0-4.0-1.0-1.37","1","0","au8rh84bybg3pmm","","1304.1999999999534","","Was the sound coming from the left or the right?","1","","","1","INDUCTION-JUDGMENT","right","1","","","","","","","","","","","","","","","","","","","","","","","","","","",""
"html-keyboard-response","134","337701","0.0-4.0-1.0-2.37","1","0","au8rh84bybg3pmm","","null","","<p style=""color:#054d00;""><b>Correct!</b></p>","","null","","","","","","","","","","","","","","","","","","","","","","","","","","","","","","","",""
"audio-keyboard-response","135","338505","0.0-4.0-1.0-0.38","1","0","au8rh84bybg3pmm","","null","","sounds/induction/left_rev/fu_SWS.wav","","null","","","","","","","","","","","","","","","","","","","","","","","","","","","","","","","",""
"html-button-response","136","339222","0.0-4.0-1.0-1.38","1","0","au8rh84bybg3pmm","","716.0999999999767","","Was the sound coming from the left or the right?","0","","","1","INDUCTION-JUDGMENT","left","0","","","","","","","","","","","","","","","","","","","","","","","","","","",""
"html-keyboard-response","137","340226","0.0-4.0-1.0-2.38","1","0","au8rh84bybg3pmm","","null","","<p style=""color:#054d00;""><b>Correct!</b></p>","","null","","","","","","","","","","","","","","","","","","","","","","","","","","","","","","","",""
"audio-keyboard-response","138","341028","0.0-4.0-1.0-0.39","1","0","au8rh84bybg3pmm","","null","","sounds/induction/left_rev/ru_SWS.wav","","null","","","","","","","","","","","","","","","","","","","","","","","","","","","","","","","",""
"html-button-response","139","341781","0.0-4.0-1.0-1.39","1","0","au8rh84bybg3pmm","","751.6999999999534","","Was the sound coming from the left or the right?","0","","","1","INDUCTION-JUDGMENT","left","0","","","","","","","","","","","","","","","","","","","","","","","","","","",""
"html-keyboard-response","140","342785","0.0-4.0-1.0-2.39","1","0","au8rh84bybg3pmm","","null","","<p style=""color:#054d00;""><b>Correct!</b></p>","","null","","","","","","","","","","","","","","","","","","","","","","","","","","","","","","","",""
"audio-keyboard-response","141","343593","0.0-4.0-1.0-0.40","1","0","au8rh84bybg3pmm","","null","","sounds/induction/left_rev/fe_SWS.wav","","null","","","","","","","","","","","","","","","","","","","","","","","","","","","","","","","",""
"html-button-response","142","344521","0.0-4.0-1.0-1.40","1","0","au8rh84bybg3pmm","","927.0999999999767","","Was the sound coming from the left or the right?","0","","","1","INDUCTION-JUDGMENT","left","0","","","","","","","","","","","","","","","","","","","","","","","","","","",""
"html-keyboard-response","143","345526","0.0-4.0-1.0-2.40","1","0","au8rh84bybg3pmm","","null","","<p style=""color:#054d00;""><b>Correct!</b></p>","","null","","","","","","","","","","","","","","","","","","","","","","","","","","","","","","","",""
"audio-keyboard-response","144","346329","0.0-4.0-1.0-0.41","1","0","au8rh84bybg3pmm","","null","","sounds/induction/left_rev/fu_SWS.wav","","null","","","","","","","","","","","","","","","","","","","","","","","","","","","","","","","",""
"html-button-response","145","347204","0.0-4.0-1.0-1.41","1","0","au8rh84bybg3pmm","","874.4000000000233","","Was the sound coming from the left or the right?","0","","","1","INDUCTION-JUDGMENT","left","0","","","","","","","","","","","","","","","","","","","","","","","","","","",""
"html-keyboard-response","146","348209","0.0-4.0-1.0-2.41","1","0","au8rh84bybg3pmm","","null","","<p style=""color:#054d00;""><b>Correct!</b></p>","","null","","","","","","","","","","","","","","","","","","","","","","","","","","","","","","","",""
"audio-keyboard-response","147","349017","0.0-4.0-1.0-0.42","1","0","au8rh84bybg3pmm","","null","","sounds/induction/right_rev/pu_SWS.wav","","null","","","","","","","","","","","","","","","","","","","","","","","","","","","","","","","",""
"html-button-response","148","349804","0.0-4.0-1.0-1.42","1","0","au8rh84bybg3pmm","","785.5999999999767","","Was the sound coming from the left or the right?","1","","","1","INDUCTION-JUDGMENT","right","1","","","","","","","","","","","","","","","","","","","","","","","","","","",""
"html-keyboard-response","149","350806","0.0-4.0-1.0-2.42","1","0","au8rh84bybg3pmm","","null","","<p style=""color:#054d00;""><b>Correct!</b></p>","","null","","","","","","","","","","","","","","","","","","","","","","","","","","","","","","","",""
"audio-keyboard-response","150","351614","0.0-4.0-1.0-0.43","1","0","au8rh84bybg3pmm","","null","","sounds/induction/right_rev/re_SWS.wav","","null","","","","","","","","","","","","","","","","","","","","","","","","","","","","","","","",""
"html-button-response","151","352266","0.0-4.0-1.0-1.43","1","0","au8rh84bybg3pmm","","650.4000000000233","","Was the sound coming from the left or the right?","1","","","1","INDUCTION-JUDGMENT","right","1","","","","","","","","","","","","","","","","","","","","","","","","","","",""
"html-keyboard-response","152","353268","0.0-4.0-1.0-2.43","1","0","au8rh84bybg3pmm","","null","","<p style=""color:#054d00;""><b>Correct!</b></p>","","null","","","","","","","","","","","","","","","","","","","","","","","","","","","","","","","",""
"audio-keyboard-response","153","354073","0.0-4.0-1.0-0.44","1","0","au8rh84bybg3pmm","","null","","sounds/induction/left_rev/ta_SWS.wav","","null","","","","","","","","","","","","","","","","","","","","","","","","","","","","","","","",""
"html-button-response","154","354751","0.0-4.0-1.0-1.44","1","0","au8rh84bybg3pmm","","676.8000000000466","","Was the sound coming from the left or the right?","0","","","1","INDUCTION-JUDGMENT","left","0","","","","","","","","","","","","","","","","","","","","","","","","","","",""
"html-keyboard-response","155","355755","0.0-4.0-1.0-2.44","1","0","au8rh84bybg3pmm","","null","","<p style=""color:#054d00;""><b>Correct!</b></p>","","null","","","","","","","","","","","","","","","","","","","","","","","","","","","","","","","",""
"audio-keyboard-response","156","356564","0.0-4.0-1.0-0.45","1","0","au8rh84bybg3pmm","","null","","sounds/induction/left_rev/ni_SWS.wav","","null","","","","","","","","","","","","","","","","","","","","","","","","","","","","","","","",""
"html-button-response","157","357310","0.0-4.0-1.0-1.45","1","0","au8rh84bybg3pmm","","745.5999999999767","","Was the sound coming from the left or the right?","0","","","1","INDUCTION-JUDGMENT","left","0","","","","","","","","","","","","","","","","","","","","","","","","","","",""
"html-keyboard-response","158","358316","0.0-4.0-1.0-2.45","1","0","au8rh84bybg3pmm","","null","","<p style=""color:#054d00;""><b>Correct!</b></p>","","null","","","","","","","","","","","","","","","","","","","","","","","","","","","","","","","",""
"audio-keyboard-response","159","359118","0.0-4.0-1.0-0.46","1","0","au8rh84bybg3pmm","","null","","sounds/induction/left_rev/ta_SWS.wav","","null","","","","","","","","","","","","","","","","","","","","","","","","","","","","","","","",""
"html-button-response","160","359944","0.0-4.0-1.0-1.46","1","0","au8rh84bybg3pmm","","823.9000000000233","","Was the sound coming from the left or the right?","0","","","1","INDUCTION-JUDGMENT","left","0","","","","","","","","","","","","","","","","","","","","","","","","","","",""
"html-keyboard-response","161","360948","0.0-4.0-1.0-2.46","1","0","au8rh84bybg3pmm","","null","","<p style=""color:#054d00;""><b>Correct!</b></p>","","null","","","","","","","","","","","","","","","","","","","","","","","","","","","","","","","",""
"audio-keyboard-response","162","361753","0.0-4.0-1.0-0.47","1","0","au8rh84bybg3pmm","","null","","sounds/induction/right_rev/fu_SWS.wav","","null","","","","","","","","","","","","","","","","","","","","","","","","","","","","","","","",""
"html-button-response","163","362396","0.0-4.0-1.0-1.47","1","0","au8rh84bybg3pmm","","641.5999999999767","","Was the sound coming from the left or the right?","1","","","1","INDUCTION-JUDGMENT","right","1","","","","","","","","","","","","","","","","","","","","","","","","","","",""
"html-keyboard-response","164","363401","0.0-4.0-1.0-2.47","1","0","au8rh84bybg3pmm","","null","","<p style=""color:#054d00;""><b>Correct!</b></p>","","null","","","","","","","","","","","","","","","","","","","","","","","","","","","","","","","",""
"html-button-response","165","373787","0.0-5.0-0.0","1","0","au8rh84bybg3pmm","","9881.29999999993","","<p>Thank you for your answers.</p><p>You will now listen to similar sounds. The main difference is that the sounds will be longer.</p><p>Just as before, you will be asked to judge whether the sound was coming from the left or the right.</p><p>There are 10 of these longer sounds in total.","0","","","","","","","","","","","","","","","","","","","","","","","","","","","","","","","","",""
"audio-keyboard-response","166","376531","0.0-5.0-1.0-0.0","1","0","au8rh84bybg3pmm","","null","","sounds/sentences/right_rev/14_06_cfSWS.wav","","null","","","","","","","","","","","","","","","","","","","","","","","","","","","","","","","",""
"html-button-response","167","377984","0.0-5.0-1.0-1.0","1","0","au8rh84bybg3pmm","","1450.5","","Was the sound coming from the left or the right?","1","","","1","INDUCTION-JUDGMENT","right","1","","","","","","","","","","","","","","","","","","","","","","","","","","",""
"html-keyboard-response","168","378988","0.0-5.0-1.0-2.0","1","0","au8rh84bybg3pmm","","null","","<p style=""color:#054d00;""><b>Correct!</b></p>","","null","","","","","","","","","","","","","","","","","","","","","","","","","","","","","","","",""
"html-button-response","169","381079","0.0-5.0-1.0-3.0","1","0","au8rh84bybg3pmm","","1585.2000000000698","","<p>Press the button below when you are ready to continue.</p>","0","","","","","","","","","","","","","","","","","","","","","","","","","","","","","","","","",""
"audio-keyboard-response","170","383896","0.0-5.0-1.0-0.1","1","0","au8rh84bybg3pmm","","null","","sounds/sentences/left_rev/14_02_cfSWS.wav","","null","","","","","","","","","","","","","","","","","","","","","","","","","","","","","","","",""
"html-button-response","171","384659","0.0-5.0-1.0-1.1","1","0","au8rh84bybg3pmm","","760.2000000000698","","Was the sound coming from the left or the right?","0","","","1","INDUCTION-JUDGMENT","left","0","","","","","","","","","","","","","","","","","","","","","","","","","","",""
"html-keyboard-response","172","385661","0.0-5.0-1.0-2.1","1","0","au8rh84bybg3pmm","","null","","<p style=""color:#054d00;""><b>Correct!</b></p>","","null","","","","","","","","","","","","","","","","","","","","","","","","","","","","","","","",""
"html-button-response","173","387202","0.0-5.0-1.0-3.1","1","0","au8rh84bybg3pmm","","1035.1999999999534","","<p>Press the button below when you are ready to continue.</p>","0","","","","","","","","","","","","","","","","","","","","","","","","","","","","","","","","",""
"audio-keyboard-response","174","389929","0.0-5.0-1.0-0.2","1","0","au8rh84bybg3pmm","","null","","sounds/sentences/right_rev/14_09_cfSWS.wav","","null","","","","","","","","","","","","","","","","","","","","","","","","","","","","","","","",""
"html-button-response","175","390510","0.0-5.0-1.0-1.2","1","0","au8rh84bybg3pmm","","579.5999999999767","","Was the sound coming from the left or the right?","1","","","1","INDUCTION-JUDGMENT","right","1","","","","","","","","","","","","","","","","","","","","","","","","","","",""
"html-keyboard-response","176","391516","0.0-5.0-1.0-2.2","1","0","au8rh84bybg3pmm","","null","","<p style=""color:#054d00;""><b>Correct!</b></p>","","null","","","","","","","","","","","","","","","","","","","","","","","","","","","","","","","",""
"html-button-response","177","392840","0.0-5.0-1.0-3.2","1","0","au8rh84bybg3pmm","","816.4000000000233","","<p>Press the button below when you are ready to continue.</p>","0","","","","","","","","","","","","","","","","","","","","","","","","","","","","","","","","",""
"audio-keyboard-response","178","395859","0.0-5.0-1.0-0.3","1","0","au8rh84bybg3pmm","","null","","sounds/sentences/right_rev/14_10_cfSWS.wav","","null","","","","","","","","","","","","","","","","","","","","","","","","","","","","","","","",""
"html-button-response","179","396544","0.0-5.0-1.0-1.3","1","0","au8rh84bybg3pmm","","682","","Was the sound coming from the left or the right?","1","","","1","INDUCTION-JUDGMENT","right","1","","","","","","","","","","","","","","","","","","","","","","","","","","",""
"html-keyboard-response","180","397550","0.0-5.0-1.0-2.3","1","0","au8rh84bybg3pmm","","null","","<p style=""color:#054d00;""><b>Correct!</b></p>","","null","","","","","","","","","","","","","","","","","","","","","","","","","","","","","","","",""
"html-button-response","181","398879","0.0-5.0-1.0-3.3","1","0","au8rh84bybg3pmm","","823.9000000000233","","<p>Press the button below when you are ready to continue.</p>","0","","","","","","","","","","","","","","","","","","","","","","","","","","","","","","","","",""
"audio-keyboard-response","182","401998","0.0-5.0-1.0-0.4","1","0","au8rh84bybg3pmm","","null","","sounds/sentences/left_rev/14_01_cfSWS.wav","","null","","","","","","","","","","","","","","","","","","","","","","","","","","","","","","","",""
"html-button-response","183","402518","0.0-5.0-1.0-1.4","1","0","au8rh84bybg3pmm","","518.7999999999302","","Was the sound coming from the left or the right?","0","","","1","INDUCTION-JUDGMENT","left","0","","","","","","","","","","","","","","","","","","","","","","","","","","",""
"html-keyboard-response","184","403523","0.0-5.0-1.0-2.4","1","0","au8rh84bybg3pmm","","null","","<p style=""color:#054d00;""><b>Correct!</b></p>","","null","","","","","","","","","","","","","","","","","","","","","","","","","","","","","","","",""
"html-button-response","185","404698","0.0-5.0-1.0-3.4","1","0","au8rh84bybg3pmm","","669.6999999999534","","<p>Press the button below when you are ready to continue.</p>","0","","","","","","","","","","","","","","","","","","","","","","","","","","","","","","","","",""
"audio-keyboard-response","186","407454","0.0-5.0-1.0-0.5","1","0","au8rh84bybg3pmm","","null","","sounds/sentences/right_rev/14_08_cfSWS.wav","","null","","","","","","","","","","","","","","","","","","","","","","","","","","","","","","","",""
"html-button-response","187","408518","0.0-5.0-1.0-1.5","1","0","au8rh84bybg3pmm","","1062","","Was the sound coming from the left or the right?","1","","","1","INDUCTION-JUDGMENT","right","1","","","","","","","","","","","","","","","","","","","","","","","","","","",""
"html-keyboard-response","188","409520","0.0-5.0-1.0-2.5","1","0","au8rh84bybg3pmm","","null","","<p style=""color:#054d00;""><b>Correct!</b></p>","","null","","","","","","","","","","","","","","","","","","","","","","","","","","","","","","","",""
"html-button-response","189","410814","0.0-5.0-1.0-3.5","1","0","au8rh84bybg3pmm","","787.1999999999534","","<p>Press the button below when you are ready to continue.</p>","0","","","","","","","","","","","","","","","","","","","","","","","","","","","","","","","","",""
"audio-keyboard-response","190","413704","0.0-5.0-1.0-0.6","1","0","au8rh84bybg3pmm","","null","","sounds/sentences/right_rev/14_07_cfSWS.wav","","null","","","","","","","","","","","","","","","","","","","","","","","","","","","","","","","",""
"html-button-response","191","414443","0.0-5.0-1.0-1.6","1","0","au8rh84bybg3pmm","","736.6999999999534","","Was the sound coming from the left or the right?","1","","","1","INDUCTION-JUDGMENT","right","1","","","","","","","","","","","","","","","","","","","","","","","","","","",""
"html-keyboard-response","192","415447","0.0-5.0-1.0-2.6","1","0","au8rh84bybg3pmm","","null","","<p style=""color:#054d00;""><b>Correct!</b></p>","","null","","","","","","","","","","","","","","","","","","","","","","","","","","","","","","","",""
"html-button-response","193","416361","0.0-5.0-1.0-3.6","1","0","au8rh84bybg3pmm","","410.20000000006985","","<p>Press the button below when you are ready to continue.</p>","0","","","","","","","","","","","","","","","","","","","","","","","","","","","","","","","","",""
"audio-keyboard-response","194","419352","0.0-5.0-1.0-0.7","1","0","au8rh84bybg3pmm","","null","","sounds/sentences/left_rev/14_05_cfSWS.wav","","null","","","","","","","","","","","","","","","","","","","","","","","","","","","","","","","",""
"html-button-response","195","420064","0.0-5.0-1.0-1.7","1","0","au8rh84bybg3pmm","","709.0999999999767","","Was the sound coming from the left or the right?","0","","","1","INDUCTION-JUDGMENT","left","0","","","","","","","","","","","","","","","","","","","","","","","","","","",""
"html-keyboard-response","196","421067","0.0-5.0-1.0-2.7","1","0","au8rh84bybg3pmm","","null","","<p style=""color:#054d00;""><b>Correct!</b></p>","","null","","","","","","","","","","","","","","","","","","","","","","","","","","","","","","","",""
"html-button-response","197","422344","0.0-5.0-1.0-3.7","1","0","au8rh84bybg3pmm","","769.2999999999302","","<p>Press the button below when you are ready to continue.</p>","0","","","","","","","","","","","","","","","","","","","","","","","","","","","","","","","","",""
"audio-keyboard-response","198","424931","0.0-5.0-1.0-0.8","1","0","au8rh84bybg3pmm","","null","","sounds/sentences/left_rev/14_03_cfSWS.wav","","null","","","","","","","","","","","","","","","","","","","","","","","","","","","","","","","",""
"html-button-response","199","425635","0.0-5.0-1.0-1.8","1","0","au8rh84bybg3pmm","","702.5999999999767","","Was the sound coming from the left or the right?","0","","","1","INDUCTION-JUDGMENT","left","0","","","","","","","","","","","","","","","","","","","","","","","","","","",""
"html-keyboard-response","200","426637","0.0-5.0-1.0-2.8","1","0","au8rh84bybg3pmm","","null","","<p style=""color:#054d00;""><b>Correct!</b></p>","","null","","","","","","","","","","","","","","","","","","","","","","","","","","","","","","","",""
"html-button-response","201","427933","0.0-5.0-1.0-3.8","1","0","au8rh84bybg3pmm","","790.2000000000698","","<p>Press the button below when you are ready to continue.</p>","0","","","","","","","","","","","","","","","","","","","","","","","","","","","","","","","","",""
"audio-keyboard-response","202","430488","0.0-5.0-1.0-0.9","1","0","au8rh84bybg3pmm","","null","","sounds/sentences/left_rev/14_04_cfSWS.wav","","null","","","","","","","","","","","","","","","","","","","","","","","","","","","","","","","",""
"html-button-response","203","431116","0.0-5.0-1.0-1.9","1","0","au8rh84bybg3pmm","","626.6999999999534","","Was the sound coming from the left or the right?","0","","","1","INDUCTION-JUDGMENT","left","0","","","","","","","","","","","","","","","","","","","","","","","","","","",""
"html-keyboard-response","204","432119","0.0-5.0-1.0-2.9","1","0","au8rh84bybg3pmm","","null","","<p style=""color:#054d00;""><b>Correct!</b></p>","","null","","","","","","","","","","","","","","","","","","","","","","","","","","","","","","","",""
"html-button-response","205","433429","0.0-5.0-1.0-3.9","1","0","au8rh84bybg3pmm","","808.5","","<p>Press the button below when you are ready to continue.</p>","0","","","","","","","","","","","","","","","","","","","","","","","","","","","","","","","","",""
"html-keyboard-response","206","450757","0.0-6.0-0.0","1","0","au8rh84bybg3pmm","","16825.800000000047","","<p>In this part of the study, you will hear sounds similar to those you just heard.</p><p>Please focus on these sounds, as you may be asked questions about them later.</p><p>Occasionally, the sounds will pause for up to two seconds. When this happens, please press SPACEBAR as quickly as you can.</br>This helps ensure that you are paying attention to the sounds.</p><p>This part of the study will take about 12 minutes to complete, and you will be given the opportunity to take a couple of short breaks every few minutes.</p><p><strong>Press SPACEBAR to begin</strong></p>","","32","","","","","","","","","","","","","","","","","","","","","","","","","","","","","","","",""
"html-keyboard-response","207","451760","0.0-6.0-1.0-0.0","1","0","au8rh84bybg3pmm","","null","","<p style=""font-size: 40px;"">+</p>","","null","","","","","","","","","","","","","","","","","","","","","","","","","","","","","","","",""
"html-keyboard-response","208","636764","0.0-6.0-1.0-1.0","1","0","au8rh84bybg3pmm","","null","","","","null","","","SL-TRAIN","","","0","701.8000000000466","777.4000000000233","sounds/A/TRAIN/SEQ__06.mp3","3","","","","","","","","","","","","","","","","","","","","","",""
"html-button-response","209","653531","0.0-6.0-1.0-2.0","1","0","au8rh84bybg3pmm","","16765.400000000023","","<p>You may take a short break if you wish.</p>","0","","","","","","","","","","","","","","","","","","","","","","","","","","","","","","","","",""
"html-keyboard-response","210","654534","0.0-6.0-1.0-3.0","1","0","au8rh84bybg3pmm","","null","","<p style=""font-size: 40px;"">+</p>","","null","","","","","","","","","","","","","","","","","","","","","","","","","","","","","","","",""
"html-keyboard-response","211","839701","0.0-6.0-1.0-4.0","1","0","au8rh84bybg3pmm","","null","","","","null","","","SL-TRAIN","","","0","712.6999999999534","799.1999999999534","sounds/A/TRAIN/SEQ__01.mp3","5","","","","","","","","","","","","","","","","","","","","","",""
"html-button-response","212","849695","0.0-6.0-1.0-5.0","1","0","au8rh84bybg3pmm","","9992.199999999953","","<p>You may take a short break if you wish.</p>","0","","","","","","","","","","","","","","","","","","","","","","","","","","","","","","","","",""
"html-keyboard-response","213","850698","0.0-6.0-1.0-6.0","1","0","au8rh84bybg3pmm","","null","","<p style=""font-size: 40px;"">+</p>","","null","","","","","","","","","","","","","","","","","","","","","","","","","","","","","","","",""
"html-keyboard-response","214","1035711","0.0-6.0-1.0-7.0","1","0","au8rh84bybg3pmm","","null","","","","null","","","SL-TRAIN","","","0","830.1000000000931","699","sounds/A/TRAIN/SEQ__11.mp3","8","","","","","","","","","","","","","","","","","","","","","",""
"html-button-response","215","1042512","0.0-6.0-1.0-8.0","1","0","au8rh84bybg3pmm","","6799.700000000186","","<p>You may take a short break if you wish.</p>","0","","","","","","","","","","","","","","","","","","","","","","","","","","","","","","","","",""
"html-keyboard-response","216","1043514","0.0-6.0-1.0-9.0","1","0","au8rh84bybg3pmm","","null","","<p style=""font-size: 40px;"">+</p>","","null","","","","","","","","","","","","","","","","","","","","","","","","","","","","","","","",""
"html-keyboard-response","217","1228527","0.0-6.0-1.0-10.0","1","0","au8rh84bybg3pmm","","null","","","","null","","","SL-TRAIN","","","0","728.1000000000931","998.6999999999534","sounds/A/TRAIN/SEQ__02.mp3","11","","","","","","","","","","","","","","","","","","","","","",""
"html-button-response","218","1234964","0.0-6.0-1.0-11.0","1","0","au8rh84bybg3pmm","","6435.199999999953","","<p>You may take a short break if you wish.</p>","0","","","","","","","","","","","","","","","","","","","","","","","","","","","","","","","","",""
"html-button-response","219","1251096","0.0-7.0-0.0","1","0","au8rh84bybg3pmm","","16128.5","","<p>Welcome to the second part of the study. This is a <u>familiarity task</u>.</p><p>You will now hear short sounds and will be asked to rate how familiar they sound to you <b>based on what you heard in the previous part of the study</b>.</p><p>You will rate 12 sounds in total.</p>","0","","","","","","","","","","","","","","","","","","","","","","","","","","","","","","","","",""
"html-keyboard-response","220","1252098","0.0-7.0-1.0-0.0","1","0","au8rh84bybg3pmm","","null","","","","null","","","","","","","","","","","","","","","","","","","","","","","","","","","","","","","",""
"audio-keyboard-response","221","1253395","0.0-7.0-1.0-1.0","1","0","au8rh84bybg3pmm","","null","","sounds/A/FAM/P003.mp3","","null","","","","","","","","","","","","","","","","","","","","","","","","","","","","","","","",""
"html-keyboard-response","222","1257806","0.0-7.0-1.0-2.0","1","0","au8rh84bybg3pmm","","3905","","<p>How familiar did this sound to you?</p><p>1&nbsp;&nbsp;&nbsp;&nbsp;&nbsp;&nbsp;&nbsp;&nbsp;&nbsp;&nbsp;&nbsp;&nbsp;&nbsp;&nbsp;&nbsp;&nbsp;&nbsp;&nbsp;&nbsp;2&nbsp;&nbsp;&nbsp;&nbsp;&nbsp;&nbsp;&nbsp;&nbsp;&nbsp;&nbsp;&nbsp;&nbsp;&nbsp;&nbsp;&nbsp;&nbsp;&nbsp;&nbsp;&nbsp;3&nbsp;&nbsp;&nbsp;&nbsp;&nbsp;&nbsp;&nbsp;&nbsp;&nbsp;&nbsp;&nbsp;&nbsp;&nbsp;&nbsp;&nbsp;&nbsp;&nbsp;&nbsp;&nbsp;4</p><p style=""font-size:14px"">Not at all familiar&nbsp;&nbsp;&nbsp;&nbsp;A little familiar&nbsp;&nbsp;&nbsp;Moderately familiar&nbsp;&nbsp;&nbsp;Extremely familiar</p><p>(press the corresponding number on your keyboard)</p>","","52","","","FAM-RESPONSE","","","","","","","","sounds/A/FAM/P003.mp3","partword","","","","","","","","","","","","","","","","","","","",""
"html-keyboard-response","223","1259810","0.0-7.0-1.0-0.1","1","0","au8rh84bybg3pmm","","null","","","","null","","","","","","","","","","","","","","","","","","","","","","","","","","","","","","","",""
"audio-keyboard-response","224","1260755","0.0-7.0-1.0-1.1","1","0","au8rh84bybg3pmm","","null","","sounds/A/FAM/N001.mp3","","null","","","","","","","","","","","","","","","","","","","","","","","","","","","","","","","",""
"html-keyboard-response","225","1263832","0.0-7.0-1.0-2.1","1","0","au8rh84bybg3pmm","","2573.4000000001397","","<p>How familiar did this sound to you?</p><p>1&nbsp;&nbsp;&nbsp;&nbsp;&nbsp;&nbsp;&nbsp;&nbsp;&nbsp;&nbsp;&nbsp;&nbsp;&nbsp;&nbsp;&nbsp;&nbsp;&nbsp;&nbsp;&nbsp;2&nbsp;&nbsp;&nbsp;&nbsp;&nbsp;&nbsp;&nbsp;&nbsp;&nbsp;&nbsp;&nbsp;&nbsp;&nbsp;&nbsp;&nbsp;&nbsp;&nbsp;&nbsp;&nbsp;3&nbsp;&nbsp;&nbsp;&nbsp;&nbsp;&nbsp;&nbsp;&nbsp;&nbsp;&nbsp;&nbsp;&nbsp;&nbsp;&nbsp;&nbsp;&nbsp;&nbsp;&nbsp;&nbsp;4</p><p style=""font-size:14px"">Not at all familiar&nbsp;&nbsp;&nbsp;&nbsp;A little familiar&nbsp;&nbsp;&nbsp;Moderately familiar&nbsp;&nbsp;&nbsp;Extremely familiar</p><p>(press the corresponding number on your keyboard)</p>","","52","","","FAM-RESPONSE","","","","","","","","sounds/A/FAM/N001.mp3","nonword","","","","","","","","","","","","","","","","","","","",""
"html-keyboard-response","226","1265840","0.0-7.0-1.0-0.2","1","0","au8rh84bybg3pmm","","null","","","","null","","","","","","","","","","","","","","","","","","","","","","","","","","","","","","","",""
"audio-keyboard-response","227","1266782","0.0-7.0-1.0-1.2","1","0","au8rh84bybg3pmm","","null","","sounds/A/FAM/N002.mp3","","null","","","","","","","","","","","","","","","","","","","","","","","","","","","","","","","",""
"html-keyboard-response","228","1271364","0.0-7.0-1.0-2.2","1","0","au8rh84bybg3pmm","","4080.6999999999534","","<p>How familiar did this sound to you?</p><p>1&nbsp;&nbsp;&nbsp;&nbsp;&nbsp;&nbsp;&nbsp;&nbsp;&nbsp;&nbsp;&nbsp;&nbsp;&nbsp;&nbsp;&nbsp;&nbsp;&nbsp;&nbsp;&nbsp;2&nbsp;&nbsp;&nbsp;&nbsp;&nbsp;&nbsp;&nbsp;&nbsp;&nbsp;&nbsp;&nbsp;&nbsp;&nbsp;&nbsp;&nbsp;&nbsp;&nbsp;&nbsp;&nbsp;3&nbsp;&nbsp;&nbsp;&nbsp;&nbsp;&nbsp;&nbsp;&nbsp;&nbsp;&nbsp;&nbsp;&nbsp;&nbsp;&nbsp;&nbsp;&nbsp;&nbsp;&nbsp;&nbsp;4</p><p style=""font-size:14px"">Not at all familiar&nbsp;&nbsp;&nbsp;&nbsp;A little familiar&nbsp;&nbsp;&nbsp;Moderately familiar&nbsp;&nbsp;&nbsp;Extremely familiar</p><p>(press the corresponding number on your keyboard)</p>","","51","","","FAM-RESPONSE","","","","","","","","sounds/A/FAM/N002.mp3","nonword","","","","","","","","","","","","","","","","","","","",""
"html-keyboard-response","229","1273376","0.0-7.0-1.0-0.3","1","0","au8rh84bybg3pmm","","null","","","","null","","","","","","","","","","","","","","","","","","","","","","","","","","","","","","","",""
"audio-keyboard-response","230","1274318","0.0-7.0-1.0-1.3","1","0","au8rh84bybg3pmm","","null","","sounds/A/FAM/W003.mp3","","null","","","","","","","","","","","","","","","","","","","","","","","","","","","","","","","",""
"html-keyboard-response","231","1275685","0.0-7.0-1.0-2.3","1","0","au8rh84bybg3pmm","","860.8000000000466","","<p>How familiar did this sound to you?</p><p>1&nbsp;&nbsp;&nbsp;&nbsp;&nbsp;&nbsp;&nbsp;&nbsp;&nbsp;&nbsp;&nbsp;&nbsp;&nbsp;&nbsp;&nbsp;&nbsp;&nbsp;&nbsp;&nbsp;2&nbsp;&nbsp;&nbsp;&nbsp;&nbsp;&nbsp;&nbsp;&nbsp;&nbsp;&nbsp;&nbsp;&nbsp;&nbsp;&nbsp;&nbsp;&nbsp;&nbsp;&nbsp;&nbsp;3&nbsp;&nbsp;&nbsp;&nbsp;&nbsp;&nbsp;&nbsp;&nbsp;&nbsp;&nbsp;&nbsp;&nbsp;&nbsp;&nbsp;&nbsp;&nbsp;&nbsp;&nbsp;&nbsp;4</p><p style=""font-size:14px"">Not at all familiar&nbsp;&nbsp;&nbsp;&nbsp;A little familiar&nbsp;&nbsp;&nbsp;Moderately familiar&nbsp;&nbsp;&nbsp;Extremely familiar</p><p>(press the corresponding number on your keyboard)</p>","","52","","","FAM-RESPONSE","","","","","","","","sounds/A/FAM/W003.mp3","word","","","","","","","","","","","","","","","","","","","",""
"html-keyboard-response","232","1277692","0.0-7.0-1.0-0.4","1","0","au8rh84bybg3pmm","","null","","","","null","","","","","","","","","","","","","","","","","","","","","","","","","","","","","","","",""
"audio-keyboard-response","233","1278633","0.0-7.0-1.0-1.4","1","0","au8rh84bybg3pmm","","null","","sounds/A/FAM/W004.mp3","","null","","","","","","","","","","","","","","","","","","","","","","","","","","","","","","","",""
"html-keyboard-response","234","1282580","0.0-7.0-1.0-2.4","1","0","au8rh84bybg3pmm","","3443.5","","<p>How familiar did this sound to you?</p><p>1&nbsp;&nbsp;&nbsp;&nbsp;&nbsp;&nbsp;&nbsp;&nbsp;&nbsp;&nbsp;&nbsp;&nbsp;&nbsp;&nbsp;&nbsp;&nbsp;&nbsp;&nbsp;&nbsp;2&nbsp;&nbsp;&nbsp;&nbsp;&nbsp;&nbsp;&nbsp;&nbsp;&nbsp;&nbsp;&nbsp;&nbsp;&nbsp;&nbsp;&nbsp;&nbsp;&nbsp;&nbsp;&nbsp;3&nbsp;&nbsp;&nbsp;&nbsp;&nbsp;&nbsp;&nbsp;&nbsp;&nbsp;&nbsp;&nbsp;&nbsp;&nbsp;&nbsp;&nbsp;&nbsp;&nbsp;&nbsp;&nbsp;4</p><p style=""font-size:14px"">Not at all familiar&nbsp;&nbsp;&nbsp;&nbsp;A little familiar&nbsp;&nbsp;&nbsp;Moderately familiar&nbsp;&nbsp;&nbsp;Extremely familiar</p><p>(press the corresponding number on your keyboard)</p>","","52","","","FAM-RESPONSE","","","","","","","","sounds/A/FAM/W004.mp3","word","","","","","","","","","","","","","","","","","","","",""
"html-keyboard-response","235","1284589","0.0-7.0-1.0-0.5","1","0","au8rh84bybg3pmm","","null","","","","null","","","","","","","","","","","","","","","","","","","","","","","","","","","","","","","",""
"audio-keyboard-response","236","1285534","0.0-7.0-1.0-1.5","1","0","au8rh84bybg3pmm","","null","","sounds/A/FAM/P001.mp3","","null","","","","","","","","","","","","","","","","","","","","","","","","","","","","","","","",""
"html-keyboard-response","237","1286580","0.0-7.0-1.0-2.5","1","0","au8rh84bybg3pmm","","538.3999999999069","","<p>How familiar did this sound to you?</p><p>1&nbsp;&nbsp;&nbsp;&nbsp;&nbsp;&nbsp;&nbsp;&nbsp;&nbsp;&nbsp;&nbsp;&nbsp;&nbsp;&nbsp;&nbsp;&nbsp;&nbsp;&nbsp;&nbsp;2&nbsp;&nbsp;&nbsp;&nbsp;&nbsp;&nbsp;&nbsp;&nbsp;&nbsp;&nbsp;&nbsp;&nbsp;&nbsp;&nbsp;&nbsp;&nbsp;&nbsp;&nbsp;&nbsp;3&nbsp;&nbsp;&nbsp;&nbsp;&nbsp;&nbsp;&nbsp;&nbsp;&nbsp;&nbsp;&nbsp;&nbsp;&nbsp;&nbsp;&nbsp;&nbsp;&nbsp;&nbsp;&nbsp;4</p><p style=""font-size:14px"">Not at all familiar&nbsp;&nbsp;&nbsp;&nbsp;A little familiar&nbsp;&nbsp;&nbsp;Moderately familiar&nbsp;&nbsp;&nbsp;Extremely familiar</p><p>(press the corresponding number on your keyboard)</p>","","52","","","FAM-RESPONSE","","","","","","","","sounds/A/FAM/P001.mp3","partword","","","","","","","","","","","","","","","","","","","",""
"html-keyboard-response","238","1288587","0.0-7.0-1.0-0.6","1","0","au8rh84bybg3pmm","","null","","","","null","","","","","","","","","","","","","","","","","","","","","","","","","","","","","","","",""
"audio-keyboard-response","239","1289529","0.0-7.0-1.0-1.6","1","0","au8rh84bybg3pmm","","null","","sounds/A/FAM/P004.mp3","","null","","","","","","","","","","","","","","","","","","","","","","","","","","","","","","","",""
"html-keyboard-response","240","1295908","0.0-7.0-1.0-2.6","1","0","au8rh84bybg3pmm","","5872.59999999986","","<p>How familiar did this sound to you?</p><p>1&nbsp;&nbsp;&nbsp;&nbsp;&nbsp;&nbsp;&nbsp;&nbsp;&nbsp;&nbsp;&nbsp;&nbsp;&nbsp;&nbsp;&nbsp;&nbsp;&nbsp;&nbsp;&nbsp;2&nbsp;&nbsp;&nbsp;&nbsp;&nbsp;&nbsp;&nbsp;&nbsp;&nbsp;&nbsp;&nbsp;&nbsp;&nbsp;&nbsp;&nbsp;&nbsp;&nbsp;&nbsp;&nbsp;3&nbsp;&nbsp;&nbsp;&nbsp;&nbsp;&nbsp;&nbsp;&nbsp;&nbsp;&nbsp;&nbsp;&nbsp;&nbsp;&nbsp;&nbsp;&nbsp;&nbsp;&nbsp;&nbsp;4</p><p style=""font-size:14px"">Not at all familiar&nbsp;&nbsp;&nbsp;&nbsp;A little familiar&nbsp;&nbsp;&nbsp;Moderately familiar&nbsp;&nbsp;&nbsp;Extremely familiar</p><p>(press the corresponding number on your keyboard)</p>","","52","","","FAM-RESPONSE","","","","","","","","sounds/A/FAM/P004.mp3","partword","","","","","","","","","","","","","","","","","","","",""
"html-keyboard-response","241","1297919","0.0-7.0-1.0-0.7","1","0","au8rh84bybg3pmm","","null","","","","null","","","","","","","","","","","","","","","","","","","","","","","","","","","","","","","",""
"audio-keyboard-response","242","1298863","0.0-7.0-1.0-1.7","1","0","au8rh84bybg3pmm","","null","","sounds/A/FAM/N004.mp3","","null","","","","","","","","","","","","","","","","","","","","","","","","","","","","","","","",""
"html-keyboard-response","243","1303313","0.0-7.0-1.0-2.7","1","0","au8rh84bybg3pmm","","3947.2000000001863","","<p>How familiar did this sound to you?</p><p>1&nbsp;&nbsp;&nbsp;&nbsp;&nbsp;&nbsp;&nbsp;&nbsp;&nbsp;&nbsp;&nbsp;&nbsp;&nbsp;&nbsp;&nbsp;&nbsp;&nbsp;&nbsp;&nbsp;2&nbsp;&nbsp;&nbsp;&nbsp;&nbsp;&nbsp;&nbsp;&nbsp;&nbsp;&nbsp;&nbsp;&nbsp;&nbsp;&nbsp;&nbsp;&nbsp;&nbsp;&nbsp;&nbsp;3&nbsp;&nbsp;&nbsp;&nbsp;&nbsp;&nbsp;&nbsp;&nbsp;&nbsp;&nbsp;&nbsp;&nbsp;&nbsp;&nbsp;&nbsp;&nbsp;&nbsp;&nbsp;&nbsp;4</p><p style=""font-size:14px"">Not at all familiar&nbsp;&nbsp;&nbsp;&nbsp;A little familiar&nbsp;&nbsp;&nbsp;Moderately familiar&nbsp;&nbsp;&nbsp;Extremely familiar</p><p>(press the corresponding number on your keyboard)</p>","","49","","","FAM-RESPONSE","","","","","","","","sounds/A/FAM/N004.mp3","nonword","","","","","","","","","","","","","","","","","","","",""
"html-keyboard-response","244","1305321","0.0-7.0-1.0-0.8","1","0","au8rh84bybg3pmm","","null","","","","null","","","","","","","","","","","","","","","","","","","","","","","","","","","","","","","",""
"audio-keyboard-response","245","1306265","0.0-7.0-1.0-1.8","1","0","au8rh84bybg3pmm","","null","","sounds/A/FAM/N003.mp3","","null","","","","","","","","","","","","","","","","","","","","","","","","","","","","","","","",""
"html-keyboard-response","246","1310839","0.0-7.0-1.0-2.8","1","0","au8rh84bybg3pmm","","4067.0999999998603","","<p>How familiar did this sound to you?</p><p>1&nbsp;&nbsp;&nbsp;&nbsp;&nbsp;&nbsp;&nbsp;&nbsp;&nbsp;&nbsp;&nbsp;&nbsp;&nbsp;&nbsp;&nbsp;&nbsp;&nbsp;&nbsp;&nbsp;2&nbsp;&nbsp;&nbsp;&nbsp;&nbsp;&nbsp;&nbsp;&nbsp;&nbsp;&nbsp;&nbsp;&nbsp;&nbsp;&nbsp;&nbsp;&nbsp;&nbsp;&nbsp;&nbsp;3&nbsp;&nbsp;&nbsp;&nbsp;&nbsp;&nbsp;&nbsp;&nbsp;&nbsp;&nbsp;&nbsp;&nbsp;&nbsp;&nbsp;&nbsp;&nbsp;&nbsp;&nbsp;&nbsp;4</p><p style=""font-size:14px"">Not at all familiar&nbsp;&nbsp;&nbsp;&nbsp;A little familiar&nbsp;&nbsp;&nbsp;Moderately familiar&nbsp;&nbsp;&nbsp;Extremely familiar</p><p>(press the corresponding number on your keyboard)</p>","","50","","","FAM-RESPONSE","","","","","","","","sounds/A/FAM/N003.mp3","nonword","","","","","","","","","","","","","","","","","","","",""
"html-keyboard-response","247","1312847","0.0-7.0-1.0-0.9","1","0","au8rh84bybg3pmm","","null","","","","null","","","","","","","","","","","","","","","","","","","","","","","","","","","","","","","",""
"audio-keyboard-response","248","1313791","0.0-7.0-1.0-1.9","1","0","au8rh84bybg3pmm","","null","","sounds/A/FAM/W001.mp3","","null","","","","","","","","","","","","","","","","","","","","","","","","","","","","","","","",""
"html-keyboard-response","249","1315094","0.0-7.0-1.0-2.9","1","0","au8rh84bybg3pmm","","796.7000000001863","","<p>How familiar did this sound to you?</p><p>1&nbsp;&nbsp;&nbsp;&nbsp;&nbsp;&nbsp;&nbsp;&nbsp;&nbsp;&nbsp;&nbsp;&nbsp;&nbsp;&nbsp;&nbsp;&nbsp;&nbsp;&nbsp;&nbsp;2&nbsp;&nbsp;&nbsp;&nbsp;&nbsp;&nbsp;&nbsp;&nbsp;&nbsp;&nbsp;&nbsp;&nbsp;&nbsp;&nbsp;&nbsp;&nbsp;&nbsp;&nbsp;&nbsp;3&nbsp;&nbsp;&nbsp;&nbsp;&nbsp;&nbsp;&nbsp;&nbsp;&nbsp;&nbsp;&nbsp;&nbsp;&nbsp;&nbsp;&nbsp;&nbsp;&nbsp;&nbsp;&nbsp;4</p><p style=""font-size:14px"">Not at all familiar&nbsp;&nbsp;&nbsp;&nbsp;A little familiar&nbsp;&nbsp;&nbsp;Moderately familiar&nbsp;&nbsp;&nbsp;Extremely familiar</p><p>(press the corresponding number on your keyboard)</p>","","52","","","FAM-RESPONSE","","","","","","","","sounds/A/FAM/W001.mp3","word","","","","","","","","","","","","","","","","","","","",""
"html-keyboard-response","250","1317101","0.0-7.0-1.0-0.10","1","0","au8rh84bybg3pmm","","null","","","","null","","","","","","","","","","","","","","","","","","","","","","","","","","","","","","","",""
"audio-keyboard-response","251","1318042","0.0-7.0-1.0-1.10","1","0","au8rh84bybg3pmm","","null","","sounds/A/FAM/P002.mp3","","null","","","","","","","","","","","","","","","","","","","","","","","","","","","","","","","",""
"html-keyboard-response","252","1319781","0.0-7.0-1.0-2.10","1","0","au8rh84bybg3pmm","","1232.7999999998137","","<p>How familiar did this sound to you?</p><p>1&nbsp;&nbsp;&nbsp;&nbsp;&nbsp;&nbsp;&nbsp;&nbsp;&nbsp;&nbsp;&nbsp;&nbsp;&nbsp;&nbsp;&nbsp;&nbsp;&nbsp;&nbsp;&nbsp;2&nbsp;&nbsp;&nbsp;&nbsp;&nbsp;&nbsp;&nbsp;&nbsp;&nbsp;&nbsp;&nbsp;&nbsp;&nbsp;&nbsp;&nbsp;&nbsp;&nbsp;&nbsp;&nbsp;3&nbsp;&nbsp;&nbsp;&nbsp;&nbsp;&nbsp;&nbsp;&nbsp;&nbsp;&nbsp;&nbsp;&nbsp;&nbsp;&nbsp;&nbsp;&nbsp;&nbsp;&nbsp;&nbsp;4</p><p style=""font-size:14px"">Not at all familiar&nbsp;&nbsp;&nbsp;&nbsp;A little familiar&nbsp;&nbsp;&nbsp;Moderately familiar&nbsp;&nbsp;&nbsp;Extremely familiar</p><p>(press the corresponding number on your keyboard)</p>","","49","","","FAM-RESPONSE","","","","","","","","sounds/A/FAM/P002.mp3","partword","","","","","","","","","","","","","","","","","","","",""
"html-keyboard-response","253","1321786","0.0-7.0-1.0-0.11","1","0","au8rh84bybg3pmm","","null","","","","null","","","","","","","","","","","","","","","","","","","","","","","","","","","","","","","",""
"audio-keyboard-response","254","1322730","0.0-7.0-1.0-1.11","1","0","au8rh84bybg3pmm","","null","","sounds/A/FAM/W002.mp3","","null","","","","","","","","","","","","","","","","","","","","","","","","","","","","","","","",""
"html-keyboard-response","255","1324361","0.0-7.0-1.0-2.11","1","0","au8rh84bybg3pmm","","1129.5","","<p>How familiar did this sound to you?</p><p>1&nbsp;&nbsp;&nbsp;&nbsp;&nbsp;&nbsp;&nbsp;&nbsp;&nbsp;&nbsp;&nbsp;&nbsp;&nbsp;&nbsp;&nbsp;&nbsp;&nbsp;&nbsp;&nbsp;2&nbsp;&nbsp;&nbsp;&nbsp;&nbsp;&nbsp;&nbsp;&nbsp;&nbsp;&nbsp;&nbsp;&nbsp;&nbsp;&nbsp;&nbsp;&nbsp;&nbsp;&nbsp;&nbsp;3&nbsp;&nbsp;&nbsp;&nbsp;&nbsp;&nbsp;&nbsp;&nbsp;&nbsp;&nbsp;&nbsp;&nbsp;&nbsp;&nbsp;&nbsp;&nbsp;&nbsp;&nbsp;&nbsp;4</p><p style=""font-size:14px"">Not at all familiar&nbsp;&nbsp;&nbsp;&nbsp;A little familiar&nbsp;&nbsp;&nbsp;Moderately familiar&nbsp;&nbsp;&nbsp;Extremely familiar</p><p>(press the corresponding number on your keyboard)</p>","","49","","","FAM-RESPONSE","","","","","","","","sounds/A/FAM/W002.mp3","word","","","","","","","","","","","","","","","","","","","",""
"html-button-response","256","1337094","0.0-8.0-0.0","1","0","au8rh84bybg3pmm","","11728.90000000014","","<p>You will now listen to longer sound sequences.</p><p>Each sound sequence will last about 16 seconds.</p><p>On each trial, you will be given a <u>TARGET SOUND</u>. Your task is to listen very carefully for this sound.</p><p>Every time you hear the <u>TARGET SOUND</u>, you will press the <b>SPACEBAR</b> as quickly and accurately as you can.</p>","0","","","","","","","","","","","","","","","","","","","","","","","","","","","","","","","","",""
"html-button-response","257","1350303","0.0-8.0-1.0","1","0","au8rh84bybg3pmm","","12955.100000000093","","<p>It is very important that you make your responses as quickly and accurately as possible.</p><p>To help you make your responses, you will be able to listen to the <u>TARGET SOUND</u> at the beginning of each trial.</p><p>There will be 36 total trials.</p><p><b>Note: This is meant to be a difficult task. We simply want you to try your best.</p>","0","","","","","","","","","","","","","","","","","","","","","","","","","","","","","","","","",""
"html-button-response","258","1352895","0.0-8.0-2.0-0.0","1","0","au8rh84bybg3pmm","","2336.899999999907","","<p>Trial 1 of 36</p>","0","","","","","","","","","","","","","","FE","sounds/syllables/fe_SWS.wav","1800,5400,9000,11700","1","","","","","","","","","","","","","","","",""
"html-keyboard-response","259","1356610","0.0-8.0-2.0-1.0","1","0","au8rh84bybg3pmm","","3713.600000000093","","","","80","","","","","","","","","","","","","FE","","1800,5400,9000,11700","1","","","","","","","","","","","","","","","",""
"audio-keyboard-response","260","1357184","0.0-8.0-2.0-2.0-0.0","1","0","au8rh84bybg3pmm","","null","","sounds/syllables/fe_SWS.wav","","null","","","","","","","","","","","","","","","","","","","","","","","","","","","","","","","",""
"html-keyboard-response","261","1360031","0.0-8.0-2.0-2.0-1.0","1","0","au8rh84bybg3pmm","","2845.8000000000466","","<p>To replay the <u>TARGET SOUND</u>, press P.</p> When you are ready to begin, press SPACEBAR.","","80","","","","","","","","","","","","","","","","","","","","","","","","","","","","","","","",""
"audio-keyboard-response","262","1360837","0.0-8.0-2.0-2.1-0.1","1","0","au8rh84bybg3pmm","","null","","sounds/syllables/fe_SWS.wav","","null","","","","","","","","","","","","","","","","","","","","","","","","","","","","","","","",""
"html-keyboard-response","263","1361846","0.0-8.0-2.0-2.1-1.1","1","0","au8rh84bybg3pmm","","1006.8999999999069","","<p>To replay the <u>TARGET SOUND</u>, press P.</p> When you are ready to begin, press SPACEBAR.","","32","","","","","","","","","","","","","","","","","","","","","","","","","","","","","","","",""
"audio-keyboard-response","264","1376801","0.0-8.0-2.0-3.0","1","0","au8rh84bybg3pmm","","2576","","sounds/A/TD/FE_03_TD.mp3","","32","","","TD_SUMMARY","","","","","","","","","","FE","","1800,5400,9000,11700","1","1800","5400","9000","11700","779.9000000001397","null","null","null","2579.9000000001397_8073.600000000093","2","","","","","",""
"html-button-response","265","1379534","0.0-8.0-2.0-0.1","1","0","au8rh84bybg3pmm","","2729.4000000001397","","<p>Trial 2 of 36</p>","0","","","","","","","","","","","","","","KO","sounds/syllables/ko_SWS.wav","5100,7800,10500,13200","3","","","","","","","","","","","","","","","",""
"html-keyboard-response","266","1380833","0.0-8.0-2.0-1.1","1","0","au8rh84bybg3pmm","","1298.6000000000931","","","","80","","","","","","","","","","","","","KO","","5100,7800,10500,13200","3","","","","","","","","","","","","","","","",""
"audio-keyboard-response","267","1381137","0.0-8.0-2.0-2.2-0.2","1","0","au8rh84bybg3pmm","","null","","sounds/syllables/ko_SWS.wav","","null","","","","","","","","","","","","","","","","","","","","","","","","","","","","","","","",""
"html-keyboard-response","268","1384635","0.0-8.0-2.0-2.2-1.2","1","0","au8rh84bybg3pmm","","3496.6999999999534","","<p>To replay the <u>TARGET SOUND</u>, press P.</p> When you are ready to begin, press SPACEBAR.","","80","","","","","","","","","","","","","","","","","","","","","","","","","","","","","","","",""
"audio-keyboard-response","269","1385440","0.0-8.0-2.0-2.3-0.3","1","0","au8rh84bybg3pmm","","null","","sounds/syllables/ko_SWS.wav","","null","","","","","","","","","","","","","","","","","","","","","","","","","","","","","","","",""
"html-keyboard-response","270","1386992","0.0-8.0-2.0-2.3-1.3","1","0","au8rh84bybg3pmm","","1550.6000000000931","","<p>To replay the <u>TARGET SOUND</u>, press P.</p> When you are ready to begin, press SPACEBAR.","","32","","","","","","","","","","","","","","","","","","","","","","","","","","","","","","","",""
"audio-keyboard-response","271","1401943","0.0-8.0-2.0-3.1","1","0","au8rh84bybg3pmm","","1611","","sounds/A/TD/KO_04_TD.mp3","","32","","","TD_SUMMARY","","","","","","","","","","KO","","5100,7800,10500,13200","3","5100","7800","10500","13200","null","407.30000000004657","747","623.5","__1610.9000000001397_3641.9000000001397_8207.300000000047_9937.100000000093_11247_13823.5","2","","","","","",""
"html-button-response","272","1403265","0.0-8.0-2.0-0.2","1","0","au8rh84bybg3pmm","","1318.4000000001397","","<p>Trial 3 of 36</p>","0","","","","","","","","","","","","","","GE","sounds/syllables/ge_SWS.wav","2100,3900,10200,12900","2","","","","","","","","","","","","","","","",""
"html-keyboard-response","273","1405306","0.0-8.0-2.0-1.2","1","0","au8rh84bybg3pmm","","2040.0999999998603","","","","80","","","","","","","","","","","","","GE","","2100,3900,10200,12900","2","","","","","","","","","","","","","","","",""
"audio-keyboard-response","274","1405606","0.0-8.0-2.0-2.4-0.4","1","0","au8rh84bybg3pmm","","null","","sounds/syllables/ge_SWS.wav","","null","","","","","","","","","","","","","","","","","","","","","","","","","","","","","","","",""
"html-keyboard-response","275","1407601","0.0-8.0-2.0-2.4-1.4","1","0","au8rh84bybg3pmm","","1993.6999999999534","","<p>To replay the <u>TARGET SOUND</u>, press P.</p> When you are ready to begin, press SPACEBAR.","","80","","","","","","","","","","","","","","","","","","","","","","","","","","","","","","","",""
"audio-keyboard-response","276","1408407","0.0-8.0-2.0-2.5-0.5","1","0","au8rh84bybg3pmm","","null","","sounds/syllables/ge_SWS.wav","","null","","","","","","","","","","","","","","","","","","","","","","","","","","","","","","","",""
"html-keyboard-response","277","1409733","0.0-8.0-2.0-2.5-1.5","1","0","au8rh84bybg3pmm","","1324.8000000000466","","<p>To replay the <u>TARGET SOUND</u>, press P.</p> When you are ready to begin, press SPACEBAR.","","80","","","","","","","","","","","","","","","","","","","","","","","","","","","","","","","",""
"audio-keyboard-response","278","1410540","0.0-8.0-2.0-2.6-0.6","1","0","au8rh84bybg3pmm","","null","","sounds/syllables/ge_SWS.wav","","null","","","","","","","","","","","","","","","","","","","","","","","","","","","","","","","",""
"html-keyboard-response","279","1411408","0.0-8.0-2.0-2.6-1.6","1","0","au8rh84bybg3pmm","","866.1999999999534","","<p>To replay the <u>TARGET SOUND</u>, press P.</p> When you are ready to begin, press SPACEBAR.","","32","","","","","","","","","","","","","","","","","","","","","","","","","","","","","","","",""
"audio-keyboard-response","280","1426360","0.0-8.0-2.0-3.2","1","0","au8rh84bybg3pmm","","2848","","sounds/A/TD/GE_07_TD.mp3","","32","","","TD_SUMMARY","","","","","","","","","","GE","","2100,3900,10200,12900","2","2100","3900","10200","12900","748","594.1999999999534","752.8000000000466","836.1999999999534","________2848_4494.199999999953_9750.399999999907_10952.800000000047_13736.199999999953","3","","","","","",""
"html-button-response","281","1428095","0.0-8.0-2.0-0.3","1","0","au8rh84bybg3pmm","","1732.1999999999534","","<p>Trial 4 of 36</p>","0","","","","","","","","","","","","","","GE","sounds/syllables/ge_SWS.wav","2100,4800,8400,12900","2","","","","","","","","","","","","","","","",""
"html-keyboard-response","282","1429131","0.0-8.0-2.0-1.3","1","0","au8rh84bybg3pmm","","1035.3000000000466","","","","80","","","","","","","","","","","","","GE","","2100,4800,8400,12900","2","","","","","","","","","","","","","","","",""
"audio-keyboard-response","283","1429437","0.0-8.0-2.0-2.7-0.7","1","0","au8rh84bybg3pmm","","null","","sounds/syllables/ge_SWS.wav","","null","","","","","","","","","","","","","","","","","","","","","","","","","","","","","","","",""
"html-keyboard-response","284","1430572","0.0-8.0-2.0-2.7-1.7","1","0","au8rh84bybg3pmm","","1134.3000000000466","","<p>To replay the <u>TARGET SOUND</u>, press P.</p> When you are ready to begin, press SPACEBAR.","","80","","","","","","","","","","","","","","","","","","","","","","","","","","","","","","","",""
"audio-keyboard-response","285","1431378","0.0-8.0-2.0-2.8-0.8","1","0","au8rh84bybg3pmm","","null","","sounds/syllables/ge_SWS.wav","","null","","","","","","","","","","","","","","","","","","","","","","","","","","","","","","","",""
"html-keyboard-response","286","1432181","0.0-8.0-2.0-2.8-1.8","1","0","au8rh84bybg3pmm","","802.3999999999069","","<p>To replay the <u>TARGET SOUND</u>, press P.</p> When you are ready to begin, press SPACEBAR.","","32","","","","","","","","","","","","","","","","","","","","","","","","","","","","","","","",""
"audio-keyboard-response","287","1447128","0.0-8.0-2.0-3.3","1","0","au8rh84bybg3pmm","","2955","","sounds/A/TD/GE_06_TD.mp3","","32","","","TD_SUMMARY","","","","","","","","","","GE","","2100,4800,8400,12900","2","2100","4800","8400","12900","850.6999999999534","821.2999999998137","816.1999999999534","761.8999999999069","_____________2950.6999999999534_5621.299999999814_9216.199999999953_13661.899999999907","2","","","","","",""
"html-button-response","288","1449885","0.0-8.0-2.0-0.4","1","0","au8rh84bybg3pmm","","2754.5","","<p>Trial 5 of 36</p>","0","","","","","","","","","","","","","","SU","sounds/syllables/su_SWS.wav","4200,6900,8700,13200","3","","","","","","","","","","","","","","","",""
"html-keyboard-response","289","1450895","0.0-8.0-2.0-1.4","1","0","au8rh84bybg3pmm","","1009.1999999999534","","","","80","","","","","","","","","","","","","SU","","4200,6900,8700,13200","3","","","","","","","","","","","","","","","",""
"audio-keyboard-response","290","1451197","0.0-8.0-2.0-2.9-0.9","1","0","au8rh84bybg3pmm","","null","","sounds/syllables/su_SWS.wav","","null","","","","","","","","","","","","","","","","","","","","","","","","","","","","","","","",""
"html-keyboard-response","291","1452191","0.0-8.0-2.0-2.9-1.9","1","0","au8rh84bybg3pmm","","992.5","","<p>To replay the <u>TARGET SOUND</u>, press P.</p> When you are ready to begin, press SPACEBAR.","","80","","","","","","","","","","","","","","","","","","","","","","","","","","","","","","","",""
"audio-keyboard-response","292","1453000","0.0-8.0-2.0-2.10-0.10","1","0","au8rh84bybg3pmm","","null","","sounds/syllables/su_SWS.wav","","null","","","","","","","","","","","","","","","","","","","","","","","","","","","","","","","",""
"html-keyboard-response","293","1453985","0.0-8.0-2.0-2.10-1.10","1","0","au8rh84bybg3pmm","","983.8000000000466","","<p>To replay the <u>TARGET SOUND</u>, press P.</p> When you are ready to begin, press SPACEBAR.","","32","","","","","","","","","","","","","","","","","","","","","","","","","","","","","","","",""
"audio-keyboard-response","294","1468937","0.0-8.0-2.0-3.4","1","0","au8rh84bybg3pmm","","4933","","sounds/A/TD/SU_06_TD.mp3","","32","","","TD_SUMMARY","","","","","","","","","","SU","","4200,6900,8700,13200","3","4200","6900","8700","13200","730.8000000000466","637.8999999999069","644.5","764.8999999999069","_________________4930.800000000047_7537.899999999907_9344.5_13964.899999999907","2","","","","","",""
"html-button-response","295","1472062","0.0-8.0-2.0-0.5","1","0","au8rh84bybg3pmm","","3123.1999999999534","","<p>Trial 6 of 36</p>","0","","","","","","","","","","","","","","TI","sounds/syllables/ti_SWS.wav","1200,6600,9300,12900","2","","","","","","","","","","","","","","","",""
"html-keyboard-response","296","1473158","0.0-8.0-2.0-1.5","1","0","au8rh84bybg3pmm","","1094.3999999999069","","","","80","","","","","","","","","","","","","TI","","1200,6600,9300,12900","2","","","","","","","","","","","","","","","",""
"audio-keyboard-response","297","1473459","0.0-8.0-2.0-2.11-0.11","1","0","au8rh84bybg3pmm","","null","","sounds/syllables/ti_SWS.wav","","null","","","","","","","","","","","","","","","","","","","","","","","","","","","","","","","",""
"html-keyboard-response","298","1474427","0.0-8.0-2.0-2.11-1.11","1","0","au8rh84bybg3pmm","","967.3000000000466","","<p>To replay the <u>TARGET SOUND</u>, press P.</p> When you are ready to begin, press SPACEBAR.","","80","","","","","","","","","","","","","","","","","","","","","","","","","","","","","","","",""
"audio-keyboard-response","299","1475230","0.0-8.0-2.0-2.12-0.12","1","0","au8rh84bybg3pmm","","null","","sounds/syllables/ti_SWS.wav","","null","","","","","","","","","","","","","","","","","","","","","","","","","","","","","","","",""
"html-keyboard-response","300","1476023","0.0-8.0-2.0-2.12-1.12","1","0","au8rh84bybg3pmm","","791.7999999998137","","<p>To replay the <u>TARGET SOUND</u>, press P.</p> When you are ready to begin, press SPACEBAR.","","80","","","","","","","","","","","","","","","","","","","","","","","","","","","","","","","",""
"audio-keyboard-response","301","1476824","0.0-8.0-2.0-2.13-0.13","1","0","au8rh84bybg3pmm","","null","","sounds/syllables/ti_SWS.wav","","null","","","","","","","","","","","","","","","","","","","","","","","","","","","","","","","",""
"html-keyboard-response","302","1477288","0.0-8.0-2.0-2.13-1.13","1","0","au8rh84bybg3pmm","","462.30000000004657","","<p>To replay the <u>TARGET SOUND</u>, press P.</p> When you are ready to begin, press SPACEBAR.","","32","","","","","","","","","","","","","","","","","","","","","","","","","","","","","","","",""
"audio-keyboard-response","303","1492239","0.0-8.0-2.0-3.5","1","0","au8rh84bybg3pmm","","1579","","sounds/A/TD/TI_03_TD.mp3","","32","","","TD_SUMMARY","","","","","","","","","","TI","","1200,6600,9300,12900","2","1200","6600","9300","12900","381.80000000004657","null","null","233.30000000004657","_____________________1581.8000000000466_3062.1999999999534_4830.899999999907_13133.300000000047","3","","","","","",""
"html-button-response","304","1497012","0.0-8.0-2.0-0.6","1","0","au8rh84bybg3pmm","","4768.699999999953","","<p>Trial 7 of 36</p>","0","","","","","","","","","","","","","","PU","sounds/syllables/pu_SWS.wav","2100,4800,7500,10200","2","","","","","","","","","","","","","","","",""
"html-keyboard-response","305","1497962","0.0-8.0-2.0-1.6","1","0","au8rh84bybg3pmm","","948.1999999999534","","","","80","","","","","","","","","","","","","PU","","2100,4800,7500,10200","2","","","","","","","","","","","","","","","",""
"audio-keyboard-response","306","1498265","0.0-8.0-2.0-2.14-0.14","1","0","au8rh84bybg3pmm","","null","","sounds/syllables/pu_SWS.wav","","null","","","","","","","","","","","","","","","","","","","","","","","","","","","","","","","",""
"html-keyboard-response","307","1499117","0.0-8.0-2.0-2.14-1.14","1","0","au8rh84bybg3pmm","","850.5999999998603","","<p>To replay the <u>TARGET SOUND</u>, press P.</p> When you are ready to begin, press SPACEBAR.","","80","","","","","","","","","","","","","","","","","","","","","","","","","","","","","","","",""
"audio-keyboard-response","308","1499924","0.0-8.0-2.0-2.15-0.15","1","0","au8rh84bybg3pmm","","null","","sounds/syllables/pu_SWS.wav","","null","","","","","","","","","","","","","","","","","","","","","","","","","","","","","","","",""
"html-keyboard-response","309","1500709","0.0-8.0-2.0-2.15-1.15","1","0","au8rh84bybg3pmm","","782.8000000000466","","<p>To replay the <u>TARGET SOUND</u>, press P.</p> When you are ready to begin, press SPACEBAR.","","32","","","","","","","","","","","","","","","","","","","","","","","","","","","","","","","",""
"audio-keyboard-response","310","1515663","0.0-8.0-2.0-3.6","1","0","au8rh84bybg3pmm","","2773","","sounds/A/TD/PU_10_TD.mp3","","32","","","TD_SUMMARY","","","","","","","","","","PU","","2100,4800,7500,10200","2","2100","4800","7500","10200","675.4000000001397","null","null","null","_________________________2775.4000000001397_7232.5_9957.199999999953_13584.800000000047","2","","","","","",""
"html-button-response","311","1518426","0.0-8.0-2.0-0.7","1","0","au8rh84bybg3pmm","","2759.9000000001397","","<p>Trial 8 of 36</p>","0","","","","","","","","","","","","","","FE","sounds/syllables/fe_SWS.wav","1800,6300,9000,12600","1","","","","","","","","","","","","","","","",""
"html-keyboard-response","312","1519507","0.0-8.0-2.0-1.7","1","0","au8rh84bybg3pmm","","1079.3999999999069","","","","80","","","","","","","","","","","","","FE","","1800,6300,9000,12600","1","","","","","","","","","","","","","","","",""
"audio-keyboard-response","313","1519807","0.0-8.0-2.0-2.16-0.16","1","0","au8rh84bybg3pmm","","null","","sounds/syllables/fe_SWS.wav","","null","","","","","","","","","","","","","","","","","","","","","","","","","","","","","","","",""
"html-keyboard-response","314","1520504","0.0-8.0-2.0-2.16-1.16","1","0","au8rh84bybg3pmm","","695.5","","<p>To replay the <u>TARGET SOUND</u>, press P.</p> When you are ready to begin, press SPACEBAR.","","80","","","","","","","","","","","","","","","","","","","","","","","","","","","","","","","",""
"audio-keyboard-response","315","1521311","0.0-8.0-2.0-2.17-0.17","1","0","au8rh84bybg3pmm","","null","","sounds/syllables/fe_SWS.wav","","null","","","","","","","","","","","","","","","","","","","","","","","","","","","","","","","",""
"html-keyboard-response","316","1522736","0.0-8.0-2.0-2.17-1.17","1","0","au8rh84bybg3pmm","","1423.5999999998603","","<p>To replay the <u>TARGET SOUND</u>, press P.</p> When you are ready to begin, press SPACEBAR.","","80","","","","","","","","","","","","","","","","","","","","","","","","","","","","","","","",""
"audio-keyboard-response","317","1523540","0.0-8.0-2.0-2.18-0.18","1","0","au8rh84bybg3pmm","","null","","sounds/syllables/fe_SWS.wav","","null","","","","","","","","","","","","","","","","","","","","","","","","","","","","","","","",""
"html-keyboard-response","318","1524089","0.0-8.0-2.0-2.18-1.18","1","0","au8rh84bybg3pmm","","547","","<p>To replay the <u>TARGET SOUND</u>, press P.</p> When you are ready to begin, press SPACEBAR.","","32","","","","","","","","","","","","","","","","","","","","","","","","","","","","","","","",""
"audio-keyboard-response","319","1539040","0.0-8.0-2.0-3.7","1","0","au8rh84bybg3pmm","","7269","","sounds/A/TD/FE_07_TD.mp3","","32","","","TD_SUMMARY","","","","","","","","","","FE","","1800,6300,9000,12600","1","1800","6300","9000","12600","null","972.1999999999534","923","null","_____________________________7272.199999999953_9923","3","","","","","",""
"html-button-response","320","1541554","0.0-8.0-2.0-0.8","1","0","au8rh84bybg3pmm","","2511.7000000001863","","<p>Trial 9 of 36</p>","0","","","","","","","","","","","","","","RE","sounds/syllables/re_SWS.wav","4500,9000,10800,12600","1","","","","","","","","","","","","","","","",""
"html-keyboard-response","321","1542358","0.0-8.0-2.0-1.8","1","0","au8rh84bybg3pmm","","803.3999999999069","","","","80","","","","","","","","","","","","","RE","","4500,9000,10800,12600","1","","","","","","","","","","","","","","","",""
"audio-keyboard-response","322","1542660","0.0-8.0-2.0-2.19-0.19","1","0","au8rh84bybg3pmm","","null","","sounds/syllables/re_SWS.wav","","null","","","","","","","","","","","","","","","","","","","","","","","","","","","","","","","",""
"html-keyboard-response","323","1543436","0.0-8.0-2.0-2.19-1.19","1","0","au8rh84bybg3pmm","","774.8000000000466","","<p>To replay the <u>TARGET SOUND</u>, press P.</p> When you are ready to begin, press SPACEBAR.","","80","","","","","","","","","","","","","","","","","","","","","","","","","","","","","","","",""
"audio-keyboard-response","324","1544239","0.0-8.0-2.0-2.20-0.20","1","0","au8rh84bybg3pmm","","null","","sounds/syllables/re_SWS.wav","","null","","","","","","","","","","","","","","","","","","","","","","","","","","","","","","","",""
"html-keyboard-response","325","1545478","0.0-8.0-2.0-2.20-1.20","1","0","au8rh84bybg3pmm","","1237","","<p>To replay the <u>TARGET SOUND</u>, press P.</p> When you are ready to begin, press SPACEBAR.","","80","","","","","","","","","","","","","","","","","","","","","","","","","","","","","","","",""
"audio-keyboard-response","326","1546282","0.0-8.0-2.0-2.21-0.21","1","0","au8rh84bybg3pmm","","null","","sounds/syllables/re_SWS.wav","","null","","","","","","","","","","","","","","","","","","","","","","","","","","","","","","","",""
"html-keyboard-response","327","1546724","0.0-8.0-2.0-2.21-1.21","1","0","au8rh84bybg3pmm","","439.39999999990687","","<p>To replay the <u>TARGET SOUND</u>, press P.</p> When you are ready to begin, press SPACEBAR.","","32","","","","","","","","","","","","","","","","","","","","","","","","","","","","","","","",""
"audio-keyboard-response","328","1561675","0.0-8.0-2.0-3.8","1","0","au8rh84bybg3pmm","","752","","sounds/A/TD/RE_09_TD.mp3","","32","","","TD_SUMMARY","","","","","","","","","","RE","","4500,9000,10800,12600","1","4500","9000","10800","12600","null","null","964","907.1000000000931","_______________________________757.3000000000466_3415.5_8430.399999999907_11764_13507.100000000093","3","","","","","",""
"html-button-response","329","1563440","0.0-8.0-2.0-0.9","1","0","au8rh84bybg3pmm","","1762.5","","<p>Trial 10 of 36</p>","0","","","","","","","","","","","","","","NI","sounds/syllables/ni_SWS.wav","4200,6900,9600,11400","3","","","","","","","","","","","","","","","",""
"html-keyboard-response","330","1563981","0.0-8.0-2.0-1.9","1","0","au8rh84bybg3pmm","","539.3000000000466","","","","80","","","","","","","","","","","","","NI","","4200,6900,9600,11400","3","","","","","","","","","","","","","","","",""
"audio-keyboard-response","331","1564283","0.0-8.0-2.0-2.22-0.22","1","0","au8rh84bybg3pmm","","null","","sounds/syllables/ni_SWS.wav","","null","","","","","","","","","","","","","","","","","","","","","","","","","","","","","","","",""
"html-keyboard-response","332","1564990","0.0-8.0-2.0-2.22-1.22","1","0","au8rh84bybg3pmm","","705.6000000000931","","<p>To replay the <u>TARGET SOUND</u>, press P.</p> When you are ready to begin, press SPACEBAR.","","80","","","","","","","","","","","","","","","","","","","","","","","","","","","","","","","",""
"audio-keyboard-response","333","1565792","0.0-8.0-2.0-2.23-0.23","1","0","au8rh84bybg3pmm","","null","","sounds/syllables/ni_SWS.wav","","null","","","","","","","","","","","","","","","","","","","","","","","","","","","","","","","",""
"html-keyboard-response","334","1566520","0.0-8.0-2.0-2.23-1.23","1","0","au8rh84bybg3pmm","","726.6999999999534","","<p>To replay the <u>TARGET SOUND</u>, press P.</p> When you are ready to begin, press SPACEBAR.","","32","","","","","","","","","","","","","","","","","","","","","","","","","","","","","","","",""
"audio-keyboard-response","335","1581473","0.0-8.0-2.0-3.9","1","0","au8rh84bybg3pmm","","3008","","sounds/A/TD/NI_02_TD.mp3","","32","","","TD_SUMMARY","","","","","","","","","","NI","","4200,6900,9600,11400","3","4200","6900","9600","11400","1048.8000000000466","null","990.8000000000466","null","____________________________________3011.5_5248.800000000047_10590.800000000047","2","","","","","",""
"html-button-response","336","1583032","0.0-8.0-2.0-0.10","1","0","au8rh84bybg3pmm","","1557.1000000000931","","<p>Trial 11 of 36</p>","0","","","","","","","","","","","","","","FU","sounds/syllables/fu_SWS.wav","2100,3900,7500,12000","2","","","","","","","","","","","","","","","",""
"html-keyboard-response","337","1583587","0.0-8.0-2.0-1.10","1","0","au8rh84bybg3pmm","","552.3000000000466","","","","80","","","","","","","","","","","","","FU","","2100,3900,7500,12000","2","","","","","","","","","","","","","","","",""
"audio-keyboard-response","338","1583888","0.0-8.0-2.0-2.24-0.24","1","0","au8rh84bybg3pmm","","null","","sounds/syllables/fu_SWS.wav","","null","","","","","","","","","","","","","","","","","","","","","","","","","","","","","","","",""
"html-keyboard-response","339","1584651","0.0-8.0-2.0-2.24-1.24","1","0","au8rh84bybg3pmm","","760.8000000000466","","<p>To replay the <u>TARGET SOUND</u>, press P.</p> When you are ready to begin, press SPACEBAR.","","80","","","","","","","","","","","","","","","","","","","","","","","","","","","","","","","",""
